nose_x,nose_y,nose_z,nose_visibility,left_shoulder_x,left_shoulder_z,left_shoulder_visibility,right_shoulder_x,right_shoulder_z,left_hip_y,left_hip_z,left_hip_visibility,right_hip_z,left_knee_x,left_knee_z,left_knee_visibility,right_knee_x,right_knee_z,right_knee_visibility,left_ankle_z,left_ankle_visibility,right_ankle_z,right_ankle_visibility,left_wrist_y,left_wrist_z,left_wrist_visibility,right_wrist_x,right_wrist_y,right_wrist_z,right_wrist_visibility,trunk_lateral_inclination,center_mass_x,left_knee_angle,right_knee_angle,person_height,center_mass_velocity_x,center_mass_velocity_y,center_mass_acceleration_x,center_mass_acceleration_y,body_orientation,torso_leg_ratio,activity
1.6440175946779743,-1.2618652710318865,-0.26460129400458143,0.2569025684265061,0.5584776091085728,0.9822655433474595,-0.11665266109733373,0.9531795073381508,-1.1115928525500591,-0.5070023340498072,1.6395891909443747,0.2051070778812539,-1.6394844118707552,1.4094917762712078,1.5193716879987955,0.21080291654473002,1.5556442698099977,-0.2531636563523676,0.8089530411969958,0.5158078288681215,0.5491574972493187,-0.5427702666991397,0.9120716537626781,-0.654867428155654,0.9299615858091602,-1.8077687648936063,1.3262446187242058,-0.25814317486999355,-0.8606566104048737,0.97937838358111,-1.0081812229189242,2.3219827272520264,1.2864016256937152,1.2617934098145922,0.32147526443663405,-0.003670578159753832,-0.001698889322254647,-0.004514653943860991,-0.0076197760568815325,1.2112417590253812,-0.03969157395346664,0
1.6437734954111658,-1.2512025920464136,-0.1071262764337344,0.25654834620843464,0.543456680384941,1.3136816335590977,-0.18942425105269392,0.9483092004594005,-0.9629860670819674,-0.5147076614859192,1.7249104048766832,0.20395484879135484,-1.724405694604953,1.4455313350329588,1.5504519475201362,0.16740882525880538,1.5570355988725564,-0.30574566863008207,0.8065170702885609,0.5348457654789761,0.5158119023431894,-0.6213630557554684,0.91201738484563,-0.6605405848999585,1.227926330523751,-1.8100653977093937,1.3185571932378468,-0.2741240851698318,-1.1156245680546912,0.9810865953505565,-1.0068148681027511,2.357142818466502,1.3048385318968412,1.307570614188762,0.2531609685071908,0.4845005993186877,-0.08128157909058964,0.5779679257394855,-0.12448022389305595,1.2119815599403845,-0.03817197630750102,0
1.6435724724855587,-1.2372843706999035,-0.0959306060044278,0.25616969487185115,0.5062263544376006,1.322854857939648,-0.232268618513526,0.9481335206167494,-0.9774884252448435,-0.5161547721778078,1.7733449831809214,0.20354485659577282,-1.77265010115912,1.447151212169713,1.6375558131158887,0.12253070702710861,1.555239330754477,-0.2724715627572195,0.8044156553846922,0.6461885793056639,0.4866055812842771,-0.5298307438856791,0.911614584078862,-0.6609801208911544,1.1756609749805191,-1.8194418876727032,1.313801404593445,-0.27828427850750886,-1.155299017817401,0.9821893496764286,-1.005791037566793,2.35929350625217,1.3107671610789773,1.2467791480977368,0.27197835535320847,0.018873057669455934,0.001927719453822463,-0.4239585881418447,0.08462573558851187,1.2077824675095543,-0.036768082959926424,0
1.6422658234691134,-1.2257858511019022,-0.040172198237610125,0.25581547265373417,0.47323187811055334,1.376920022018685,-0.27990684888333234,0.9473577081729253,-0.8836178582640016,-0.5200458213224078,1.7755753437665291,0.20309347364647698,-1.774951031481344,1.439966198394081,1.6247235738327939,0.09248385933817758,1.5529239100011147,-0.28053448851125784,0.8024776785289657,0.5914199072438162,0.46720966858247803,-0.5768962791208734,0.9116939334515956,-0.6559795317545484,1.2751822147005945,-1.827993266425889,1.304002960692421,-0.2804588565459925,-1.078882109963609,0.983421816109306,-1.004660920439635,2.369583659886872,1.3264430972417467,1.2948861192123817,0.24387062928594053,0.12158923051736796,-0.03524526091355249,0.10293805788593002,-0.055476620499769834,1.1986035130257735,-0.036506135391532496,0
1.6394917070957373,-1.2215852957038733,-0.05823658119484472,0.2555101086726185,0.47001904855283305,1.3197377346536885,-0.31107321609850963,0.9252528240297189,-0.9230905059920388,-0.5250486556192423,1.7812358488470659,0.20294301266337839,-1.7806308395158055,1.465953854808657,1.634008148501712,0.08023739477943372,1.5371238703695862,-0.2705751671996072,0.8019909643415467,0.6051445317114645,0.46497189532587957,-0.564515318856738,0.9158441002353467,-0.6584502382454496,1.273158522693385,-1.8292999300676873,1.2811176019698007,-0.2883918480838496,-1.1450207929766956,0.9847207499262098,-1.0039604970181433,2.3723203056918143,1.3025155493272733,1.3096519993003397,0.2426461580849007,0.03666425690152972,-0.07137049771685838,-0.11208331928565073,-0.06393154727562184,1.1947771933298574,-0.036445514008350985,0
1.6354626333153577,-1.2213652288924162,-0.06993790876813319,0.2553024611654598,0.44853800359202467,1.2870084472318697,-0.326431100665977,0.9186782944437912,-0.9427360819907501,-0.5287447943078155,1.777945507769626,0.2029508433465126,-1.7773569999664252,1.4814254606993373,1.644034402143684,0.07999865885914008,1.527706441565552,-0.24616669585480105,0.8019698445937691,0.6073025675813429,0.46841847348164173,-0.5451953224747863,0.9194613073357458,-0.6582331229740325,1.283796496235793,-1.828770881921335,1.2651370326451479,-0.2887163991212638,-1.1035642215303636,0.9858547237809419,-1.0032010752567024,2.3735887938760794,1.298284560537393,1.320925523091563,0.24664630074719054,0.012357444492532682,-0.0344792085435223,-0.030908956856630827,0.0416799090033559,1.1796254498105696,-0.03485763823124889,0
1.6282688843347084,-1.2205880498034416,-0.08114518538294875,0.2551436718952796,0.44090040433276945,1.2995382170822178,-0.3570968033475775,0.9178358005998368,-0.9281668818127006,-0.5344751617150031,1.777026593435826,0.2027176008559853,-1.776518676515692,1.4887125870738478,1.6351369056876892,0.07566674000387834,1.5271324070802532,-0.25644287382935005,0.8012810528196597,0.6024648591361862,0.4659887301335109,-0.5749053848615006,0.9213784487200397,-0.6584930899437557,1.2895673611836738,-1.8278752518957773,1.2533185280357726,-0.2902526360609606,-1.0839095546210167,0.9869560681926073,-1.0030600634412195,2.3696293359017373,1.2911992461153456,1.3453159576645524,0.2439348468700454,-0.05226484530266714,-0.055117152449862476,-0.07267319843213339,-0.03440791349188051,1.1696034620514495,-0.035092949207681266,0
1.6281468347013042,-1.220391229486153,-0.08003923053289957,0.25496045350663293,0.4435536027064342,1.3074533563062942,-0.3945590270724593,0.9187231761554174,-0.9053868084906391,-0.5358077127919209,1.7760596949613157,0.20253302046779637,-1.7755326149971333,1.5134671564989366,1.6286453919592916,0.07560401227315816,1.5272021218627054,-0.260622550811772,0.8006621002114965,0.5675389588459444,0.4658901450413583,-0.5866733212945592,0.9224346385996242,-0.6608544225761235,1.300344086376444,-1.828088402806561,1.2478830554321034,-0.2930022806591066,-1.0719087490285153,0.9881752411486798,-1.002999049361898,2.3755150166744077,1.2858508829562283,1.3503292843815269,0.2350799037540047,0.06788989488012014,-0.00847463481681558,0.1210322693552586,0.05235729805106797,1.1665811424074033,-0.03632358675412818,0
1.6275408941684033,-1.2163220598292366,-0.08615705151562003,0.25489938071038704,0.42277001741662507,1.307925243881797,-0.42437360004693264,0.9343445764705666,-0.9090985062744353,-0.5380197475796045,1.7742503681517376,0.2022757265933537,-1.7737201211406153,1.4624711963226649,1.6183084483989838,0.07397229725252588,1.5350635760541345,-0.2606713281522791,0.8004357829142896,0.5433816002703029,0.4691636034418898,-0.5925994731179185,0.9241496228626465,-0.6594244001869398,1.2772844404672352,-1.8369388886011637,1.2487286622402505,-0.2886798118027224,-0.9571503326559214,0.9890622786009425,-1.0029801493403208,2.3660196256983657,1.3188150954259046,1.3543088886396566,0.2373000267682323,-0.0781236376951605,-0.012615258594287785,-0.10290476971128992,-0.011053475363225004,1.135468631362567,-0.03383753687273721,0
1.631314381657654,-1.210771084015676,-0.061403207117768935,0.2549360243881209,0.4254873773273153,1.3297651232292829,-0.4310199217301643,0.9405882637250783,-0.894252658791228,-0.5344087330493775,1.7734911003011367,0.20236633878391866,-1.7729971054501394,1.4438108924579152,1.615849109856079,0.06013567148632722,1.5436103117241369,-0.2389497668039787,0.8003378640836846,0.5437437124525385,0.4688039303584319,-0.5729672320539286,0.9278178557177192,-0.6437627166232086,1.2749353896662936,-1.8375716977315137,1.2426534870866828,-0.2814208878041103,-1.022473236465137,0.9900363279013845,-1.00270203600374,2.383850236872866,1.326028372442645,1.366919952270944,0.2314687700716364,0.18427429069720752,0.09050623479348288,0.23317666016790806,0.10733849648585826,1.1351405695774597,-0.03366856261348013,0
1.6410295324766306,-1.200665746902724,-0.07082456402655166,0.2549238098288763,0.4262192941200504,1.3214669867972184,-0.4612976093982427,0.9599297167667294,-0.8999269954158724,-0.5243521490712773,1.7856199036280418,0.20200500869067708,-1.7852155841645903,1.450287306683754,1.6133145429276134,0.05494673831852576,1.547644869346908,-0.2717902876034197,0.8005118620057152,0.5498970739464498,0.46728506992768487,-0.602084048653992,0.9303853592632803,-0.6408883879454058,1.2665528054942545,-1.836239353548158,1.2430612974622433,-0.2747077605103274,-1.1166079059345242,0.9907312141889196,-1.003267462632326,2.3805393783096145,1.3214561071130577,1.3592530174157997,0.23540226358622493,-0.04166428321783414,0.14797876371527235,-0.22733254926121096,0.062132457295119,1.121467077975199,-0.033059054075529996,0
1.6694469947672554,-1.173640291163037,-0.1320646735098088,0.25481387879567463,0.46973863887249945,1.2968706075452694,-0.5055939040064241,0.975265156462089,-1.0059318259184609,-0.524210938434768,1.8139758249166298,0.20125717845126237,-1.8136893942126937,1.4911787610528224,1.5970335627003394,0.04807315533623534,1.550592173022072,-0.3825693721739436,0.8005193019168637,0.515630909383655,0.46738452170196626,-0.7204397838854837,0.9328953507294203,-0.6549992481418716,1.1758200920548263,-1.8342316570230852,1.2506927489754858,-0.2687646886620804,-1.265564375098881,0.9917133201419699,-1.004324911817472,2.3961697105965927,1.3094714655011492,1.3775636771479995,0.24031035965601755,0.15721352328517169,-0.0011838365686004878,0.17140724558114045,-0.16999944648365772,1.111528995129729,-0.03521688196943164,0
1.684816633307948,-1.1562751600195498,-0.14762957128154622,0.2548383079141639,0.5384722794993505,1.2955134014445553,-0.5686651186237578,0.9972559128243031,-1.0024654776491866,-0.5172530329310526,1.827731579240103,0.20014913678762541,-1.827549747332159,1.5374821831624508,1.5988769895491344,0.04405037567709663,1.57730480104725,-0.3881126777411859,0.8006621002114965,0.5194336176313142,0.4637680738489565,-0.7197174075334188,0.9350522699185169,-0.6755725525542974,1.177538823224875,-1.8354489340197622,1.2664404265905662,-0.2575784388473311,-1.2052345829576467,0.9923578523506985,-1.005997340197313,2.4190233783773034,1.2924140517379867,1.3806440792174572,0.24647862082606065,0.28490958541005623,0.1012429116020178,0.13405774519431202,0.12916908766730012,1.1058402203383346,-0.037917303617980166,0
1.6993132580002903,-1.147299143333154,-0.1419072919667093,0.25488716615111967,0.5562699769642517,1.3102539010675975,-0.620947012542512,1.0175270584639253,-0.9602688212086348,-0.5057433716144506,1.8260741420789441,0.19927825295608334,-1.8258930991203628,1.5505773503883227,1.5886260449582221,0.039468604594831334,1.6018814868015492,-0.37977635969881024,0.8010436956542963,0.5111060981082682,0.46083327149025916,-0.7215121934054342,0.9374122110721841,-0.6750636376229868,1.2044964958620294,-1.8378074852062112,1.2807727623139962,-0.24511249376171645,-1.1736969376254844,0.9930017803104815,-1.0066253988220013,2.4332273139714817,1.287639140132913,1.384981147292918,0.24677631972021719,0.20096089480455434,0.1961387397911661,-0.1084507328282529,0.13697002092473085,1.1014453819181769,-0.03823557127021133,0
1.7069607444415953,-1.1231245687597278,-0.11739789389575864,0.2547650205587189,0.554083731998939,1.3069430195546106,-0.6387581533244823,1.0162896055576605,-0.9598094199702253,-0.493288593474339,1.8232407326873152,0.19891916020088354,-1.8229424816364495,1.5500389385033269,1.609716339420054,0.030486364099259897,1.598894134208806,-0.31589574698479744,0.8007175395494127,0.5537010549961553,0.45594691764800427,-0.6249801447786999,0.9380640867092255,-0.6652877368494404,1.2341573369353398,-1.8468008205231374,1.2752293399050316,-0.23851472413109936,-1.1116715976842606,0.9935991811014468,-1.0065352832192762,2.432484752472668,1.2745829786752727,1.3440200128004995,0.24751000387017194,-0.01422112112307425,0.28473938319396175,-0.2672612028794052,0.1255194566940155,1.06509940784423,-0.039962170059460185,0
1.7085717996025311,-1.1106698433682827,-0.0687047157362035,0.2546673040847164,0.5537973814355476,1.3497284301283907,-0.6551173669591265,1.0193377149443876,-0.8651527908909343,-0.46033321312461833,1.811053843295337,0.19824124677517324,-1.8107310294886372,1.5226046869379724,1.49660217666634,-0.007309872736320392,1.5812918932862237,-0.37456332064209713,0.7977679747745678,0.4381696617680379,0.41879203811520405,-0.7017677812102584,0.9312783099700732,-0.59461263488903,1.2622598001527003,-1.8441727082052681,1.2719498648015675,-0.22479964494657745,-1.1075688624795628,0.9940485409007195,-1.0070906758309566,2.4172942149573946,1.2581476435937131,1.3217050149395855,0.21674752669717032,-0.1832935423721306,0.4645812568061869,-0.1763253334635965,0.2172889612946125,1.0901477549007712,-0.04301456544142912,0
1.7122935954823402,-1.0963637786610494,-0.060485315458843385,0.25450851481455894,0.5586154375955165,1.3501276895052967,-0.6799878776645758,1.021583082860315,-0.8349483783493004,-0.4457737998358584,1.7967845143530317,0.1972959714538474,-1.7964195347571696,1.5327354944751899,1.4274674560381335,-0.03787389336123122,1.5601430982180362,-0.4442508090864513,0.7950147276552003,0.3488422928063689,0.38320671991768646,-0.7942288490261169,0.9226709570312286,-0.572131001512043,1.2673642342547045,-1.8426896146528433,1.269436033687513,-0.2166475599365137,-1.1049941163988921,0.9945633610024419,-1.0073558644061045,2.4156733689441667,1.2498468463930732,1.3317735533224755,0.19000042179649082,-0.023059669973127327,0.2285048779656716,0.16021003816073495,-0.30629213807234557,1.1040358798072458,-0.0440128449005565,0
1.7156592936082167,-1.0783742065050834,-0.025196708417635067,0.2542642236296436,0.5572906206736015,1.3440535381149006,-0.6762954767294471,1.0208136820895801,-0.8288989400630319,-0.4427514944381206,1.7740569884568356,0.1968714365610163,-1.773532205525074,1.5254731226701046,1.451930765954714,-0.06648038530932186,1.5307279099028992,-0.4381040407707454,0.7918743651589558,0.395983698604433,0.3553454895226939,-0.7666367094498064,0.9163035482382369,-0.5727929582230178,1.2640867023045668,-1.8384313315134964,1.2565400300956522,-0.20865688956707373,-1.0701955214499177,0.9949422250913847,-1.0075677058973775,2.4027209561573035,1.2494830008800728,1.303725848880378,0.18479353653671757,-0.15317956669169552,0.08779863008382917,-0.13359169539976398,-0.17939352744939632,1.096174679331792,-0.04509217841789996,0
1.717023377746264,-1.0643766026858967,-0.019497211615094025,0.25387335773381553,0.551103785057089,1.34244233793063,-0.7129566372006062,1.0202289375038218,-0.8399061685712762,-0.4378811196960962,1.7712192496690506,0.19614709837100733,-1.7706496916870604,1.5027051074413793,1.4527282862624222,-0.08605037859813798,1.494663117976408,-0.43672063070016404,0.7910370151590024,0.4462784714727557,0.33754340525578425,-0.7293893967609908,0.9147723431763701,-0.5568333533282067,1.2706871817508933,-1.837017379739001,1.2414890285388207,-0.19755543624353217,-1.0704768010244063,0.995071735782077,-1.008157022162864,2.3719418472829283,1.2142856173498353,1.2583484272655168,0.18912214458768986,-0.45597829748766966,0.09860489459814974,-0.386917111124949,0.009175236904702923,1.10000467169497,-0.048250070427519,0
1.7149557133685924,-1.0458020224594118,-0.02151833568549274,0.25355577919347794,0.530738437934557,1.3431130189561398,-0.7551876906077833,1.0149418718742569,-0.8214780609007152,-0.44017151644263136,1.7697268707362828,0.19568844407308486,-1.769211767883,1.4288359251163256,1.436725849903267,-0.08571397798317874,1.4495368876243626,-0.4321139951479744,0.790986375763763,0.3932259608369687,0.3394945233982774,-0.7473220636499213,0.9151169832312438,-0.5622387889859517,1.316615311858285,-1.8414680374337797,1.2268258466528652,-0.1936444671109782,-1.0241647920570547,0.9953291458329376,-1.0108449801935608,2.2321614965334935,1.2289201989982552,1.257290439930114,0.18451635716602205,-1.6829329866080431,-0.03581300897223022,-1.2712609142045073,-0.17840738148370158,1.1029183904520912,-0.054768711438482734,0
1.7119087801676067,-1.0360399872763835,-0.03286517309890273,0.25343363360103166,0.5132199619733778,1.3268610628238238,-0.7607826167705037,1.0019389988488414,-0.8335355740615109,-0.44172403789135084,1.7701065948573358,0.1954076581492354,-1.7696569639386115,1.3790668632871848,1.4493451630289962,-0.09561940128361075,1.4060229970281817,-0.42021216722369736,0.7902570244740352,0.4107770525238111,0.3322635777270477,-0.7332573420916552,0.9141016571975638,-0.5658260883012841,1.2980571403587473,-1.836935917099177,1.221247440510703,-0.19298847801148314,-1.0298404572423692,0.9955656085870153,-1.0124752091478548,2.131957455121531,1.222057881506492,1.253065677095556,0.19055210024923605,-1.3202954882502163,-0.02931687491942527,0.4049705423633346,0.0014075389973767394,1.1029703185008475,-0.056273826838201785,0
1.7109783311976545,-1.0397205099900624,-0.04283796710562116,0.2533725608048313,0.4993990916274449,1.3233441108071238,-0.7541488117005882,0.9799700421751313,-0.8586027452298419,-0.44259874828482615,1.784656973766672,0.19551393170606984,-1.7843732970095991,1.3542782563291367,1.5095180951007736,-0.09641236449558388,1.372536168759182,-0.4149299615844631,0.7904567020893872,0.4501779126759507,0.334212745834751,-0.7265084905024791,0.9146426166814365,-0.5791648017054166,1.2783429219903697,-1.8316168560677726,1.1948007377485697,-0.19375896389606068,-1.1071618853823304,0.9959378259375556,-1.012901523949602,2.0766098703654943,1.2180934440044127,1.2651475016209228,0.1974452312108612,-0.7087445764436798,-0.029735548219602365,0.6649957173901027,-0.008183852654837544,1.1041003043945268,-0.057043791113703377,0
1.7067324398332273,-1.049037245662584,-0.040942218495971974,0.25320155697540647,0.49913531641967346,1.330749731725654,-0.785252595849045,0.9682597624445499,-0.8437546958920171,-0.44379525981896606,1.7831674810980087,0.19517944966929404,-1.7828661885493833,1.3449906513129612,1.482215824986403,-0.09295942789231239,1.377622381291712,-0.4173128562195301,0.790828217652565,0.4047399402834821,0.3382985020605137,-0.7506371314247061,0.9154285430299097,-0.5972135289204992,1.277182385619126,-1.836438105961512,1.186060801660581,-0.2017276818743758,-1.0424473940833836,0.9963223296833258,-1.0124772904227646,2.083332074724702,1.2247025905136506,1.2779157846105957,0.18850327348661214,0.08010680578320635,-0.015482731610513287,0.8403729542433155,0.011166580999113798,1.1119351855622281,-0.05649608952389728,0
1.6907166561745124,-1.0515439639176563,-0.03403560675733736,0.2531282696199159,0.4888219434311334,1.3305642825061577,-0.789858709557998,0.9530897439148984,-0.8171608530971047,-0.44722488829215573,1.7590985639599361,0.19509554949284397,-1.7587165996792415,1.3232808939271583,1.448359240354809,-0.09326274426111118,1.3744718664421658,-0.4131675076628445,0.7906774994525155,0.36912036287788536,0.3369744284382177,-0.7471518960309765,0.9143243543472002,-0.6087149247458347,1.2913314103018947,-1.8380676003435126,1.1782054542548737,-0.20366035317144462,-0.9710564480668579,0.9967098546738231,-1.0122738278429744,2.0645696728469454,1.2348841878037229,1.2735537748800072,0.18271041411230188,-0.23991532582455347,-0.03682732246128756,-0.3508066130405485,-0.03604398282213877,1.112229898024776,-0.05571046440338516,0
1.6905084538587052,-1.0504818574285586,-0.019563338215249606,0.2528473347572895,0.47033035082506774,1.3095746975268678,-0.7923620322258352,0.9349075213678207,-0.8225270873506275,-0.4471166931002388,1.7427042230717835,0.19511232952813481,-1.7422738932351762,1.3289682562525724,1.4533990450834493,-0.10285823434351231,1.3409702052407293,-0.3715726893597603,0.7890971183262052,0.3707395792147363,0.325823479498361,-0.6796597493870964,0.9108429276448315,-0.6035735371719373,1.3025495056331073,-1.8408568502081277,1.1740543844271727,-0.20326176661886428,-0.9610096572312772,0.9960568629798556,-1.0128012516807763,2.0033011715353424,1.233981915489662,1.2475218585317442,0.18817859218830857,-0.8220351389913509,-0.004108837269978473,-0.6727210125986011,0.038600180910974474,1.1103029747126503,-0.05665473102932798,0
1.6888227330396868,-1.0449468958665364,-0.019971345786087634,0.2528351201980449,0.466702847629905,1.2847157127146052,-0.7638742202653404,0.9279662440811763,-0.8428481608909241,-0.44652002843893235,1.7386021202153712,0.1955530851217471,-1.7382599219996546,1.325887859519738,1.4574295632560426,-0.10114102963080147,1.3067239308309726,-0.36107556257993617,0.7885840044540646,0.3777707498533991,0.32939572656280125,-0.6610652346057305,0.910620014284371,-0.601774173954497,1.3015450282693166,-1.8318996802446454,1.1708848581994722,-0.20046778679942695,-0.975805122537707,0.9960202052104838,-1.013022779311415,1.981376684399896,1.2391251515562152,1.256376583799394,0.18966481880124755,-0.2983455942821129,0.004400123494385674,0.6003753982697353,0.0044755390090181965,1.0994607228921205,-0.055718108851036,0
1.6889634490876115,-1.032044689812045,-0.02185663450015431,0.25295726579049116,0.4704598620757303,1.2942382000884112,-0.7351235594247176,0.9252464123566294,-0.8197686353408814,-0.4102372481613259,1.7367550915809464,0.19563474796015748,-1.7364187813714511,1.3170984402132424,1.460232400572662,-0.09754834517174832,1.31355301292481,-0.36143760886095017,0.7887844020608172,0.3884134962990681,0.3291305218313841,-0.6660963104862095,0.9110636788970435,-0.5782791999404255,1.2870490756617052,-1.8177488079799031,1.1714026174507963,-0.19326654163239773,-0.9805542532609081,0.9961507229827513,-1.0130865653528065,1.9821231609856982,1.2308977485275927,1.222540081641066,0.19413621694947275,0.00952180005675994,0.7399193355306966,0.4630689409756485,1.36714284798918,1.1402679856235334,-0.05468875307485626,0
1.700862570405504,-1.0230233281123344,-0.08036284250787339,0.25305498226444817,0.47518999316644206,1.2986872288140363,-0.7308428776626362,0.9399137557160676,-0.9141569527074966,-0.3770479752643731,1.7595545936882122,0.1953248766418057,-1.7593226860940834,1.3095916170350843,1.5370235149964144,-0.1106870256809466,1.364320207482517,-0.358123514017101,0.7887404825853257,0.5259019976317398,0.3252781197688046,-0.6343218788828128,0.9110457333985781,-0.5179170733723303,1.1823220952419162,-1.8248879502158375,1.2096148494548917,-0.15518516917739222,-1.0923063088286353,0.9958788109571935,-1.0135507186819466,1.9835652180264522,1.209746750875806,1.1838804969471055,0.23006369367275942,0.01212431852452596,0.44441655353934667,-0.0020649317538866535,-0.34993224244075855,1.1616421053646686,-0.05526191470913997,0
1.7394604080000815,-0.997842151642059,-0.10363811618632907,0.25305498226444817,0.4836771387029792,1.28018220611369,-0.733283617263823,0.9674211156044492,-0.9800661679006236,-0.3651747462808149,1.7689217834430468,0.19469954066000553,-1.768584601768235,1.3114420210996096,1.5800110692013023,-0.12536425597358938,1.4557652359545155,-0.3316363202389899,0.7888122417283419,0.5711028045762061,0.32067192092468894,-0.5996105510014201,0.9120422490904927,-0.5155749219763471,1.1201733604189117,-1.8352983296020104,1.2760039797115494,-0.13626349934490942,-1.0980839464144327,0.9949293344472102,-1.0134562626465822,2.0234951902218836,1.2341245357467292,1.175187883656351,0.2429226577810099,0.5615246006007755,0.24243581507810708,0.6637938459974034,-0.30998802719937885,1.140665414825309,-0.05608087184004376,0
1.770819984394768,-0.9916744262486584,-0.17184193697520206,0.2531404841791606,0.5238398845277064,1.2401987636858007,-0.7374391328924635,0.9857469596287306,-1.0563632613531573,-0.3714373385658878,1.7774465448628165,0.19455746969455184,-1.7773020486119273,1.3753939040487373,1.5714090181449847,-0.1024225809900718,1.4801120112560464,-0.38013969991248986,0.7896279919862506,0.5467598290354467,0.33440839932533084,-0.6422264084253528,0.9120699240760781,-0.5182774357495133,1.0227805677621216,-1.8374423286816162,1.3011792736557595,-0.13972810319125836,-1.108137923224544,0.9945422122893429,-1.0145569414533224,2.039522251323694,1.250621366696437,1.1677994650825763,0.25594497084324386,0.25031897588312946,-0.10489659106891974,-0.42835087290190893,-0.5897686468259095,1.127006583144275,-0.05530504059220485,0
1.7987334534933352,-0.9897085190258105,-0.14602763110877312,0.2530794113829147,0.5284904077854421,1.229069693231481,-0.7592055234897136,0.9873037138548504,-1.0621525662439013,-0.37403521650121624,1.7786423601589978,0.19411279875937193,-1.778525572049266,1.3799224430929393,1.565889342481143,-0.10706416838939514,1.499461571619667,-0.37864675648120943,0.7890625587389328,0.5336966373646415,0.3301152894002493,-0.6452224477444082,0.911911873963084,-0.5226687145473492,1.0640390135165372,-1.8511172532989186,1.3333023370130082,-0.1410486901710818,-1.0223762828405167,0.9928358132667343,-1.0146516104267165,2.0422497619256634,1.2657552054150496,1.1853046175052881,0.24464411167596178,0.02766264724560968,-0.040672904001450856,-0.22433220502975978,0.07041005772841304,1.1261580108106994,-0.05109008022228669,0
1.7966485585791832,-0.9904294473387726,-0.14526534830741739,0.25304276770520356,0.5167999381040773,1.2317836517290721,-0.7541488117005882,0.9870998226506057,-1.039056212233568,-0.38305718395661115,1.774625943268143,0.194338210566765,-1.7746996965976618,1.3760576359414474,1.496710711011146,-0.1019165243608019,1.5090747951318653,-0.40408908002631627,0.7887971219089102,0.46903574779722323,0.3395172738041588,-0.6735373458572171,0.9120826805147471,-0.5232359894106383,1.0906718641482904,-1.8521303422078763,1.3369516401531325,-0.14661211478458164,-1.0188561818882467,0.9920579434573241,-1.0142657418504715,2.0430549648162923,1.2619983608959184,1.181249413852294,0.23672970379571856,0.006854181699216429,-0.24049216846957322,-0.027888791298386697,-0.2838498868895554,1.1276258866502804,-0.05072566033647841,0
1.80377338541391,-0.9897503053165614,-0.1539347390241868,0.2527984765203337,0.5065198340606616,1.1851853786029591,-0.7476276561507509,0.9841453236909847,-1.0979433985008078,-0.39911621442745476,1.7807850504724736,0.19455467302200458,-1.7811313472626655,1.3689855648888174,1.4865101396123264,-0.0923350619987728,1.5114391645622687,-0.41779082710441207,0.7890174392777726,0.46038175454924474,0.35351505686663814,-0.6760160985457475,0.9134017827573966,-0.5246084680906683,1.0033526365035168,-1.8559659473085655,1.3676163816036595,-0.16297568539245869,-1.0193521281939553,0.9905348332815727,-1.014720239631878,2.0071001109431568,1.251582283515466,1.1617472055875004,0.23491433317564958,-0.4270794477024887,-0.3155707011806113,-0.44366618178641937,-0.10112696286427234,1.1356088245901372,-0.05047205193609627,0
1.8080006103638164,-0.9784952138216867,-0.152537411603356,0.2523465378282597,0.4921868595951363,1.186360587191803,-0.7669032406934798,0.9800726289445626,-1.0703953662798658,-0.4202552478246618,1.7856085389631362,0.19401379655116102,-1.7860149912462382,1.3330574016894794,1.3956098917664372,-0.0963419612197545,1.5253124062702752,-0.506866779064608,0.7887935219519026,0.33135059854836385,0.35866163201806955,-0.8211327699840917,0.9149388255115354,-0.5263592660500285,1.0216055055733197,-1.8593441102132102,1.3833240778093712,-0.18375642144588586,-1.0200286363676345,0.9894141529036461,-1.0156168588794454,1.9477017161830474,1.2656228825493445,1.215036032880879,0.19840704179530427,-0.7635631838848319,-0.3486073604904004,-0.3744537693392502,-0.05231904563434538,1.1423594865721405,-0.0493913147558991,0
1.8332548333322116,-0.9795157636150369,-0.26962347674659454,0.2520656029656333,0.48711096911045393,1.185427634211742,-0.7928501801460959,0.9988767837813175,-1.397182361134439,-0.42268844631346963,2.0665452201284005,0.1930153844514185,-2.0666508379877895,1.3145796627742397,1.9405449297110393,-0.0969118042756217,1.5530618562727756,-0.3778444986231191,0.7914361303925721,0.93558918689587,0.37250297895629797,-0.540304508281343,0.9219795148132321,-0.548603786696389,0.6965360244852422,-1.8743460882908196,1.4589549108415942,-0.2241643169210822,-1.2534828128402242,0.9843642430482564,-1.0159878060825063,1.9475947038053625,1.2954687901886464,1.1740839434683645,0.3357689943300811,-0.005052280588362907,-0.08611035962813894,0.8371343255878386,0.3508327494714568,1.166943871055648,-0.04912250721565601,0
1.9556950255633343,-0.9852477176906014,-0.23814406277543032,0.25168695162902704,0.5973179143646082,1.1868974834102815,-0.8240916470412863,1.0678792095700367,-1.340758578358199,-0.43548809662781635,2.059176768264905,0.19171828772351743,-2.0589807099102924,1.426207299275499,1.7975614524616923,-0.12704149491693842,1.8390511767042537,-0.4291960005403088,0.7915861286012187,0.7506497767341552,0.3603815627027015,-0.5996783887383377,0.9217643850424676,-0.5513067085809676,0.66090530012382,-1.8890318550716758,1.6126194596090966,-0.24758924000744784,-1.2644481537217735,0.9806640239212088,-1.015504696423217,2.1566342484098735,1.3021484064431874,1.1391895334341917,0.29583025768165594,2.318062586888148,-0.2503573665096347,2.2128810648836397,-0.2005534836268091,1.1875671229913576,-0.04652381751121062,0
2.063879820612843,-0.9839619856674829,-0.25004985981442057,0.2520656029656333,0.7663229674195569,1.1892466217658797,-0.7752518217908725,1.1253508824746792,-1.282401567227788,-0.43558952962023845,2.0285329415001585,0.19222336678573854,-2.0284427107852405,1.6386185237092397,1.7463741699320718,-0.1309742854265208,2.01952939883405,-0.4646237593108755,0.7922557206046217,0.7443971366806152,0.363062210527124,-0.6859835641133452,0.9222236168345321,-0.5514222041106877,0.7575798130618704,-1.8792999444805234,1.6661545667537303,-0.28174716059769117,-1.2604475049806472,0.9806106485976734,-1.0197223022323263,2.2300930255745834,1.2299537131609932,1.1288000510595286,0.2836867089738553,1.0570783984154835,0.0038958127991978544,-1.5693449068784648,0.38067550327609134,1.2084094794606344,-0.057314158269761266,0
2.115588660591115,-0.9138596282594916,-0.19789151884911702,0.2515892351551155,0.7223889490296653,1.101854553349642,-0.7194903093637597,1.1307790049122122,-1.3338746371718952,-0.404113479854117,2.0124340818995528,0.19222224811671923,-2.012209720330142,1.6218411142813858,1.7151623435866457,-0.1720315702376421,2.0537178248073036,-0.45999189207169433,0.7904951016308005,0.6794903841845442,0.33885296195242265,-0.6861432216603726,0.9199886455376509,-0.48893544952943885,0.6653111286127259,-1.8661053160501524,1.6782589384400917,-0.28027118512382726,-1.2821635200125254,0.9758630646314413,-1.02167552265181,2.107798758344663,1.217013992499439,1.0725801661851604,0.24098692214020992,-1.951803711882128,0.8078480233479542,-4.123652936605022,1.3468507497963604,1.252951092828721,-0.06285605787022007,0
2.1006842465353985,-0.8269336969240009,-0.21563307790570213,0.25149151868111297,0.6977604242247737,1.100851707738239,-0.67408003616837,1.1221437635953335,-1.372744291285395,-0.34768610728148097,2.01065686477812,0.19252484808644646,-2.0103547067370293,1.624989586080139,1.600834750287878,-0.1711036233013344,1.9960607331327693,-0.6014326814746068,0.7902570244740352,0.5088025385377376,0.33949235669295535,-0.8171112820573326,0.9204621472441582,-0.48026430634936285,0.6639497032752499,-1.8359997731806814,1.6391801093879306,-0.24119678979970421,-1.3815599197216384,0.9728629686161248,1.0169957945757477,1.8433163618673964,1.1788022951912973,0.9862779668389585,0.18904197462907887,-3.063772093604815,0.8353331124261482,-1.110171010202373,0.026013022256621186,-1.1471973641705873,-0.06633266883170058,0
2.0832038672758326,-0.7383879728343842,-0.145786480365412,0.2517113807475163,0.6953816946483846,1.1057110270713248,-0.6287949291063045,1.1212384353551024,-1.248955867413855,-0.31240214364690155,1.9561961278097926,0.19329672970977657,-1.955716484876694,1.6113807615386966,1.4946641343810807,-0.1224618412264274,2.010642989011248,-0.5735601906407765,0.7924637981196571,0.39304373801064163,0.3683309878587182,-0.8277768552654788,0.9249524136554607,-0.4400004425096153,0.8621295028690908,-1.8125391368752846,1.635995590131717,-0.19280209790644287,-1.045671273196664,0.9712874901984141,1.0114535875641144,1.6235977649873288,1.130479814356174,0.9320184466429536,0.12704992524760958,-2.8595154911930076,0.7744258317728249,0.2236417020675928,-0.09134644318589207,1.226918971324971,-0.059318493497950354,0
2.072134683465089,-0.6688365286387988,-0.1694775707148321,0.25212667576185643,0.6924326402984358,1.1044893271833782,-0.5687652515304731,1.0967855965265374,-1.2514771482262301,-0.27038024488040846,1.9288733086785788,0.19461228447649853,-1.9285119610332804,1.5987744970589703,1.4867755930785522,-0.06464275394058708,1.9907698261326132,-0.569356561200249,0.7955880808079346,0.4092598724843567,0.4089476124845349,-0.8160279325079783,0.9312612293149066,-0.3753551866679804,0.8607253215277486,-1.7823200488079574,1.6273945894412842,-0.1329473969679343,-1.057090699230702,0.9707787125861486,1.0075150048436061,1.4459637431753485,1.1022640782053628,0.8829464654566384,0.1278361827761409,-2.211421192688678,0.7669518557063106,0.6877158487937486,-0.017444092888453444,1.2257939442245867,-0.05398509924864418,0
2.0647772443878742,-0.5882499449622929,-0.20194308059556929,0.25217553399885767,0.6664365242136121,1.0525831528472651,-0.5262713492431215,1.0875309875892174,-1.400963260063357,-0.23861540941821469,1.9559217523285002,0.19555811913233404,-1.9556467597154148,1.6449386747155825,1.480142901851263,-0.022839882557994372,2.040236172515625,-0.6162724300794835,0.7980821310227592,0.41120980521962863,0.43593046054197415,-0.8135208026252723,0.936535043755608,-0.30971005786587175,0.8287767480621702,-1.7735395744991822,1.6256174157948475,-0.0722412876050155,-1.078897394417373,0.9675228178504928,1.0040189763711267,1.2813056246721626,1.0190442386451395,0.776504970164767,0.11985019464489942,-2.1774839051579593,0.5784951133640324,0.033989261265976754,-0.27075414076843507,1.2361036951173006,-0.053833283950620925,0
2.059609519321735,-0.4795713793531733,-0.21871559480524383,0.2524198251837275,0.6105601427007002,1.0361381679725221,-0.47984723036723875,1.0851496922037938,-1.4346576121737376,-0.19109544468600273,1.9820736501914196,0.19628637266391064,-1.9817259518860841,1.7070432479213629,1.468189873611737,0.024842721052229524,2.0607768173539096,-0.7119204498486091,0.8009157771819613,0.39356410191399477,0.4630753781575017,-0.8728349189915037,0.9418471275123144,-0.24471341809812752,0.832612425503852,-1.7560019630435737,1.6481849223129867,0.00883233633133361,-1.092858488236624,0.9657900332905889,0.9996775803688688,1.056060229993368,0.8972404375787851,0.6725156620391611,0.09314145893239172,-3.5879356699587044,1.2623820777756771,-1.933332016644887,1.1433272088815876,1.237422653043079,-0.05311311595274477,0
2.0558331600764044,-0.36564553472220424,-0.1501468239609096,0.25271297460559855,0.5120270326553485,1.0328878425775965,-0.4271522882082837,1.0755180768888137,-1.3996975082089504,-0.12905862874420404,1.9483426031854822,0.19721263061190908,-1.9479054651296346,1.6950249044654822,1.4522434442885277,0.07381984504621862,2.078196613207521,-0.6644969476583735,0.803498146342037,0.39810291401189274,0.4936735907152897,-0.8371946918448799,0.9464251755185211,-0.15744532233080188,0.8430977579978386,-1.7349107251148035,1.646731598082436,0.053526974222456086,-0.8092427876468768,0.9606527087543911,0.996167824611179,0.8139460305102411,0.8019230560856406,0.6118965601242802,0.043611436132581165,-2.9157555957479078,1.1439063494993822,0.6902825939610944,-0.15832904662871683,1.2407564887442424,-0.05168631693546024,0
2.0488275111190015,-0.24892345253595657,-0.11251641824226644,0.2530183385867143,0.48098473050113216,1.0343276049844086,-0.379401408318376,1.0575051225112977,-1.282186100025932,-0.10113154038353357,1.922885573405363,0.19786145864311497,-1.9222756128872105,1.694454002208116,1.3020388705318855,0.10608571929362184,2.1937303239566526,-0.7709768943834467,0.8053506842181178,0.24028436985747198,0.5032738286561654,-0.9158633445112262,0.9471066720385727,-0.09862626501313579,0.9532485209106909,-1.7248870033651607,1.6486087252522945,0.12053083720395259,-0.7061634048961307,0.9579497018040358,0.9915486551337949,0.612591801664102,0.6796532322901951,0.4227047427268878,-0.031012151560286774,-2.35633068510654,0.684908687707388,0.5572170039500665,-0.5748190915089226,1.241042792378201,-0.05242830227698273,0
2.0396278405164026,-0.1371392701034951,-0.03312824663711475,0.2531282696199159,0.463394963943258,1.1647429988162274,-0.33887261432535976,1.043009611990657,-1.125210694258017,-0.0971326938234575,1.890654481775464,0.19818139798264062,-1.8896116269324474,1.6872132906512778,1.2113812093742338,0.10560639473524958,2.209677209619304,-0.8317754477092312,0.8054342032206918,0.14488806860431136,0.4764703837993908,-0.9698877894547707,0.9411682255221614,-0.08046408282539533,1.109424906078231,-1.72905672125018,1.6490185346983233,0.19808820460895313,-0.601394975941399,0.9540746533153697,0.9881621997420613,0.4885324827168782,0.6111027230204431,0.3336210039839146,-0.10624522922234352,-1.7047958452119392,0.2783683941509081,0.7632590126998131,-0.597192374432443,1.1983711332062381,-0.05238893437731004,0
2.025205881482143,-0.028565859006266688,0.07492863603856448,0.25334813168631926,0.4448071290316542,1.1928888672109297,-0.2904082874751284,1.0361029577386955,-0.9703990824777922,-0.034171047656633737,1.85359034090506,0.19891692286284388,-1.851867072959799,1.6911399842263324,1.1537464896592964,0.09871825468464855,2.210512303715488,-0.8970307070407677,0.8063682720655826,0.06106768983059487,0.46195865823452453,-1.0188593262320824,0.940636563103759,0.05768040595072275,1.1204232760526924,-1.7020394869696351,1.6770135175382581,0.3163939447711058,-0.44525515569732776,0.945726349881812,0.9858577394229463,0.40533623169733857,0.5409054197753977,0.2376112673366536,-0.1808854205155098,-1.124031143056883,1.3350312068784453,0.6675993372068577,1.4973135942888902,1.1946732820718715,-0.0516043834238131,0
2.0205191755594205,0.07529626260624975,0.13846010744247492,0.2530916259421593,0.4199148290189912,1.1839602047670024,-0.24881558134823825,1.0230500736631822,-1.0092937433687337,0.0367314095992976,1.8349562590729682,0.19922287883962697,-1.832785260152886,1.6889492048322121,1.1274314678294317,0.057663881287189356,2.2874700070766023,-0.9350705237636026,0.8054490830429901,0.07908208146237188,0.41907544317132633,-1.007666290732874,0.934476716702661,0.1528360709862429,1.0695522037993088,-1.6821765664961417,1.703517193808742,0.3849349055703824,-0.5001596511309445,0.9369411744605255,0.9843103001387066,0.3203834116489709,0.4818234766700313,0.09880179117584194,-0.22079104121644585,-1.058109241368507,1.1047852629019692,0.06580260207134218,-0.30986698682639635,1.220509527062003,-0.052597891187035055,0
2.0020753221349814,0.17611510243904618,0.2417578092712324,0.2528839784350006,0.3830005580503318,1.3394791358955431,-0.2113158077833382,1.0166691766045561,-0.8194632066503679,0.11380775499398757,1.8353987594382608,0.19952380080582421,-1.8331982060693026,1.6911461728686887,1.107018063136349,-0.014576231889027418,2.424118397149317,-1.085020694702997,0.8058472382880241,0.005311747647994667,0.3765499511567962,-1.0829745389960306,0.9314080364650068,0.15553450364528476,1.0944999131974729,-1.6807232362806874,1.698937323365562,0.40199234391342087,-0.3339296960779322,0.9178755088937018,0.9821608218522592,0.1961557439612428,0.34744223528668905,-0.18542649007528955,-0.2953427905617903,-1.8395556726144107,1.6010313571618264,-0.9969792934819981,0.7680038997205092,1.2567343140410214,-0.05372155630576213,0
1.9514031861016257,0.2700343828027827,0.2505286466465278,0.2528595493165341,0.34625025545407084,1.4568527100597393,-0.177971549847102,0.9967096382770815,-0.7879131463867776,0.17700528259024784,1.848975384995842,0.1998269601100611,-1.8464728318003447,1.757869020432837,1.123810563245172,-0.09553444093947078,2.476770857419723,-1.2388502718260894,0.8058426783424812,0.013329976273735165,0.3158384346922917,-1.1747758131607822,0.9256196402610691,0.19167685033081822,1.1924508030551892,-1.6764494433504842,1.6945293729826674,0.46543260206898585,-0.35700089465583684,0.9056318139236404,0.9795815449015419,0.06774741588432413,0.15414296312137782,-0.42550588603511263,-0.33671342482195776,-1.833690034688267,1.263497365932345,0.002669347865890628,-0.5163725874345937,1.2116862774821386,-0.05504822805836908,0
1.8784361717404172,0.3531323914319457,0.2013561760113081,0.2531282696199159,0.2815742379557756,1.495759753477645,-0.1495338043399648,0.9617801256203463,-0.7619432148252686,0.20754735327320417,1.8570372618100879,0.20022800295348855,-1.854212504870748,1.819583709170172,1.1571372351520521,-0.12978060582505255,2.560011790961006,-1.3932096555608742,0.8070760236132646,0.03831126204082557,0.28602110273256537,-1.2263617781004594,0.9222592916206394,0.21788617334901655,1.1398851063077047,-1.6832339380322634,1.6907901116714636,0.5077516468891679,-0.33422831324176494,0.9027511577832539,0.9800328927783699,-0.010658726204819354,0.01818284854376094,-0.7155791381955902,-0.36021741790317713,-1.1349320933583114,0.8651695665023128,0.8619051096171372,-0.6154472637981088,1.1231140518815597,-0.05684013870985559,0
1.7828770522970658,0.4189556719504961,0.15623791791799665,0.25349470639723204,0.23522228016131272,1.440182261066274,-0.12032002880578357,0.8930431430975306,-0.845504226660956,0.23407705299709486,1.8887030064588095,0.20092549308703384,-1.8858844837505617,1.9041793558592346,1.1747570818007436,-0.10884092474519474,2.525867863785062,-1.4142716641401352,0.8092196780126881,0.040644626392611904,0.2968063118140624,-1.1905282850632015,0.9259902256149292,0.2361614023980024,1.1155578266220967,-1.6597713932012008,1.6756151677455893,0.5614812002648057,-0.4072713490218327,0.9052046099190425,0.9792109764021226,-0.1307964330185922,-0.14520018678734153,-0.8029301105531178,-0.3702890978621111,-1.4017348500389846,0.5104914123420681,-0.2713398135229373,-0.4441446851397114,1.0637896442542494,-0.05777750803084341,0
1.711167867098941,0.48741975420653005,0.20783106630624285,0.253775641259904,0.17512668350066976,1.4516539757755154,-0.09243301428555749,0.8138628274466099,-0.7497333018698773,0.2914555090398534,1.8751088829251066,0.20158327047039534,-1.872140879738355,1.9067894157729923,1.1844552468889515,-0.10608037524556867,2.487527700022788,-1.417285821470949,0.81081517895843,0.04976648045952452,0.29658985795239107,-1.3183826172221649,0.9292820354238699,0.27786875630354413,1.1163257267288114,-1.626320784644332,1.6611408980189006,0.6086642062557845,-0.26947812019633977,0.9033509755700017,0.9760429228106614,-0.37398401885105853,-0.35280906419001073,-0.8837192654383479,-0.4253158309193385,-3.5403648533482426,1.166737056992902,-2.6774006724431314,1.001747785819718,1.0703450671584644,-0.05737592762230637,0
1.6048281753308962,0.5670529446283923,0.17655977559992242,0.2539588596485734,0.09455642746922925,1.4297210782452103,-0.07246901600916048,0.7339131110249546,-0.7354542746753474,0.3384189845312868,1.7929665281192588,0.20212414694123473,-1.7897803301237072,1.7161127032944796,1.1789586037043898,-0.12306609189830146,2.4666043655276373,-1.3528224097210513,0.8121596429021791,0.01820438384456655,0.28238927127176916,-1.219356910714,0.9263500004275458,0.35201198904685493,1.06219033077149,-1.6549460605120487,1.66017834558835,0.6745730323152892,-0.22203751400685598,0.9007887586239908,0.9757654641593537,-0.5432430170801978,-0.29573404975243256,-0.9444359473659959,-0.43450282840081433,-2.4247295898193464,0.9270644533369896,1.3668864924831499,-0.370195559806926,1.0197990650214952,-0.056312536178467855,0
1.5272606077293684,0.6137091750123056,0.19289662799427323,0.254203150833466,0.08206987945810393,1.4134003192603766,-0.04897533277104723,0.6850035863639707,-0.6826122802604712,0.36870886495073096,1.7722099598224113,0.20272710954264953,-1.769131592955948,1.6357067674806134,1.0929031301690715,-0.14391446045875647,2.465242702329952,-1.3617560345292055,0.813223070202207,-0.12792920112175765,0.254406055367146,-1.1796897733989695,0.9193023923794518,0.346262923579837,1.0617066031538518,-1.6464156272240844,1.641158189616445,0.6670093574751794,-0.1267524042340251,0.901364205036596,0.9734252318970877,-0.6830886192794385,-0.32830147757342365,-1.0484419592134353,-0.441183338792466,-1.69451721807005,0.5246628404353957,0.7542258314789987,-0.5221867511022174,1.0284976059561861,-0.05550379214085103,0
1.4668891155354764,0.6492447417762606,0.18933589326587352,0.254203150833466,0.0902789916675306,1.415945722334299,-0.03749759833884641,0.6318251697600276,-0.7150487442829376,0.3907114710010689,1.7757400412119075,0.2029094525927998,-1.7726782074256817,1.6636283746315244,0.9836811250109861,-0.17648735651052846,2.45250417995335,-1.5379100672028918,0.8133653885025718,-0.27238311165402185,0.21250392447376554,-1.238992806416634,0.9082215876038726,0.3838303953176049,1.058537307250783,-1.6689845955065716,1.642819417175713,0.6858445090602879,-0.18352742024430138,0.8971834065814146,0.9731368136515571,-0.7345439550544375,-0.4433683964657293,-1.2376284923422558,-0.4689018751677661,-0.9206750857450057,0.41562427379153616,1.1806592800607822,-0.21313688375680526,1.0818026718383664,-0.055430969888965044,0
1.3939867156860701,0.681619014928374,0.19891816062313852,0.25427643818888823,0.060622103442419924,1.4118137792140903,-0.023791906732159016,0.5552120880141237,-0.6991716424620885,0.39292151690654814,1.7691142611804187,0.20316730580175216,-1.7655792130981993,1.6692399260880741,0.9961657229881249,-0.16237891057787573,2.420881851291638,-1.5144425985870662,0.8148024913399824,-0.15202896540479405,0.2089498777340304,-1.2401194383530645,0.9099932191030159,0.3731288978606485,0.9882810678758168,-1.685493535786708,1.616421691640056,0.6664416083792254,-0.12699929378754543,0.8939111971242254,0.97610789587059,-0.7429568244781645,-0.39806357732130204,-1.2360656493903002,-0.4754809945289957,-0.10062360288176334,0.1868377940438072,0.8076554491518372,-0.28647216018488914,1.0594691900131845,-0.05604382062457424,0
1.3136751851500073,0.7066014769225767,0.21933236628729566,0.25430086730740026,-0.02352575236649689,1.4176775009854727,-0.011150127259322263,0.4554746661037922,-0.7093453117222766,0.41552038984175166,1.7690141438943454,0.2032075778864477,-1.7651725730749221,1.6723404359085665,1.1251225860576453,-0.13640910071178652,2.3837401884702456,-1.636502874318017,0.8161848748308771,-0.08139958884072247,0.21435082409026876,-1.3494528501206065,0.9128480668348558,0.3733317292326303,0.9476558371560181,-1.6829230174585592,1.5865855648986944,0.6551731447075184,-0.10652126247898945,0.8911477652793017,0.9798383559502022,-0.8162459478733743,-0.5002702200004211,-1.3848127345485641,-0.5024235266241667,-1.0780140102573206,0.5932130362206715,-1.2358046309679858,0.6224050148152678,1.0811586050048914,-0.057008264814605136,0
1.2053640328329742,0.7274964590582838,0.2202734703172399,0.25436194010364616,-0.12778468550306687,1.4117146582698512,-0.002638830188540487,0.39439450358440414,-0.7149664892854405,0.45332108501772184,1.7665467488692763,0.20336922555973846,-1.7624415808406215,1.635468504749897,1.194874046886411,-0.11549350496313351,2.3600015633986176,-1.572796922908902,0.8175612583934272,-0.016552870174512038,0.22150745176895265,-1.2857825716966471,0.9158838830271266,0.39651694668466103,0.9010332818779826,-1.70449109690122,1.581882751621706,0.6676261766218832,-0.09851528841013701,0.885607406696333,0.9830403010992431,-0.890792466706382,-0.5566040524457969,-1.3710767079355024,-0.49788865020775147,-0.7780617369722409,0.4598338056242569,0.2632626977211171,-0.1541570195532891,1.0874086037381636,-0.057541649343733986,0
1.089955335363975,0.715535248128212,0.20134671911941157,0.25458180217004944,-0.16653944204306828,1.3898755084069663,0.010378447684455531,0.36173857020518985,-0.7074598950683711,0.44638028390096396,1.755434090898143,0.20353702591263861,-1.7511524106064769,1.6380538100942297,1.1883599977826038,-0.0922405733917386,2.3588000958712483,-1.5655198455941408,0.8187007647848807,-0.03498548334540839,0.225608808273034,-1.28925982899033,0.9187737569125981,0.3858925822846555,0.9032156843016722,-1.703251086706419,1.5784873304310727,0.6681013813238795,-0.0718876597865025,0.8887966326316488,0.986225549637993,-0.8624681173737794,-0.6329966302950967,-1.391429876431563,-0.49863705199578673,0.47186066311728725,0.10372042675924383,1.7988802139576512,-0.6399358090200169,1.0551678669823386,-0.058719960346603386,0
0.9506033715771463,0.7227663427832328,0.1665665633038821,0.2547894496772081,-0.2649525462506501,1.3417968863969398,0.024609837051375216,0.27627353259198495,-0.7173545578934563,0.4402477645120559,1.752159624273269,0.20346822776794937,-1.7478243403761007,1.6615567266027624,1.076739300753671,-0.06899505269148365,2.3578952869926124,-1.5728925170858779,0.8192433983044836,-0.15971170462443915,0.22989303470629519,-1.3637266743369632,0.9225388522172204,0.3740438836473351,0.8821593527759934,-1.668397011186942,1.5665608760164018,0.6711587898368149,-0.09849196250868439,0.8918341920815973,0.9913940367642504,-0.8859886549715262,-0.7636125868223116,-1.409635285213954,-0.5138662389233213,-0.2695386092417002,0.08145388969173377,-0.7247255653291577,-0.03423918124684646,1.0508214870308124,-0.06048234802139246,0
0.823846929957634,0.7152737394185099,0.18207070770949604,0.255033740862078,-0.3708618567007088,1.3431645632705287,0.03901645900502346,0.2175342719175559,-0.6401307981976117,0.46091185283886293,1.7254550068346213,0.20359631537066053,-1.7208502518848237,1.6550756708951564,1.0312599305530807,-0.04365410817641184,2.352258772666682,-1.5381790483571396,0.8197634720935066,-0.18736629895657472,0.23103835513952325,-1.3207580487377948,0.9249357654219438,0.373079108268331,0.8997432331221931,-1.6253679230073435,1.5554340497891042,0.6730406693269675,0.056633608758763235,0.894860875050524,0.994178686788738,-0.9802580770234623,-0.8510900939947261,-1.4529317183607158,-0.5152691755073068,-1.2067305675420634,0.45594872727585195,-1.032373927129235,0.4978428692677853,1.0493351985507595,-0.0612596484698456,0
0.6802591259526584,0.7249433626123771,0.15029805844641958,0.25526581748770316,-0.42215068831629887,1.2469997219352387,0.053573280318791355,0.1276259448533596,-0.663089379019021,0.4570208036942629,1.7034272195918987,0.20374789502277948,-1.698774401015525,1.654022054534001,1.0454013757267238,-0.037369160101807734,2.3454534232647433,-1.4985088764748815,0.8194711555844943,-0.14945843560500535,0.21161340858640887,-1.293190595887225,0.9253688357041976,0.3617364677824341,0.8960166045349108,-1.5381038000127025,1.5450538763817663,0.684631962279922,0.04451166816702999,0.8976952054384085,0.9963546050477248,-1.0531491665748443,-0.8431223630365774,-1.4676481139687432,-0.5027173490218922,-0.9430301281054794,0.11279844282972787,0.2875351590139313,-0.4753210660632583,1.0368009864861356,-0.061910048582430925,0
0.5447524435570829,0.7205089647026435,0.1488813157399531,0.25547346499486184,-0.4920647824067576,1.2592989746515761,0.06502598152433665,0.03354810677908805,-0.6748170858131801,0.48092159892043723,1.689351811519015,0.20356890797968716,-1.6843095829965948,1.6273381758543444,1.0232943381508064,-0.012094384079056783,2.3315104667742843,-1.4504518251510623,0.8195709943921697,-0.1341182010729716,0.21576893272354114,-1.2925377532155007,0.928482487793429,0.3327303572547963,0.8456329116864462,-1.5109391502433664,1.5282806756163796,0.683920876983094,0.18118046307309443,0.8984418557189576,1.0002241342306588,-1.1069320215644878,-0.8622012330032387,-1.459177749414438,-0.4947105285384951,-0.8073623419774346,0.5179356193555918,0.16971058520377777,0.6326670318177147,1.0262709057555137,-0.06288255295724622,0
0.4181797943266969,0.7208593266789433,0.18129474107213905,0.25562003970582015,-0.5894495197570155,1.2672255988100456,0.07526457123600491,-0.032117043166568375,-0.6350276855708817,0.4831499425421965,1.6630952865823614,0.20308340562530416,-1.6579900462131425,1.5997337366241924,0.9882473554534371,-0.006587048126207371,2.3154553007048455,-1.4257006184900345,0.8189959612594995,-0.16526271254983368,0.2055550838354649,-1.2946286125907183,0.9303442792065508,0.3126684164421557,0.8606269916653293,-1.479226797872913,1.4905172349324474,0.6785963460377173,0.2628131907737769,0.8948876634204489,1.0043516034414366,-1.1502041730190786,-0.8535224978355466,-1.4368638197115464,-0.5040207487319819,-0.5550745879021524,0.05304613567198906,0.27176332346679116,-0.6341441122800414,1.0248974017402406,-0.06381292626256636,0
0.3325985913836514,0.7297944754546033,0.15041483673271758,0.25580325809448956,-0.5761068904972435,1.2193941075010166,0.08709277084177942,-0.12377383348226036,-0.6443497089200843,0.4819804798060358,1.6562800954691115,0.20321037455899704,-1.6515284875978224,1.6272886667154942,0.9403914973548302,-0.0026891945805704383,2.3074158513241767,-1.4066807493386981,0.8180714922999631,-0.1889145565793317,0.19471592379144914,-1.286832480108084,0.930870320143507,0.30942882805022065,0.8547356685694065,-1.3768770115739872,1.4634528193955683,0.675710252263364,0.17471559538336517,0.8993280875059592,1.0070297173328657,-1.1399381624208056,-0.8898909212492148,-1.4453786572779515,-0.49504529486871324,0.13215539001484897,0.05193436958991675,0.7768825678741086,-0.009175459798891273,1.0634062462092768,-0.06474849073295295,0
0.2549778962946417,0.742669244906101,0.08280422098098938,0.25596204736469247,-0.6516856165834252,1.2050306980399232,0.09759420943350554,-0.2055399768901584,-0.7712314239785599,0.485516314588938,1.6968548354463162,0.20329651207348262,-1.6922627555918448,1.607884178607403,0.9641818943336168,-0.0028871707095944367,2.250269012525463,-1.4203098597421224,0.8173896604427344,-0.17425431654065257,0.18524135475925146,-1.3006175859803077,0.932461631814693,0.2783780793462671,0.863446960362378,-1.278509376156643,1.3816498562920585,0.6703276120473628,0.12362445710072445,0.9032722217907476,1.0097916111144352,-1.21247167402724,-1.0019896914281035,-1.442715985821694,-0.4786124442139491,-1.023528532812375,0.08324019259513374,-1.4009753651315289,0.03893378431359524,1.0545092281788804,-0.06564285834491407,0
0.1282860691869316,0.7417010427736924,0.10114005972152622,0.25610862207560525,-0.7520283196082177,1.2167527772020221,0.10554225890403676,-0.286463626454102,-0.7439093964065726,0.5030900777466184,1.7019555856823727,0.20291224926534707,-1.6971476607540454,1.5820202950399525,0.9583516944527292,-0.0038924024449328676,2.235265501365783,-1.4491222897314917,0.8166310295026787,-0.20902790485266112,0.17371404910495716,-1.3408521596894756,0.9331967486193165,0.27454713751770904,0.8654535483414101,-1.2511630540707368,1.3327765814798103,0.6670631623553873,0.16487503061050787,0.9025642434427226,1.01300315379974,-1.3003001254686408,-1.1333006735419542,-1.5526385826995799,-0.5011016074467805,-1.1015082503322364,0.34833101022885826,-0.08828170514611047,0.3428288649398545,1.0441280188392503,-0.06660259955619406,0
0.026952566205520247,0.7366699274482289,0.10467299691919982,0.2562185531088069,-0.814256693286651,1.209798102313246,0.11237632978738299,-0.38148141580328654,-0.7093412225637006,0.49735414146925866,1.687737848710911,0.201871887077379,-1.6829356189658007,1.5350191035046543,0.8643894524730071,-0.01150918993297114,2.1774007486371354,-1.4536556024325964,0.8149875291301691,-0.27930206357891585,0.15377624340211696,-1.359323372218035,0.9307488096599192,0.2505432485723271,0.870190607763061,-1.1946223772488795,1.2697149040178595,0.6324197065261477,0.13173531217879886,0.9044029729844366,1.0179790350272933,-1.303282769239359,-1.1374754484483662,-1.5349459751175207,-0.5098624335545288,-0.04098533583156164,-0.1847927248913102,1.1357035261146022,-0.7130174907816914,1.0538343358891828,-0.06853245484464393,0
-0.04936291574508555,0.7350124811134272,0.10137125207114812,0.25620633854956226,-0.871306399203501,1.2115141303243386,0.11625647992260295,-0.4613253396189659,-0.7330662060673329,0.4851062070784,1.68804126722474,0.2006609278639635,-1.6832631650722765,1.5410220865902384,0.7919790658977965,-0.02163191056218484,2.1366413335944423,-1.5646073485938978,0.8125333184395622,-0.38104105563040797,0.13502882560320312,-1.4577595234079832,0.9274615402783015,0.23784037274877345,0.7917906163907805,-1.1450471909858944,1.2537363337636749,0.614724357523364,-0.19890842841189807,0.9067458475631645,-1.0216721101637753,-1.29349505176818,-1.2066159179982616,-1.6433712737896038,-0.5409401154392115,0.11244824005305079,-0.17823920839111118,0.15191902362562182,0.0006030740056263101,1.0394459117244452,-0.06724376943429754,0
-0.0897534470726638,0.7315449077660777,0.10679793187109851,0.25623076766805153,-0.9288812791826707,1.183426070804241,0.12057471152467929,-0.4985418960667098,-0.7583570227546703,0.48359226994444504,1.6878343581668542,0.200039507223732,-1.683051467231182,1.5246283729884733,0.8218821834565443,-0.016169039836175042,2.14524295111446,-1.5438189479584188,0.8123806802624425,-0.31315753734803325,0.1234924197865563,-1.4078609744010806,0.9262847047584288,0.22507219909922965,0.738645914130225,-1.1112262801326982,1.2514803827400485,0.6149765948017788,-0.1734035797929185,0.9093900409494741,-1.0186229873770154,-1.296672797373821,-1.135775356994643,-1.6342121762316464,-0.5281633605011693,-0.04538667678959099,-0.0645048930963873,-0.18257872996280747,0.15028776390730808,1.0253456254669158,-0.0660423054745112,0
-0.13222528361929553,0.7294344704881306,0.1103575919526914,0.25632848414200854,-0.9698668373109192,1.2052118148325797,0.1271334169145583,-0.5327199606373608,-0.7565195750763613,0.4666386402580826,1.7003455914874097,0.19975089061674625,-1.6955378563198533,1.5281373332044796,0.78632069825441,-0.021790185595816323,2.152554103512489,-1.5913072178502372,0.8119114858657935,-0.37617905787953054,0.10616506065570466,-1.5169453347868922,0.9268317181453993,0.20894486041390642,0.7977813266594702,-1.0221774682132845,1.235750696759184,0.6077663104148746,-0.23929771154578383,0.9143148712731062,-1.016957033863004,-1.3256235606245819,-1.2497039334052058,-1.7042790554705949,-0.5515346077391696,-0.4098017560648422,-0.19906230036504138,-0.44384511714113095,-0.2072566288379302,1.0045794128471563,-0.06551702205468085,0
-0.18108462362708858,0.7220612565255549,0.10648062449072199,0.25643841517518745,-0.9994714457651213,1.2391818977362061,0.13284099259733345,-0.5745426630325707,-0.7733268031977767,0.4607332512169119,1.7390603146417254,0.19963454903873798,-1.7342120791095614,1.5302894335838733,0.8076256587371505,-0.029231758916188975,2.1575809843152727,-1.635807209064566,0.8114713311223383,-0.35015396836745516,0.0813799018064062,-1.5312653182239298,0.9268399341567447,0.1974483619255203,0.8108969179079207,-0.9483315368960274,1.2334847503832151,0.6042909455924841,-0.28312497020873106,0.9190108926626408,-1.0149167253083844,-1.3362902151246754,-1.2861573896890919,-1.772298219164273,-0.5506566890916811,-0.14455453508626864,-0.08155151648822312,0.29655904692349616,0.15652906754172596,1.0079404434955055,-0.06483258202577966,0
-0.2157474374529097,0.7172592770142113,0.1154085035859959,0.256511702530678,-1.016985169019853,1.2507551976242557,0.1378851877730961,-0.6062836506619186,-0.7691533450456237,0.46033070145875044,1.7405377210794575,0.19961553166540952,-1.7357609866328676,1.5200131929512835,0.7869236023972722,-0.046189949476116286,2.1482510698126145,-1.6170440875222698,0.8105965415695054,-0.3732938277737395,0.055004381250733515,-1.4993180019091334,0.9242730792436588,0.19494949574716072,0.8175493181547149,-0.8945547917755182,1.233811598404804,0.5955530330467164,-0.24993341010362113,0.9215751237718043,-1.0138982955831524,-1.3555269950425326,-1.2688721954993598,-1.7679383805825117,-0.5504733574669365,-0.26329698146851793,-0.019771021097459717,-0.14223913311859818,0.08056521161366087,1.0079965999794163,-0.0642290960694052,0
-0.2568860612393566,0.7168776901173505,0.11853737358445475,0.2565849898861685,-1.0191512149827697,1.3286133204207549,0.14219090276187965,-0.6348983064928504,-0.7646577870179952,0.4566353583230589,1.7526905164767166,0.19945276532309839,-1.7479046954715307,1.5152866173516806,0.7664487225256815,-0.0471827415348984,2.1429898286773317,-1.6561167761933862,0.8102852652869206,-0.3977459460899883,0.043033984358082936,-1.523769296067575,0.9237066068824482,0.18549028942966644,0.8789215553620707,-0.8405816859383756,1.2231415597795432,0.5904011081570467,-0.28479086160589545,0.9245305053651407,-1.0128810324236592,-1.3549253766753064,-1.2793205104192127,-1.8025898802590907,-0.5570694328423078,0.0036240619559452817,-0.04625653617767308,0.27361946269255727,-0.04158371088667257,1.0135360052655513,-0.06379147173564172,0
-0.29358925776008704,0.7031954350363332,0.10133650515774047,0.2566704918008354,-1.0055454046035333,1.3217989378754236,0.14644655129728218,-0.6519648979223628,-0.7632662148997309,0.42516965074440016,1.7731582779717583,0.19914513134278525,-1.7685482077564036,1.5157848030613605,0.7691252954594889,-0.06632078690584396,2.1424083777258147,-1.6530409806155646,0.809484874845577,-0.38189022672911305,0.01623942299312856,-1.5493556511206923,0.9241085428059175,0.16668369932168595,0.8958901095514361,-0.757579179963359,1.1895361856699516,0.5827732978997291,-0.4202980380259125,0.9280091665454375,-1.0118879790653659,-1.3289422493618104,-1.190636937399748,-1.731292974550187,-0.549586436587006,0.3486569241425244,-0.5993499260545107,0.39755773517869963,-0.8008155350368388,1.0321576635763992,-0.0634366234441476,0
-0.3047216202045928,0.6969729512344485,0.10382044378610474,0.25674377915634866,-1.016361376298772,1.3161664805149598,0.150689683219322,-0.6518866755106714,-0.7616840250817227,0.4241016210006615,1.7721405090924327,0.19926426959334392,-1.7675621462378424,1.5167069107724451,0.7638603855286825,-0.07817368127226339,2.144161630339828,-1.668171601852922,0.8090598399215537,-0.40024000170014823,-0.007469966663779196,-1.553519932706357,0.9234356947188619,0.16762398801594372,0.9164095836144597,-0.698722664276289,1.2029239605970468,0.5848549011052134,-0.36580781972714665,0.930691830447956,-1.0110948033198937,-1.3151095945170388,-1.2016052942387336,-1.7781668102440924,-0.5528163537604727,0.16655528560483232,-0.011122109203398844,-0.19709968395183358,0.7579633553232648,1.0268382952586153,-0.06299758112573718,0
-0.3045162896448657,0.6929777685676122,0.0900800813623108,0.2568292810710383,-1.0352213036544282,1.3021886481464207,0.15461989980792296,-0.6492412191939609,-0.7881520476127776,0.4197706311124582,1.7760784556779856,0.19934705110077364,-1.7714499996105855,1.5173381522927847,0.7745979119570329,-0.07634293142672996,2.1620946456557477,-1.654673531539512,0.8093468764936208,-0.3833541612162881,-0.020251144687935537,-1.549924780472436,0.9253530523139806,0.1705068870334077,0.913857569892371,-0.6466885238816873,1.2102235664125296,0.5851820347768777,-0.3687411801558274,0.9342850975116174,-1.01041641385791,-1.3114698686467532,-1.2165748546029678,-1.782040198312131,-0.5473262762603442,0.039606440150377724,-0.0500580935316673,-0.13423439620223465,-0.05658261665752173,1.0125471618113313,-0.06281166626664984,0
-0.31445902713319024,0.6853242191049957,0.0938942178076646,0.2569147829857507,-1.0272426977076499,1.2966997569139544,0.15841243364974367,-0.6536736088007026,-0.7836377738209,0.41588355973226687,1.7729106004334174,0.19947681670701378,-1.768219940976426,1.5217893333075336,0.7675080508712415,-0.06089364716568743,2.1622859904841807,-1.6492656771963732,0.8098494304918739,-0.39163405672942614,-0.014033350425289713,-1.552185688033963,0.9282587095896689,0.17136106421964098,0.9031351660520485,-0.5906454166119677,1.2074208696157867,0.5872386725179455,-0.35402624338937655,0.9370769290569889,-1.0102976976411906,-1.3028716851055717,-1.2280359738326228,-1.7752265076819165,-0.5492363431563722,0.10422762544337309,-0.046996285136453514,0.06517544613805233,-0.0035561634060892397,1.008610436137564,-0.06278317824071582,0
-0.30898474210550053,0.675781791543416,0.08147130072542384,0.2569880703412185,-1.0264478075544996,1.2912520281845388,0.16191708538480437,-0.6502831160709974,-0.8042444593601529,0.41179958901384445,1.7808469247591834,0.1996569224191244,-1.7762091472467563,1.550950216090288,0.7739467887388438,-0.04491475029210877,2.1764499576679457,-1.6484339529625671,0.8101839864964417,-0.3830778571053554,-0.011951796622410023,-1.5487612139935025,0.9306584335351159,0.17218055193581705,0.8967023434943827,-0.5268882901854224,1.2098277504597799,0.589792036913093,-0.38458465711286666,0.940241582201847,-1.0096716616773416,-1.2769348863214367,-1.2411188590421747,-1.7833247393894638,-0.5422053803087592,0.43668580229107895,-0.05476006015279347,0.48056561020339,-0.021560574677252153,1.0024867073506225,-0.06271362396149495,0
-0.3104974396206929,0.6707580232580854,0.08456341780310292,0.2570491431374189,-1.0229308047842152,1.2903967875548998,0.16489603935958616,-0.6483249911094777,-0.8029612499441361,0.41215321226977875,1.7814782950317178,0.19980067138810811,-1.7768856794963819,1.5774747372292706,0.7752159777679094,-0.03266696236351849,2.1882302726091396,-1.6556202197302081,0.81052550241789,-0.3770123189526539,-0.011799477238270914,-1.5451570445956075,0.932007589082425,0.17294698516837612,0.9104339095189001,-0.47537162599041227,1.2124345383506165,0.597249393309912,-0.3885014694844683,0.9436243692160957,-1.008904303460056,-1.2458060296760916,-1.2611963819517353,-1.7959102056987655,-0.5398989886806318,0.35533611687022726,0.013579248546062982,-0.08514228911857046,0.07573620189051143,1.005246450761969,-0.06261392833652446,0
-0.31482230427732283,0.6657650207033071,0.0956529847710549,0.2571102159336648,-1.0225903921849955,1.2403693741209678,0.16805022592111982,-0.6501055127264195,-0.7847394875063023,0.4123238583629124,1.7466374794781718,0.2000294392025581,-1.7423308264418016,1.5774236809298312,0.776240260290681,-0.01831236963943218,2.1933224183146445,-1.6503747735417185,0.8109702171068881,-0.37501306513807947,-0.010146064407025479,-1.508975082024921,0.9316134367486517,0.18203521821196403,0.883125466040443,-0.41756832656839343,1.2139038551449146,0.610910667614226,-0.3756051545897321,0.9467944606014641,-1.0083186423871628,-1.227008392015441,-1.2448791035539704,-1.8093672501940263,-0.5381571665229787,0.2526760751104557,0.0019119163071710243,-0.12482818705745531,-0.024447397538005324,1.0127445239944028,-0.06241925096707003,0
-0.31497522528858946,0.661590983528255,0.11559248311925538,0.2571468596114214,-1.0191773548682235,1.1972550549535383,0.17111679618930084,-0.6550309599937392,-0.7559302644155191,0.4079280309148471,1.7182196839028765,0.20015920480879826,-1.7138840416500096,1.5769069292930826,0.7728555628950026,-0.01312105440590717,2.1955206589017573,-1.6231868956198148,0.8108521385170409,-0.37310545307085397,-0.02322538108349393,-1.494472349673866,0.9299194249356437,0.18363909606284642,0.85535685263223,-0.3614207577166459,1.212894324558356,0.6132290122926253,-0.333237105008875,0.9491089354797456,-1.0077433650729417,-1.209704360040888,-1.2201363808873666,-1.782649663814082,-0.5405963238078119,0.21738130778385187,-0.08979139137879921,-0.04326235181737431,-0.13151618187300818,1.013990317058199,-0.062261322254818875,0
-0.3150498909466707,0.6576802918229379,0.11546868380715582,0.2571957178483772,-1.0160120523749676,1.1934048396759656,0.17365766869715632,-0.6545039204657859,-0.7512179809833955,0.40384525352574724,1.7026805791467488,0.20046460145107484,-1.6985554964394165,1.5779156779971548,0.7563433465178405,-0.0025658565108843644,2.1945505851203997,-1.618820853123379,0.8110712559002327,-0.39192966500473053,-0.020764003837661384,-1.4720784871888961,0.9292052805810338,0.18481976237903036,0.833750742091462,-0.32232970690133445,1.2050249836593698,0.613357283127041,-0.3302259535543219,0.9509728420608635,-1.0074109438868748,-1.1957764380793972,-1.1658338285628445,-1.7495243537829863,-0.534202267279897,0.15869518558306617,-0.07885189150809124,-0.06330854651592215,0.005867753021687776,1.013267469241787,-0.06215402157777596,0
-0.31895547921560735,0.6550968888364868,0.10787852505651625,0.25723236152611106,-1.0149379407180956,1.194228981576397,0.17548509424471154,-0.6554656714292054,-0.7717535780735689,0.4002497522767144,1.702103506717653,0.2004489400848033,-1.6978980620375839,1.596950394724459,0.7325629744670865,0.010663607169778122,2.195118686432724,-1.6166630439571108,0.8112469338022007,-0.4028095768984024,-0.021293979959431313,-1.4740819577047788,0.9295341372456912,0.1857404617254911,0.8365878331162914,-0.2944196208287955,1.200001319572198,0.6183684544500866,-0.3547393658142359,0.9524188097878824,-1.0071588405482763,-1.1889687543209415,-1.1664834507606228,-1.7115167802198703,-0.5275087984628685,0.08307394484425201,-0.08522471565523948,-0.08732319912975149,-0.01620796155812002,1.0116725765625492,-0.06219598056003395,0
-0.320282230524612,0.6551053838516391,0.07462100047944588,0.25725679064457757,-1.012748725311255,1.204229268019823,0.17709973736551993,-0.6574455960792293,-0.7862790557099291,0.3947958394959322,1.7171921738822018,0.20041090533814745,-1.7129039256878393,1.6226827696418387,0.7217663755289311,0.017117946584723615,2.199392054267725,-1.6422050395275967,0.8110921356508769,-0.4039739786372954,-0.03252856372471857,-1.4952416302076763,0.9293401961357651,0.18722598726676642,0.8986187998327753,-0.25624678828584996,1.1914822807709708,0.621998777327476,-0.41268957381800664,0.9540043590213553,-1.0067295692669558,-1.1764900670596856,-1.1859855346312997,-1.7235975251135824,-0.5204495858136092,0.1441406520072156,-0.058653642717709856,0.05764830796867485,0.025667205386455852,1.0087430216271616,-0.06223098024359925,0
-0.31844502457236834,0.6551405118872707,0.041807519962789044,0.2572812197630896,-0.996979245322326,1.1798425277412303,0.17855166451286925,-0.6568839335165929,-0.8123619109582502,0.3800590179145438,1.720718106267051,0.2002638003621068,-1.7164222537226357,1.6348976024925308,0.6996885013800145,0.016553397008242078,2.202336391356402,-1.6552379998626263,0.810821898878177,-0.3966582306743981,-0.0442766566513283,-1.5128237570864747,0.9301414734528051,0.18768143960304753,0.895965194852499,-0.2223832617456286,1.1923998541159817,0.6221257568447667,-0.421297915053475,0.9558193214378721,-1.0066089476870241,-1.1582261862584589,-1.1572246089165332,-1.7259848809652985,-0.5122371992526479,0.2479961774739562,-0.17388293487924525,0.11847003858826727,-0.17554752718474553,1.0063798609519314,-0.06238602782874503,0
-0.31608228725746645,0.6566360937441629,0.043708426877109186,0.2573056488815788,-0.9965021924127754,1.173663968589268,0.17999107504690245,-0.6521360895938512,-0.8417851369366582,0.3804703187544044,1.7209944660549128,0.20029512309464673,-1.7166625983354182,1.6327501435949046,0.7002872629906326,0.021377344772401698,2.200933195947894,-1.6527990544170634,0.8111065354789065,-0.3811156206169669,-0.048187776428134925,-1.4901063090442803,0.9288180469936573,0.19370067482509962,0.8845486586351688,-0.2074418733182795,1.1931465069359413,0.6291358870772974,-0.4117996536070735,0.95773257501622,-1.0065778959586869,-1.1523183199928537,-1.1036836290828382,-1.707896386635203,-0.4988990231261918,0.0755324839969296,0.0029624813359113667,-0.2032145617049768,0.24312501276673035,1.0032103038377402,-0.06229564691721476,0
-0.3143499004021478,0.6576173827918071,0.041642812428925,0.2573300780000681,-0.9959627602311156,1.1684612728756145,0.18128028622088596,-0.6489462822318471,-0.8598596896657782,0.3808641174308667,1.722167552021283,0.2002554103444619,-1.7177704536757488,1.6294005409195722,0.7081357045810335,0.02701145955653787,2.1999527391138307,-1.6517748086865571,0.8113681323547883,-0.3613358525466639,-0.05151583580278175,-1.4814552449133453,0.9279101777399473,0.19661907953544572,0.8782151419187052,-0.19079334492043828,1.1936692638634365,0.633136817969559,-0.41191987610160335,0.9596409946030025,-1.0065675463013373,-1.148361472076504,-1.074453430740768,-1.6969384778968284,-0.4917190612309042,0.04893237007844935,0.0025661430385158462,-0.0349048071845583,-0.00817703052380871,1.0013174121327728,-0.062282079966403045,0
-0.31312653231202536,0.6581461400863146,0.022516463497583586,0.2573545071185801,-0.9894016489819546,1.1633234156659964,0.18239426480809426,-0.6479511905683637,-0.9006149177085124,0.37870657801558244,1.73352734635624,0.200268275038182,-1.7291615992103677,1.6300828387393511,0.708182846597975,0.02966481609860416,2.1999631221665363,-1.6742805324406618,0.8113993319821869,-0.356074831354202,-0.05667692787987076,-1.4817700126098068,0.9278610978826974,0.20077936727384146,0.8887325292158564,-0.17380021892637978,1.1952585248858407,0.63898261059439,-0.4706191364028873,0.9612781064131731,-1.0063246356604865,-1.132949079631884,-1.0579535112460638,-1.7032924279780484,-0.4829920887998127,0.20150411226988224,-0.03550034781677099,0.170033998077631,-0.06121466346324688,1.0015184449390013,-0.06219325057332539,0
-0.31259382155916693,0.6581826456919709,0.031542135452242326,0.25737893623706937,-0.9887208237835176,1.1839058448199762,0.18324539451515146,-0.6431052480473533,-0.8863791412296848,0.3907886396305979,1.7374965006724077,0.20026771570367338,-1.7331278258264082,1.6342849268992599,0.7605263098770314,0.046832893116173224,2.207809743425529,-1.6642407912533017,0.8119765250890622,-0.3263322052647468,-0.04772800155879895,-1.469241412707583,0.928306708392794,0.20164170668832354,0.9101336333798994,-0.16422318881681386,1.2146974861208826,0.6394358629052617,-0.45381045759697347,0.9625848954663705,-1.0061974276838774,-1.1201591429550422,-1.074894212068347,-1.705371481347226,-0.4829755778336686,0.16421536679075854,0.16498945916997992,-0.046578829717915646,0.27071343788625757,1.0029249087741778,-0.062246181380256796,0
-0.3110488167880734,0.6574325588134838,0.03396983423107036,0.2574033653555359,-0.9785298329859705,1.20027350432698,0.18458467214249263,-0.6251423047199338,-0.8767023047364044,0.39003246661650215,1.7485438569182126,0.20030295377778198,-1.7439254967324613,1.6583989718404746,0.7612527443314252,0.061530238630481564,2.246413933385176,-1.6672416955768068,0.8124517194140576,-0.3272908373394524,-0.04090006307746788,-1.5166741152151202,0.9306361638201515,0.20210328069579123,0.9456515671265959,-0.13095106364755432,1.2273216161290366,0.6469823201837049,-0.4447305795565842,0.964497746212088,-1.0065258185762718,-1.1011220324735944,-1.140561491668715,-1.705269970859482,-0.4924920327025166,0.24819404045372429,-0.009979848439806399,0.09096785228625065,-0.252444231678594,1.0008048052399876,-0.06278785478727386,0
-0.3105699514617168,0.6553060498852477,0.03395564889322546,0.25742779447402514,-0.9585571782335678,1.1782504275988976,0.1860491159032047,-0.6158428140709888,-0.8710068932175645,0.37351798212086124,1.7502200547960418,0.2002654783656358,-1.7455740373673656,1.6737174088328373,0.7020567042135418,0.06679407453159023,2.263473288980576,-1.6796425109892716,0.8124634792736155,-0.3324079258338205,-0.044740764931308345,-1.5547834852018467,0.9334207430339022,0.2009985231023208,0.9283969291563713,-0.08082419267430448,1.229009831139628,0.6465953554852495,-0.4641988673804837,0.9665592421984435,-1.0066373896258178,-1.077559733947973,-1.163130807207258,-1.6854413013596818,-0.5016253460105436,0.3038114311315316,-0.25364616593358436,0.05785902091956427,-0.34391782504140656,1.0029664248241474,-0.06307311956399873,0
-0.30930637878647166,0.6471508353386106,0.03942381005990361,0.257440009033247,-0.9420302356547546,1.1757670518444496,0.187501043050554,-0.6068395427187756,-0.8553553242196794,0.3501482184432497,1.7492874307077544,0.2002268842844682,-1.7445683374958854,1.6881338512017732,0.6587784270957351,0.07197400878443605,2.2802997675367216,-1.677346839178931,0.8125073987491079,-0.3636971124766373,-0.04995775800570588,-1.5686561053376735,0.9356371201998425,0.19843680776644576,0.9246056907736337,-0.03525169206272637,1.2309089480846394,0.6457021944737978,-0.47513717531022653,0.9686533676278655,-1.0067530797210391,-1.059316081096189,-1.167928709628144,-1.6551580361902927,-0.5074343285816172,0.29655824712428785,-0.5394007767588271,-0.014772541838727175,-0.5049680620327146,0.9966984228883219,-0.06325952703841042,0
-0.3009804399712432,0.6371129417581224,0.05577893144996349,0.25746443815173625,-0.9424805545905435,1.2122825444941154,0.1883396561442951,-0.6020602815978955,-0.8385284366820365,0.3517086954207866,1.7540405665109036,0.20008928799509176,-1.7492091145094208,1.6888857712480603,0.7156875408627292,0.08569179593842645,2.2872964617670934,-1.6654625773708498,0.8130637121053399,-0.3516463287670028,-0.04365611224709728,-1.5601416452693144,0.9374044274824876,0.1904921029005099,0.9260005352512819,-0.006467452918010853,1.2310948616382036,0.635922189008163,-0.4649702760432038,0.9700620733365684,-1.0068145002387823,-1.0544802961509272,-1.1920810440918963,-1.6704559687809588,-0.5092347135065014,0.05067508513443542,0.02226996458178135,-0.2419882726174783,0.6599651280015364,1.0011345438660344,-0.06332408813190671,0
-0.30110895105582763,0.6343541281885164,0.018266020448822504,0.2574766527110036,-0.9416310083132616,1.18851400349445,0.18920330246473832,-0.6042287094367493,-0.8866199297596424,0.34162864263267484,1.7602527088181297,0.20005964326607872,-1.7555712201815206,1.6958975030377166,0.6961155673191467,0.0843244902131083,2.2857152711693454,-1.6751057478010567,0.8128813142836241,-0.3517239696918406,-0.04648691275033691,-1.5555901690512546,0.9394054586668393,0.1818034109296991,0.9241571959900731,0.023272305304493975,1.2322663169327053,0.6284342714393859,-0.5340807587455553,0.9707746842598436,-1.0065195390816921,-1.0484556297901662,-1.1653095528733037,-1.6807839553852757,-0.4984949426016677,0.06790551844714322,-0.1464545893718605,0.01307753474615018,-0.21962184027753726,0.9973155104189105,-0.06318758067193084,0
-0.31371380643040575,0.6318088379727508,0.022846738282757607,0.2575010818294929,-0.9416274437834269,1.1901911308495634,0.1899668158784196,-0.6109308313171559,-0.8805105695727112,0.3434393209915196,1.7633801563652536,0.20035720922521902,-1.7588699229667066,1.6908630424808893,0.6235209209097011,0.09092334161528254,2.254623961488866,-1.7526157649941003,0.8128628345043192,-0.3648998043437633,-0.03807012925635706,-1.5540523096503671,0.9406893185450319,0.1836472582910952,0.9226876159370918,0.04699967619064206,1.2307520210528673,0.6253432886812008,-0.5130484378618867,0.9718395723184529,-1.0064488392538224,-1.0526141046864221,-1.1878489061740407,-1.7452762185167516,-0.5051386276570202,-0.06028388469325009,0.02389185293736944,-0.15449184939907207,0.23765014768818052,0.9995569212743348,-0.06306849607125872,0
-0.31766965043074147,0.6264994535022841,0.025186316023459297,0.2574888672702483,-0.9404749124701925,1.1621290903549257,0.18981661651836987,-0.6235842681591961,-0.8767516891899679,0.3407690477439526,1.7626475864576068,0.20026268169308645,-1.7582195151315152,1.6695029433882158,0.635123159518764,0.08229841097824371,2.2441563610683164,-1.742481370671703,0.8122738815378855,-0.3647711452702275,-0.043818615146249955,-1.5428828710541016,0.9402140871519256,0.183470137938097,0.8855162765335758,0.05031152386802832,1.2308719652809734,0.6186525442175844,-0.5036368643622057,0.9708105363639541,-1.0066991159911716,-1.0695501184840561,-1.1514520155885877,-1.7337651573110056,-0.5040973108935123,-0.24727091824943062,-0.0897781774452399,-0.2356502579931887,-0.18053747955525623,1.0023231738558898,-0.06289401894339998,0
2.6168019927630426,-0.9385011416725642,-0.18311082667358608,0.25778201669211936,0.9166867176153805,0.8533900965130663,0.14674695001742824,1.5151998413328367,-1.4143930004768472,-0.6312919585407977,1.5411939221914248,0.21028036276110162,-1.5387400217354916,1.38266091733559,1.3386772484162957,0.19395906513953312,1.4105411082483879,-0.36898921555639136,0.7941207383316615,0.3507971046161525,0.4090134803263248,-0.5688842602064563,0.8309807028338028,-0.45463858265095125,1.0136632504956875,-1.8670200554909244,1.1419812978316348,-0.169587229072409,-1.2105064648121868,0.989425029384668,1.0075220538541707,2.140741605294667,1.0927085974133062,0.8761086286721407,0.0611954227542332,-0.003670578159753832,-0.001698889322254647,-0.004514653943860991,-0.0076197760568815325,-1.1282516581533588,-0.06420257835017631,0
2.587456953258546,-0.9593562890750547,-0.10477423279007848,0.2577453730144082,0.9077730166752851,0.9440612071082919,0.14414349444282903,1.4498379635243104,-1.1066632146121227,-0.629388200494789,1.4826237765106742,0.21029938013443006,-1.4802187209643634,1.384276152990577,1.4434531565670212,0.1934376574200448,1.4782059794379356,-0.05898255377305579,0.7947034513726154,0.4866239628770896,0.4256912612016301,-0.26803316494884477,0.837574268149628,-0.5213684715873208,1.1055438288484891,-1.8716311984515244,1.1862896952292163,-0.18951612626238423,-0.9066723975332364,0.9905509465867909,1.0148265969300994,2.330503261567939,1.1674219095949303,0.9782583940654934,0.07637002247050699,2.4771152858342376,0.19971304942346987,2.7826251954308874,0.2708594592330364,1.2218134893629458,-0.06647340535461906,0
2.56419572900974,-0.9806247074849767,-0.08892756262569702,0.25769651477740696,0.8922174084764409,0.9478326780816159,0.13968758009397247,1.401851719788208,-1.0987330779318436,-0.6293870071654665,1.4612620849054778,0.21028148143012093,-1.458873362773123,1.384526793006006,1.4941068809435516,0.18378499776027846,1.499173812730396,0.009633636843839591,0.7947233711347238,0.544395174966683,0.43356766838829425,-0.21555532486091591,0.8423808509977435,-0.5201269966706836,1.1022142121639475,-1.8769764473540942,1.1927446937717863,-0.19345421305456298,-0.905214899397463,0.991524995887232,1.0173500035503003,2.358432187114706,1.2172629304222742,0.986135247053475,0.08288425749633849,0.32892361560180383,0.0229063242198122,-2.202992679972362,-0.23030223423890345,1.1745135317526005,-0.06796889875670721,0
2.5014263204889646,-1.011092194127804,-0.10707913526049294,0.25763544198116106,0.8755876886207259,0.9344314588096345,0.13322900761085546,1.3817357366373506,-1.1110559145740473,-0.6284876346326571,1.4490241447171783,0.21018807256700664,-1.446821089384974,1.4049895389570197,1.5605491213141331,0.1685707439839596,1.512938774031615,0.04660537096583993,0.7945568131238421,0.6326470261990403,0.4418951836230062,-0.157529886630851,0.8467171753017243,-0.5417144579430184,0.9799998391004255,-1.8840107897882625,1.281904236199129,-0.23675078493836263,-0.9351547489958714,0.9917717308733863,-1.0248762086844567,2.4015281596548155,1.2570694713287673,1.0082380281244916,0.10684088655738724,0.6105600241503638,0.025243162538433707,0.34044811706743516,-0.004097282387152886,1.1441179286440988,-0.06839143519441127,0
2.405673357510207,-1.0454575151557175,-0.15192873165219845,0.25762322742193916,0.8547755870922387,0.9291330876042577,0.12924872456892014,1.3477577162670906,-1.1313227281255551,-0.637420102388856,1.4562149109468334,0.21019142857406667,-1.454604273118035,1.4074974862718992,1.662135942441764,0.17599670154014452,1.5408439698247,0.08493157811879606,0.796835345912481,0.7157590906338669,0.46934278997202217,-0.14612674523941388,0.8585642312407112,-0.5916542352602651,0.8849847991539636,-1.8820744093108641,1.3514459005845054,-0.27560307371698733,-0.9599804659901532,0.9922011504574514,-1.0228342758286821,2.4206155137526153,1.2769962821759857,1.1468854979184422,0.13022742156454803,0.2707575197954589,-0.1503211694264001,-0.4243684521899193,-0.27457961095463884,1.1299863851643037,-0.06708436698474429,0
2.3159683128361386,-1.0813466582260303,-0.22566526405925574,0.2575865837442053,0.8152283167523114,0.9176257882803184,0.11962344891090673,1.3201298169246274,-1.1826418255217663,-0.641003272568222,1.537829620596346,0.21007620566507562,-1.5373579501278039,1.4053624046589852,1.7883506148667256,0.13452520196709467,1.5899928914535675,0.1206111832383037,0.7980550113466357,0.8799948905731779,0.47112858849844397,-0.08043535609932062,0.8681611811250748,-0.5864830555532597,0.6799709805906838,-1.885925741629384,1.4598624888342626,-0.28885672224884607,-1.275396841392505,0.992107894703501,-1.0208012138532812,2.4253801746175863,1.2300034337002215,1.1477256157314208,0.1852071187073517,0.051123823477285904,-0.031296980417174936,-0.2215806677790955,0.13714610474818087,1.1201441408256836,-0.0664027830551828,0
2.2308781801827897,-1.0910328122601947,-0.26174588579679725,0.2575499400664942,0.7525282369590787,0.9151715885738648,0.1043782138634941,1.312161389609052,-1.2040317422035325,-0.6459480315046893,1.6172202833629792,0.2098972186219833,-1.6175435071146307,1.369019602421777,1.8502576109360453,0.10182711512785161,1.6281609931995766,0.11351807962262914,0.8000184278985487,0.9395446313891124,0.48042917109328215,-0.09234173884335657,0.878494545079011,-0.5781583989623438,0.5896032669499028,-1.8924963123266914,1.564580796717419,-0.30311415462586394,-1.26008204684737,0.9915141194062094,-1.0200948871686475,2.375565912805258,1.2129103421701735,1.1756238727049022,0.20675848995087392,-0.71588892530603,-0.05325471305035578,-0.9469481352806947,-0.04082250212340237,1.1158482744407192,-0.06602235189999318,0
2.2038090073717718,-1.1056141613773776,-0.2780358119472675,0.2575132963887375,0.7422219930302081,0.9036793771265577,0.0882067494289411,1.30684226561404,-1.2255171250105,-0.648529600605942,1.6516312259566834,0.20975850366358859,-1.652299428076155,1.353992031620159,1.8804836803085727,0.08059973344338273,1.6754201992360138,0.13096923186155118,0.8019271251039458,0.9726260293802692,0.4966762109505668,-0.06405569565526456,0.8888250982922246,-0.5919835811701027,0.5320724245391056,-1.8985681297027774,1.5818927469740482,-0.3176926945279627,-1.2551337619728888,0.9906174139708156,-1.0200418925234351,2.361333266573164,1.2225643597754747,1.1933739175629388,0.2242138487847479,-0.18587909247373222,-0.0359034950257372,0.5786022147374936,0.015873293840908572,1.1286335714312508,-0.06573163435761765,0
2.1672687830085855,-1.1025334556119841,-0.25489608705266187,0.25742779447402514,0.7202918173102214,0.9020114194818442,0.06840546712602648,1.2887049247785884,-1.2152157481824966,-0.6521871549797508,1.6588860311711242,0.20952470183854957,-1.6596266957352683,1.3536609392540984,1.8085148048199802,0.05831709664338084,1.6764525713336051,0.0949605757440183,0.8034669467146384,0.8733220137106115,0.5071663147672026,-0.12944057287982005,0.8979150337922226,-0.6199392129221244,0.5724547504060503,-1.9054056765663632,1.6389802023410873,-0.33933215646950843,-1.1792865992426054,0.9896973442428555,-1.0195825825825842,2.3361997131361667,1.2091219762167815,1.20543844988503,0.1929962463846081,-0.30236795138881134,-0.03515396184850187,-0.12348824379346264,-0.0066776800529257645,1.118852037343288,-0.06552848589859187,0
2.1052101341176352,-1.0989866719882107,-0.2701120828279142,0.25737893623706937,0.6882288714466552,0.9083890186740715,0.05098234135750826,1.2749403449901455,-1.2191087844215776,-0.6517293142963082,1.6797396500984347,0.209403885584464,-1.6809451187543873,1.3236847028409051,1.8535040306054023,0.04404270013198741,1.7536639178393862,0.12151277983608569,0.8052376455680811,0.9526097322629878,0.5226155737249137,-0.06857923060826843,0.9067636780116437,-0.6268697609281512,0.5549701718344754,-1.9152210307986635,1.7206792137802385,-0.362901707073873,-1.1784149291257182,0.9888250101816051,-1.0203594789758172,2.2577674704671,1.174741117015646,1.1580399835900754,0.21749584243460204,-0.9399479537871308,0.014179935158853093,-0.6585982369451917,0.05466502910528379,1.1124405963686224,-0.06614451444882562,0
2.0498067799423154,-1.0946906050684646,-0.2618440368717838,0.2573422925593355,0.6634494482120926,0.9526609943191461,0.04220819540659868,1.2609795680051654,-1.2024673244977941,-0.646491394122919,1.6795020744844564,0.20936529150329847,-1.6807478343833262,1.3075632895028162,1.8506678873295381,0.01700995960525598,1.7966675555597462,0.14279405118714822,0.8062931529626914,0.9442296035886856,0.5301650250784826,-0.03200676008262188,0.9128580125328002,-0.6495681014651431,0.5880553158006221,-1.923867570091074,1.795818275477227,-0.4021461258194531,-1.1118530720569342,0.98791863676308,-1.0210035712868257,2.192373772498643,1.1724563276519961,1.1332138512951382,0.21863181191720107,-0.8165257978828087,0.06069213876888104,0.12732895911649914,0.05352664026307767,1.1056567166590467,-0.06643776534236358,0
2.0205450213641414,-1.0915688017973324,-0.24902464676109354,0.2573056488815788,0.6380985120273586,0.9894768722697417,0.039191691591775324,1.252599511277247,-1.1985187700672861,-0.648369296700271,1.6917726655354226,0.2093188667389967,-1.6928065037487996,1.327226153429282,1.8622353286677484,0.017711874971795608,1.8144285088594008,0.12117486735980154,0.8074194595117835,0.9312294156191828,0.5414045922660106,-0.07428705957408284,0.918909969732278,-0.6630443484152673,0.5365592592670273,-1.924901266245515,1.8291647699611566,-0.478895989582293,-0.9799128765182681,0.9853876393459292,-1.0219182042591624,2.121172695497285,1.1562419964886792,1.1191359057193104,0.2053829941549673,-0.7019202455394952,-0.02344465595368002,0.09207230647791348,-0.09488414034417422,1.0959392855800787,-0.06690893046549609,0
2.010926074373848,-1.0898082673056761,-0.2151596601659132,0.2572690052038222,0.6237287040868742,1.0060540006111631,0.03568703985676125,1.246418658419012,-1.1782859279870193,-0.6483191768687212,1.6923374713420802,0.20926796729861655,-1.6931490038304347,1.3475218060366765,1.8372653042070228,0.022180100921238313,1.8161194631571798,0.10838171587890974,0.8084437672789967,0.8965775920362922,0.5512997188012154,-0.08572937486993654,0.9241604334038913,-0.6606679156606392,0.51162111446094,-1.9245443477874025,1.8395009638181892,-0.4901437921800002,-0.9280473639326244,0.9834475973976552,-1.022207164249424,2.0880784651837265,1.136650823310879,1.1104991050640511,0.1884455312529778,-0.4053247575319918,-0.0017682955989554582,0.3048375477382501,0.020203813564425417,1.090294991218412,-0.06707575582156168,0
2.002463009205795,-1.0878299619526046,-0.2038612535019125,0.2571957178483772,0.6068554080257846,1.0236610188711586,0.01902742750199423,1.245253016251349,-1.1621774741560027,-0.6540531242638765,1.7052383503165418,0.2089759946845739,-1.7061308559514532,1.3214676217167707,1.8592843543980668,0.022848932041617517,1.8171770512399137,0.10343999097625212,0.8095074345761575,0.9162088665345008,0.5624110170336788,-0.09600535882134718,0.9299855854480594,-0.682068053794665,0.4970353067400106,-1.9329879310782832,1.8544949918666704,-0.5154604948544766,-0.8975729006417469,0.9801169772090507,-1.0224728663017557,2.057971446242373,1.1187294769486165,1.1090754223268726,0.17644183182437262,-0.3279477946812731,-0.07130771347133368,0.06710777178619352,-0.08683461126796792,1.0824682112796433,-0.06721835809679938,0
2.0104149017915907,-1.0615452370949865,-0.1692368498301938,0.25707357225590816,0.5737219150351822,1.060589682258037,0.0016293349602014768,1.2477356160715862,-1.146777545685833,-0.6595667035107893,1.7131319218552812,0.2087153448030712,-1.7139813325727267,1.2530444446652365,1.7958061786990596,0.004631422735839687,1.8209564824247741,0.021404346257940313,0.8100107085658117,0.7876531020979964,0.5654580547280577,-0.2444820047053933,0.9350252435654053,-0.6773311046304938,0.5276140233264052,-1.945209211418946,1.8421447345126918,-0.522070747217302,-0.8123227191433664,0.9753985986085263,-1.0227533651501117,2.0128317982942807,1.1537542466574002,1.1042751829098283,0.12239780197095071,-0.2818971214721095,-0.06018299773259773,0.019878336289153975,-0.0003678042566019382,1.0622077162530792,-0.06724528479247208,0
2.026182278549377,-1.0258907401188924,-0.002473659911439543,0.2567193500378367,0.4906125255847889,1.2433631967170007,-0.019849173530241952,1.2920954175082924,-0.9471075497831497,-0.6553924375402892,1.712399171556128,0.2084860176541115,-1.7135226238889594,1.1871570638191848,1.5139202812663433,-0.028836336006079544,1.8298592084732563,-0.1569951693226682,0.808892081925002,0.4535311096675133,0.5618509237079325,-0.4641427944054854,0.9381347876489643,-0.6549759857913626,0.8798032871275461,-1.9578658288799005,1.8146325271908834,-0.5030053107449035,-0.4900067816237201,0.968923869739217,-1.024588724189601,1.8977517313551187,1.1331535950545393,1.0706296233815205,0.019009316205688496,-1.6475865050868883,0.041765210228358635,-1.6810784996159498,0.14640333276630813,1.0341820179197359,-0.06826671133596071,0
2.0284725040232563,-0.9663236938678337,0.07745985912641119,0.25592540368693584,0.40682943999562804,1.3441192451059392,-0.053869328586760155,1.3699203054681022,-0.7838725858883241,-0.648575742673083,1.7025689168042628,0.2079971592926674,-1.7034773361185722,1.1261540689528209,1.3827784809897914,-0.05933551150851593,1.798509805768379,-0.2563900970606014,0.807350580334373,0.2973097199478038,0.5475077678171207,-0.6175333766411918,0.9377549052296337,-0.6460220214024669,0.9944386806829002,-1.970647225265733,1.799862395034867,-0.5004502245935895,-0.38407912950778417,0.9616620059099975,1.016809787524821,1.774927622352758,1.1102347305932214,1.0695960836275553,-0.05165561751860726,-1.4624409307400934,0.10626443320326148,0.18446076081716828,0.07339879520048646,0.9205486487310687,-0.06772686456968235,0
2.0395847641752014,-0.9486914863357941,0.011770210362723146,0.25529024660619243,0.42513924158012145,1.2635604101846698,-0.07860215654549922,1.381520304421545,-0.9054832182678196,-0.6483279279504204,1.7016202378719032,0.20760226912884935,-1.7023611930329747,1.1345365850243916,1.4444132298400023,-0.0861218405698445,1.7827512983476732,-0.2493836869335627,0.8052779650865646,0.4000821211942347,0.5278113330871552,-0.5574239822422353,0.9360446776047585,-0.6451702928847082,0.8880484006213771,-1.9782148677515345,1.7935783170173478,-0.49000906475995953,-0.5023427045681469,0.9531326292090494,1.0143070443257558,1.717122667996957,1.1190766653193756,1.0413403552919176,-0.020102364646734205,-0.7341174023848169,0.0012278046142398088,0.7864126140835783,-0.14799520868489477,0.921867394788272,-0.06626428605427145,0
2.1198402954677023,-0.8883451946407236,0.0712670277966022,0.25405657612248495,0.42565728658277163,1.267872420351401,-0.09862873788852339,1.420855918825354,-0.936788715393536,-0.6331825899642575,1.694896505252419,0.20744845213869173,-1.695225804693661,1.150145888207499,1.2964222596135229,-0.122377410230226,1.6971267125638194,-0.254598117948144,0.8012632930317558,0.26741520614746367,0.5070833299533686,-0.5176654311880554,0.9337673289861991,-0.6300864950809897,1.0043288104825918,-1.9828212273186927,1.7402071336511256,-0.46385687990561436,-0.6004347928683877,0.9458026866652833,1.0121623340009822,1.681223930370656,1.1323234493772942,1.0129504750904905,-0.051674612569860334,-0.45222802082616687,0.2122970125797412,0.29818106092082014,0.27130722802100943,0.9263853966637325,-0.06485809047518935,0
2.234029932480699,-0.7906188847160339,0.5158711224826418,0.23507515105635524,0.4080972244401871,1.4992008568881172,-0.13183531307802596,1.4996848747909726,-0.7364576912796117,-0.5989053985015225,1.6937333408189021,0.20623693359076867,-1.6939876876179163,1.0424666055295415,1.1055961803687524,-0.29409179400001567,1.697883192118089,-0.47811684994402454,0.783359506847587,0.04090629328001001,0.40165621573482035,-0.7771605400062372,0.9167519694890575,-0.5874339551442409,1.3463817213033242,-1.9941021359941318,1.67471458649956,-0.4124745106241672,-0.33849267584186077,0.9229789954889417,1.0053168061128015,1.4961969192954436,1.1119266421307972,0.9322872940971308,-0.24789795623971222,-2.5175210989220482,0.5889948171495795,-2.41594472361316,0.5336629869741634,0.7688351947712505,-0.05970629603478872,0
2.3088664600500524,-0.6848854490223695,0.41008396550524656,0.22940759556684767,0.3978028622774323,1.4868307552039166,-0.16142458701241308,1.554341823209344,-0.8195242294783388,-0.580333216477256,1.6972755084393303,0.20558083421093615,-1.6973370177165912,1.003892797722897,0.9317505064954142,-0.3838588820961498,1.6556256508992933,-0.6389969999982803,0.7696311907978985,-0.17258874899594115,0.33222804375976633,-0.8796567200343935,0.9011004678753178,-0.5372468623110567,1.3143405005101283,-2.000615487159285,1.622862696689347,-0.31596319045855903,-0.5020769375735971,0.8998348509550717,0.9979957764943147,1.296124228923531,1.0511745211775767,0.7621716634536911,-0.2773173685783986,-2.7911362101918225,0.2951172641611856,-0.3321196032673216,-0.44064671588075466,0.6307456198414569,-0.05607243644929813,0
2.3797212978143474,-0.5751195214736984,0.4325644304056721,0.22696468371794476,0.40708014526067204,1.4713245458418147,-0.16750766109539414,1.558040076247342,-0.8291557706766307,-0.5382456845980191,1.7169800334706296,0.2052071987584831,-1.716537020977764,0.9210361595359471,0.9753423733041278,-0.48200078392835,1.6587450165907225,-0.6542545761253592,0.7567181450118511,-0.16572823989834914,0.2719067509237605,-0.9127425697477402,0.8908163999894555,-0.48439031272911376,1.2947079715659142,-2.00811581183789,1.5741613419373839,-0.21109790937234707,-0.3652354511526195,0.8654267004084085,0.9896328045887569,1.0417871278623931,0.9576569490836035,0.7172758754876647,-0.3200513169620263,-3.528840785103782,0.9778539090863403,-0.8832164555203488,0.993187327644184,0.6441514502111082,-0.05340936793385452,0
2.412022810203307,-0.5370966372325197,0.6369861101462769,0.21884200182026692,0.3911490732525677,1.6091625116569808,-0.1619628013860081,1.5751720667423668,-0.7186762997652795,-0.530220147127006,1.734567122999353,0.20468533966097008,-1.7339692121395218,0.8553994187053245,0.9768033615761132,-0.600583721082278,1.6714790890875937,-0.713504105801807,0.7395629098881169,-0.15918476457717917,0.18156185578137043,-0.9144862384517966,0.8711881326735254,-0.4680038232968922,1.4539520532451793,-2.016818725113108,1.5270502477430592,-0.2141273393475743,-0.299392647789259,0.8381080013251303,0.986404626915092,0.9321046608513386,0.926628851284127,0.6589700204482549,-0.3812603411757195,-1.4624680868436584,0.18829148251996725,2.35735063622588,-1.118254039391318,0.5626647798210342,-0.05181695241364462,0
2.43174172332731,-0.43559658902247506,0.5033634874104949,0.21727853823693175,0.39477182374128417,1.5356172263695047,-0.1486326081795266,1.5786754049184453,-0.9045869061631651,-0.49405749533454263,1.7964428528398364,0.2043161788845943,-1.7957691269219782,0.8408452790439614,1.0235099155288094,-0.6532482828163236,1.6819096071770516,-0.821639543798723,0.7283396839214086,-0.09920545307054347,0.129364191209273,-0.9441697390203942,0.8586712555990315,-0.40504406758862743,1.3929527937005397,-2.017693288880681,1.4832955928652336,-0.13269257705526957,-0.4130748789285591,0.8164930094564694,0.9794407308401034,0.7281834399697577,0.7504974957991872,0.4412011063518451,-0.36571493451188924,-2.7453086930691786,0.7954536557317518,-1.4867223735155135,0.8557149398343687,0.5749534506110028,-0.05629875066583573,0
2.428009876301221,-0.29032563084539764,0.4018423558605541,0.21922065315685038,0.38247776034123526,1.5597627040724684,-0.13049603545073143,1.5775674678085874,-0.9710826010611984,-0.4591438615664141,1.8759738601984786,0.2043961637194747,-1.8749711447475028,0.8535196185896068,1.0248333717302778,-0.6619976102189257,1.766963125062094,-0.8148556312751519,0.7257333150479497,-0.11963678972182863,0.08910052288041596,-0.8814663155532012,0.8537835936915833,-0.3728644827178696,1.352991928004858,-2.0137483542495884,1.4685464509491353,-0.08113501908386533,-0.4639814631351568,0.7973558410977407,0.970309277527034,0.4423233635064348,0.5952472398555516,0.30936423728131307,-0.38419024595490087,-4.133417357697296,0.7806455518151125,-1.7278986224313115,-0.03024517067446854,0.5484037928422483,-0.055385148089863556,0
2.426426102823046,-0.15154084633244633,0.3886524991741303,0.2206619711476938,0.38033904244038597,1.704634004567199,-0.12088327640603412,1.5729869685534805,-1.0454969515404335,-0.4072105672227385,2.0143363103349485,0.20430778886694942,-2.0127905831724275,0.8565644306288928,0.9838950453760916,-0.6632902778849059,1.82774848218752,-1.0907479543642848,0.7242268530388608,-0.13049410937917477,0.050652770281957034,-1.0323902316830813,0.8512668996898708,-0.322964700319042,1.4006044022965005,-2.009135435635362,1.4721447777923147,-0.034850339372838136,-0.7682655092954364,0.7822318928199228,0.9646585929012177,0.3048033229783444,0.4567896969078472,0.041958972052697,-0.4387126925717407,-1.6209259563661185,0.9360224760474776,2.5347376924885827,0.1856330813564701,0.5415378878924633,-0.055904889561843474,0
2.4161452160562895,0.008730931034357133,0.5240608625081444,0.21974587920432392,0.34245046665022855,1.8011103358272442,-0.10897997712024642,1.544065193581565,-0.889533927070582,-0.334927427940544,1.9790869080193176,0.20400351089369423,-1.9775644227511127,0.9574068106637587,0.889570746078201,-0.7067830925613733,2.001105413454477,-1.1622047584943975,0.7152967996859553,-0.1762093404841106,-0.04287869837755087,-1.0517381753017214,0.8189615430782038,-0.20617382497593167,1.444786246099527,-2.0071739544216722,1.4852666763471083,0.07678445652161466,-0.48704159759354587,0.7711682960407805,0.9600103975605605,0.13577270482353268,0.30961660767701477,-0.21827746881685398,-0.5352253755342828,-2.2274163640033233,1.406481270424362,-0.6902118296447702,0.6469683772537376,0.49778212224744767,-0.05543054399909784,0
2.4132188966106685,0.019234672878222045,0.47644283265685416,0.21967259184887888,0.3380601540704295,1.8709637885090895,-0.09481117082002383,1.52822836105061,-0.8651185048690329,-0.3204654698797974,2.005115418091833,0.20430555152890972,-2.0035623589844773,0.9557513488334558,0.8863869614963806,-0.6954780733113706,2.0427607376163444,-1.0469145345234583,0.7092829515062924,-0.18667071263815074,-0.09321082966737557,-0.9545881344462775,0.7902669072421893,-0.18616738731538265,1.3890704151657538,-2.0054283057181204,1.4882372950631997,0.08145730275791287,-0.3507225201146437,0.7597000538843458,0.9590096864238793,0.08091189588306306,0.29769997874641296,-0.14041810574965752,-0.5177177627536766,-0.6869630826381162,0.2522601246852484,1.644337238696135,-1.5280282013367719,0.5128440136823502,-0.05460431802370029,0
2.39103601676994,0.16956039466618736,0.5328036516017921,0.2221765764940277,0.2811488707288289,1.824786132200816,-0.06921469654091147,1.4903943604843517,-0.7356758756150671,-0.2666622284875873,1.9781512172754194,0.20498290562011037,-1.978054120395447,-0.10682771361435212,0.9277811320987492,-0.6155372709988527,2.0419864585431506,-1.02853939673062,0.7106367753382614,-0.1447064291643153,-0.04588500201187539,-0.8011059234926782,0.7846183994419547,-0.1227423845969382,1.2683763893182578,-2.000425129843007,1.4934918517894757,0.11399375947821004,-0.16805909678300113,0.751792247932191,0.954840547968459,-0.09862420569081665,0.7316127947282063,-0.20055764799429088,-0.5336184742259021,-2.417469107386731,1.0243195296570011,-2.0039667758712336,1.0901890976913733,0.517682789730521,-0.052541364980991184,0
2.308315082882673,0.2755118308162716,0.49475062311574336,0.224704990257643,0.21412501624604569,1.790447761879301,-0.04499504972913523,1.4359990083280298,-0.6878940576618798,-0.20560911368406254,1.9565426598936615,0.20563620832739252,-1.9584343248195921,-0.4389667338134177,1.0722111816078705,-0.5508041056134215,2.130675528168418,-0.7550262433188778,0.7082084843381076,-0.09196320942583264,-0.010813626316744675,-0.5995299100859856,0.7634360087167202,-0.03635907437177873,1.1052502218978408,-2.002384364311293,1.511118655644883,0.1876203575547401,0.10937227428143499,0.7214380035621154,0.9507740261441956,-0.3102620630266794,0.8982838476089048,-0.09822781544156126,-0.5286117905619881,-3.2095879698650194,1.3757537912182896,-1.0357029913470746,0.555408053611314,0.5333071617068114,-0.051129387992492156,0
2.2113071624969116,0.3797654119108263,0.38363045971835785,0.22706240019185628,0.1983864288490178,1.7551075067309787,-0.024868335479372387,1.3380478785404193,-0.6756986140368315,-0.1374970581608412,1.9322964179047593,0.20611387999864134,-1.9339991690744405,-0.21248795172357593,1.0842775495296049,-0.5154447220130337,2.1069695355481506,-0.8278995312227221,0.7068037811137652,-0.09166908608624902,-0.011870328502301481,-0.641768169289779,0.737516655028985,-0.005789489023089895,1.0075560307264502,-2.004296694949443,1.5117913428575107,0.22967123885196578,0.08914290050426008,0.6856946642618079,0.9495138359166851,-0.43646489210008943,0.78172614278371,-0.23698518519356027,-0.5347391695339032,-1.4666433118166604,1.0520604648553735,1.7318438763854385,-0.40447095842367786,0.6391265226133278,-0.050128963784603214,0
2.11602660339333,0.49527052577769265,0.3813583697970995,0.22912666070422125,0.18136698706470347,1.705040452036274,-0.00976078317867004,1.218717666003329,-0.591103045081576,-0.0588992178798197,1.7949842071187747,0.20654904224715806,-1.7951653826960172,0.025842854058821578,0.8741519096616494,-0.4439864557420801,2.0906725926799945,-0.9085530794081593,0.7061195492851996,-0.25534750479602036,0.02348120219096845,-0.7882983976278821,0.7222690352361387,0.03764784915977769,1.0511706681932385,-2.0078342680643115,1.5317790489361374,0.25337250380307935,0.10752017489345413,0.6668956738963462,0.9509662176420132,-0.514246577814574,0.5447676886457272,-0.5055794400038497,-0.6001878513115041,-1.1209125247303724,1.6416959273120204,0.422258018571617,0.8881167181929848,0.8325215139617781,-0.05227797972357476,0
2.1055360784327264,0.5122476987629545,0.5975144045895103,0.22507142703498187,0.1919239362586181,1.8161566496289965,-0.0018002170947760835,1.1982323704825188,-0.6341327889441952,-0.05909373055940561,1.805108319634628,0.20683989619218138,-1.8042195642333325,0.2128404186565305,0.8412533270369145,-0.42982639838541714,2.0895675392134634,-0.9987042502038951,0.6920151577267887,-0.21200307963640647,0.010268199796130396,-0.8454261323970877,0.7042439711867635,0.04285739133955224,1.0880356315903577,-2.007948320591775,1.5617291226941994,0.2720892846517304,-0.032233456221876046,0.6490640860929227,0.9476455309476293,-0.6028965450090534,0.3980030799581643,-0.6874691104410852,-0.6758290163464451,-1.0463218856887433,0.1216465410164958,0.07087877691500176,-1.8984172041365015,0.9263160339185404,-0.052062967006552864,0
1.9894683129433446,0.6147228369555315,0.5307290459419942,0.2267692507700307,0.17484389746711304,1.7659072237839664,0.0040325247213699724,1.0795112668889266,-0.6514648448412267,-0.040125363200031586,1.8012634550663944,0.20689415163961844,-1.7993928534563857,1.009666801041299,0.7609693122752572,-0.4359401024018949,2.0791696535753657,-1.2282142629400916,0.6917655607075992,-0.4068637696170867,-0.0335984828127398,-1.00612876275755,0.6826367261906211,-0.06681642908204703,1.2535661390097914,-2.0039971651333532,1.5729958838542875,0.26640318491135645,-0.005114786005307408,0.6492610712492154,0.9495744983449372,-0.6460936572963653,-0.30029818250228746,-1.0204483949310696,-0.7388170118170982,-0.5191299912376361,0.5861709513394374,0.5361116221010555,0.5786197436232684,0.9704286272706496,-0.055355742353698355,0
1.8803487612897634,0.6898118830556876,0.546655992222815,0.22779527374657949,0.14509314328968728,1.6868087102806502,0.011980574191901195,0.9998372524101179,-0.5696108994354265,-0.006974276841402418,1.7000856473266308,0.20681192946669838,-1.6963473528305228,0.5855931778989267,0.8287784225852285,-0.4420119879312258,2.0275599484552567,-1.1058666165270004,0.6939915341239293,-0.2931259666061933,-0.04231622167595041,-0.9847763573321535,0.6794409139879316,-0.5146570794097735,1.8979238908629645,-1.9752864887817168,1.5866675267879002,0.2868344044629529,-0.05940835954072434,0.6597858793851236,0.9513047547136813,-0.6928300082212587,0.1024749431203555,-0.9482158722543244,-0.755864400659037,-0.6682784040961546,0.6838720846400823,-0.18678581183931497,0.13931921155483776,1.0071874791252482,-0.05262311789401016,0
1.6628620580755873,0.7469952739738865,0.329307135296836,0.23038476030641794,0.03438954021189133,1.5847757346817546,0.025360833851717057,0.8685184935303637,-0.5858940861578754,0.045425211490973956,1.711043348993735,0.2070255952493886,-1.707894524178237,0.7428852591865293,0.8410668302352674,-0.42021873330042897,2.004654934186569,-1.2831604862493746,0.6969586186895438,-0.36651445980661346,-0.05699630024433883,-0.996130244704744,0.6519577074037717,-0.3146951387688053,1.5506181320999102,-1.966697205259289,1.5924008608913658,0.3013402001670106,0.10813235148562021,0.6700353514181155,0.95483226540603,-0.8414069069192937,-0.1626265163141286,-1.252458954482108,-0.7338386567682219,-2.1485970315187783,1.070739502640545,-1.841074084184686,0.5830572273800673,0.9858450852143081,-0.05320352813836204,0
1.4390905166801131,0.796318020735745,0.33157764906944476,0.2326200246481622,-0.0857232334530301,1.4666798818007383,0.03869102705824518,0.698480923198006,-0.5330431270491991,0.03470990972679123,1.6475195623504286,0.2070552399784016,-1.6445950680073325,0.7490739015428014,0.8139702782721582,-0.42972635162502804,1.9260211094601123,-1.2552582398654812,0.6990425138026422,-0.4118381982154073,-0.07466816552139413,-1.02829947282778,0.6412360288083337,-0.2267316211546848,1.3753877131456544,-1.9470107871720808,1.5886186195650909,0.30410878408298975,0.06402187417569191,0.6791180187369934,0.9610298247077098,-0.9179951436167898,-0.34287625857476506,-1.1905995053563811,-0.7711547437431833,-0.9381019735649704,-0.08135811742853652,1.264705727333091,-1.4942447416690852,1.0407055755220858,-0.054976703322080774,0
1.4373186431786917,0.8019823590825939,0.33551501168193487,0.2346109978050366,-0.14072749333304005,1.5056160156411593,0.05199618703800122,0.6608482491667564,-0.4749515966755285,0.053467057796062756,1.608295593973437,0.20731644919441192,-1.605539428766904,0.7200414330889396,0.7236811367829767,-0.3949481920611866,1.9033430390577055,-1.198588537454889,0.701532484066191,-0.5118553012316288,-0.06438628208620596,-1.0137551575787278,0.6317677243647793,-0.02441651010959755,1.1546990653355473,-1.9312417508865707,1.588148838005009,0.30887417471324563,0.1025159991059562,0.6921780540326731,0.9638190385346348,-0.94492702701049,-0.41766436906108845,-1.1609805393955932,-0.7804819236336438,-0.47576959393238594,0.4787980904119491,0.6919664625173376,1.0308702133016372,1.0349584897574355,-0.056176883287784835,0
1.1604684341547384,0.8255599292465362,0.36166897758231403,0.2367363311136247,-0.30714469772796105,1.5151321600573946,0.06506353136437823,0.4940883261177285,-0.33552072577523445,0.10080643202411926,1.5442647268055303,0.2075390643292567,-1.5420116992643687,0.6882194340929881,0.7495394030075649,-0.388126749850845,1.90590616978276,-1.2110813397168962,0.7051103613374186,-0.5047123361465471,-0.07741446451707436,-1.0343028259066742,0.6193144132728027,-0.04157106522002791,1.1689977726310512,-1.8983104787378549,1.5402311188766717,0.2947811700501432,0.12905226319627192,0.7054894568897565,0.9735316617935375,-1.0538042911309178,-0.5069160532300339,-1.2942839466916611,-0.7994017495439933,-1.262490254916447,0.8041175640139713,-0.786206434182438,0.3901787557695908,1.0248976742902711,-0.05860108522650179,0
0.9210975137321639,0.8258857245573942,0.35698487872560114,0.23880059162594414,-0.5271427264222167,1.526781602124743,0.07776789390391207,0.2633270822897554,-0.2995191445763661,0.18502724007329308,1.5409374054692697,0.2078304776087897,-1.5394089869133498,0.229882392545115,0.7738599612630004,-0.3338897600652865,1.9067308808262382,-1.182741155940612,0.7118953203080972,-0.439181698514005,-0.03138736003160238,-1.0373989020011556,0.6310695796112117,-0.029586057370953153,1.191271267630298,-1.82034350901934,1.4906961517393722,0.295074299037516,0.05113810622061233,0.7264921431601244,0.9861403319881746,-1.2076306689659964,-0.04630674999485235,-1.3621544471331923,-0.7814342673609462,-2.2398719792756525,1.4463961843258222,-1.225563342379788,0.9798648861339238,1.043528874552681,-0.06123005965737064,0
0.6742858733060514,0.8090003895737832,0.36696003695529383,0.24069384830890703,-0.7370982863953709,1.755848627501283,0.08938331108286983,0.04878224203963531,-0.2753726631888123,0.23206947530001898,1.6052343501091741,0.20811126353264017,-1.6048515459096282,0.46285073972580265,0.6945883813818949,-0.3309479088967012,1.9073924296129132,-1.4472637319018453,0.7094927090012646,-0.5410313182767076,-0.045062737342162845,-1.161931358725115,0.6239318116491396,-0.005545030287039369,1.3411158928431848,-1.7124432710709105,1.4069760800566353,0.2898100295579722,-0.020545867868444413,0.749100117462858,1.000902104679377,-1.2605450271586969,-0.4636333767339481,-1.806864324401565,-0.7980694253206022,-0.6495654575029104,0.9043955255020183,1.6637225967941993,-0.7073246749858471,1.0352839001042298,-0.06518941085083008,0
0.4302871179603964,0.7852471792316832,0.19866354097313652,0.24237945748462025,-0.8740748507084904,1.6172585096852568,0.0996970004745513,-0.15449792975962295,-0.6070391251511084,0.21123911642092782,1.775433556042468,0.20827067386789233,-1.7742944979213886,0.8661444489964021,0.7092028208872118,-0.40408262008909596,1.8795984808131028,-1.555814880076602,0.7039713349402323,-0.4779141254580465,-0.13726038220542558,-1.1537965869480147,0.5970031858308209,-0.006659990665820731,1.2453708451662704,-1.5615284642330767,1.3459664484305307,0.2864650877652057,-0.3314992398033151,0.772326037020709,1.01171358519677,-1.3071626204449351,-1.0850014417380542,-1.8473594630128478,-0.7337762127899311,-0.5415727097259759,-0.042088953027756795,0.10257232683243653,-1.162650946653164,0.9687729670605183,-0.06739924132151447,0
0.3825642754213028,0.7770212494237754,0.23838578252204093,0.24385741915326578,-0.8891688522937334,1.565258249627883,0.10890922789236386,-0.19577371644030112,-0.6482418015071867,0.21269816040604264,1.7908956336253434,0.2083819814353147,-1.7891317239722706,1.0645863604714474,0.6834626168315915,-0.48058980699810006,1.8836656708872346,-1.5331620400993577,0.7009135314580274,-0.5614483359049691,-0.23652755319342636,-1.1775737376242055,0.5668264247901895,0.006941138376509591,1.2575027494323043,-1.4452437831308624,1.341622468302626,0.2892384065106432,-0.27591173460001495,0.7926600211245214,1.0133205699906267,-1.3217482770204896,-1.3511264597946604,-1.8095415680980054,-0.7559701607691608,-0.17978058103927377,0.06297576555152384,0.3708953316341218,0.126545995826221,0.969959124891712,-0.06769420917201856,0
0.1656461799109862,0.75919296775821,0.10799924371443755,0.24523766434790878,-1.0161932493082328,1.4801687815633342,0.11715767608304115,-0.3456818391083134,-0.7660127139844107,0.19807351178097982,1.84167403877274,0.20847762763646557,-1.840268913961848,1.0662743126741205,0.6570451916046433,-0.5972128334094843,1.8836641875939908,-1.6899102980065304,0.6967246214840537,-0.5241320073045209,-0.3411033688909468,-1.2517450349712318,0.5500333300210338,-0.006882819497012028,1.248436849981438,-1.3378626883221632,1.2955269019062654,0.2871227986208674,-0.4096707801365714,0.8122890481250372,-1.021057855447091,-1.3379182387973794,-1.6804846625053647,-1.9776184842740634,-0.7328491797410649,-0.21087715809335944,-0.1761633949480545,-0.03875954602721815,-0.3317145597089659,0.9344790768817095,-0.06792701318887141,0
-0.042725569504954215,0.7489305302636838,0.11977586820729585,0.24645912027234887,-1.124047604871453,1.5304383483002815,0.1249304929668438,-0.5255138812521231,-0.8227228951362554,0.19940407397569326,1.9960343292662095,0.2084972043443037,-1.9955751345662773,0.9825296043090456,0.41659066471385175,-0.6418887407286485,1.8367698716954957,-1.8629144280496932,0.6895652669845909,-0.3703263958691101,-0.39632900415058914,-1.3301506730878592,0.5628922526205029,-0.00869238549976333,1.3416106164884487,-1.1919229972004401,1.18263039673675,0.2774714944286899,-0.7400653499119928,0.8299943478988125,-1.0133904007070562,-1.4304774203498511,-1.7912342721501398,-2.0799199874764143,-0.7166547051247922,-1.120840194890822,0.011719321547841477,-0.9483843165029852,0.23221559442012657,0.957956083114252,-0.06652486856547875,0
-0.24138934749211957,0.7434856847407816,0.09311581530421252,0.2475340014858534,-1.2186787429243673,1.567500471784584,0.13122634947654838,-0.6640791130575798,-0.9457931998518279,0.20774465038787618,2.1067985024411318,0.2084888143266598,-2.1062572519518135,0.9501939479975234,0.47666243614821935,-0.6820853057916602,1.8070120426410716,-1.8832664204859322,0.686314745803916,-0.29213965108697565,-0.4340257766844305,-1.3514816045254074,0.57886201656848,-0.01442022917333449,1.353833547042339,-1.0963310828581792,1.1193168363957764,0.27711810397548425,-0.8167208777454392,0.8452004740332433,-1.004134266655787,-1.4231503350509247,-1.4555931673398783,-2.1154995483566785,-0.6971199295895226,0.08165812448837756,0.15177338418093958,1.198960252171467,0.16487915091386612,0.943382599956119,-0.06518920888431654,0
-0.39731421561720265,0.7382995927875319,0.08340394554209339,0.24849895166617905,-1.2895861526621084,1.6190880570653112,0.13613286190562404,-0.7800906436035682,-0.987838557425092,0.24929717295414153,2.17071734648354,0.20865605534504927,-2.1708025724386055,1.3919129376582167,0.4887801714697853,-0.8190297348906562,1.8142267809782622,-2.132738363774629,0.6865057835224495,-0.30528812049489806,-0.5243074040314171,-1.4137252302611343,0.5937111598110557,0.0057229258103813465,1.414364401836238,-1.0517731448272756,1.1181493792422115,0.2843171969473052,-0.8422727203565884,0.8579324021514166,-0.9966197623165802,-1.3980507123678296,-1.4974322518162166,-2.4696881575314555,-0.6978905408021482,0.29185223837699575,0.6113941211561289,0.20816847479474376,0.5647151258441394,0.9594322710577353,-0.06230777499799161,0
-0.41385050506543564,0.7351162580552932,0.07655507815852414,0.249207396102413,-1.2909929537702225,1.5345208288060619,0.13862366796014516,-0.7868427765340725,-1.0047530473214457,0.24192199996395253,2.1184350173469664,0.20872373482071607,-2.1183624047581397,1.320434118443273,0.5314263810177279,-0.9573314121041376,1.8117971466451377,-2.020399443374989,0.6868573793235189,-0.3134364931298961,-0.6203204002962525,-1.387143437035778,0.5980861858526917,-0.00013877840646956769,1.3048048624708508,-1.0264784636738677,1.0962425655138894,0.2856834104655449,-0.7958282841443128,0.8694167576130696,-0.9954821045708584,-1.3734248152103374,-1.3411081375448002,-2.350359637558072,-0.6912490614373648,0.3090222776030025,-0.12344109036193777,0.014221733163008577,-0.9944504660957825,0.9557979531045837,-0.060251478544291734,0
-0.5279812710787904,0.7214902537502877,0.11830553644674927,0.24974483670915387,-1.3586221842366084,1.5165713442142184,0.1382732027866181,-0.8441432577672265,-0.9129096020666793,0.2298383472431736,2.102902406685073,0.20866164869014484,-2.101753583071958,1.2203513942576396,0.36652352290313905,-1.054053073417163,1.7821698473961562,-1.9132390767660032,0.6839822136601632,-0.35839758902226787,-0.6886420358633428,-1.3399095973307524,0.6033286497237837,0.004774882999287238,1.3030821948530422,-1.0310247167618203,1.0466296346283208,0.2847437620375936,-0.7188537218543193,0.8782196576700962,-0.9906916927361015,-1.3743827064935146,-1.4007903219942488,-2.1930475139646575,-0.7000367248880496,-0.014790729892221893,-0.23034440160721134,-0.3275703837171682,-0.13887374382302892,0.9568152018163291,-0.05997348838831228,0
-0.6346863938080279,0.6998931700919561,0.15526529091506452,0.2503677792306299,-1.404510159064247,1.5908652586256997,0.14110195740132686,-0.9066981050971906,-0.7797519722469908,0.22625835927533466,2.0718974361244347,0.20865046199995058,-2.0707293095017034,1.1647154994747528,0.38163357496618716,-1.1420836356008286,1.7398247918759842,-1.8851025501493641,0.6823876727029561,-0.4191156560500715,-0.7485796051868162,-1.3519350424690373,0.6055744315619094,0.000772942488917534,1.3573550411556807,-0.9949204361382882,0.993491342971671,0.2762012688167411,-0.6554986344356462,0.8863929303257211,-0.9874516264072561,-1.3971900457448638,-1.2870812117161283,-2.175849031693917,-0.6982201736514771,-0.29898250297463547,-0.07717828787912502,-0.32074717421479726,0.2021272667291839,0.9680817124906679,-0.059763192402594756,0
