nose_x,nose_y,nose_z,nose_visibility,left_shoulder_x,left_shoulder_y,left_shoulder_z,left_shoulder_visibility,right_shoulder_x,right_shoulder_y,right_shoulder_z,right_shoulder_visibility,left_hip_x,left_hip_y,left_hip_z,left_hip_visibility,right_hip_x,right_hip_y,right_hip_z,right_hip_visibility,left_knee_x,left_knee_y,left_knee_z,left_knee_visibility,right_knee_x,right_knee_y,right_knee_z,right_knee_visibility,left_ankle_x,left_ankle_y,left_ankle_z,left_ankle_visibility,right_ankle_x,right_ankle_y,right_ankle_z,right_ankle_visibility,left_wrist_x,left_wrist_y,left_wrist_z,left_wrist_visibility,right_wrist_x,right_wrist_y,right_wrist_z,right_wrist_visibility,trunk_lateral_inclination,center_mass_x,center_mass_y,left_knee_angle,right_knee_angle,person_height,center_mass_velocity_x,center_mass_velocity_y,center_mass_acceleration_x,center_mass_acceleration_y,body_orientation,torso_leg_ratio,frame,timestamp,activity,source_file
0.5663847923278809,0.1081143915653228,-0.2820887565612793,0.999994158744812,0.5507441759109497,0.2199989557266235,-0.019555602222681,0.9984166622161864,0.5156249403953552,0.2263643443584442,-0.2343062609434127,0.9999797344207764,0.5630844235420227,0.530126690864563,0.0675764083862304,0.9992355108261108,0.5368030667304993,0.5400815606117249,-0.0676691606640815,0.999714195728302,0.5658736228942871,0.7010356783866882,0.1843404173851013,0.8523035645484924,0.5497932434082031,0.7258211970329285,0.0372823141515255,0.992323875427246,0.5497986078262329,0.8437973260879517,0.3032066226005554,0.867710530757904,0.5517673492431641,0.8903999924659729,0.150383785367012,0.9673609733581544,0.567732036113739,0.5051990747451782,0.0124122183769941,0.1210206747055053,0.5455447435379028,0.5579734444618225,-0.202775627374649,0.98940771818161,-176.92452976332228,0.549943745136261,0.5351041257381439,172.10071471176957,174.17567419675518,0.9139274700584504,0.0,0.0,0.0,0.0,169.72662640249368,2.3766992619908742,0,1761939697.3277097,sit_down,sit_down-person1-take1.csv
0.566374659538269,0.1094984486699104,-0.2493352890014648,0.9999924302101136,0.5499906539916992,0.2198467850685119,0.0151397613808512,0.9980701208114624,0.5153985619544983,0.226048469543457,-0.2202264070510864,0.999980330467224,0.563725471496582,0.5289720892906189,0.0711003690958023,0.9991127252578736,0.5377678871154785,0.5400413274765015,-0.071180947124958,0.9997005462646484,0.5672620534896851,0.6938483119010925,0.1871353983879089,0.8425312042236328,0.5498491525650024,0.7238876223564148,0.0322865769267082,0.991718888282776,0.5498694777488708,0.8405771851539612,0.3058812320232391,0.8585373759269714,0.5528053045272827,0.8858174681663513,0.1381266266107559,0.9673460125923156,0.5660221576690674,0.5043705105781555,0.0465319715440273,0.1203123852610588,0.5450863242149353,0.5557605028152466,-0.2360845506191253,0.9899132251739502,-176.68392790010014,0.5507466793060303,0.5345067083835602,172.6356791670207,175.49000434457824,0.8890718625902824,0.022042412540498,-0.0164004974310305,0.6051155485699596,-0.4502318419803062,169.8359667897329,2.5005598408560505,1,1761939697.3630748,sit_down,sit_down-person1-take1.csv
0.5663663148880005,0.1113050878047943,-0.2470066845417022,0.9999905824661256,0.5481230020523071,0.2198138386011123,0.0161000899970531,0.9978660941123962,0.5153903961181641,0.2260488271713256,-0.2216004431247711,0.9999810457229614,0.5637406706809998,0.528755247592926,0.0731008276343345,0.9990690350532532,0.5378509163856506,0.5403302907943726,-0.0731760188937187,0.9996960163116456,0.5673244595527649,0.6942881345748901,0.1949684619903564,0.8324246406555176,0.5497769713401794,0.7257929444313049,0.0354478992521762,0.9911969900131226,0.5497483015060425,0.8444085121154785,0.3215236067771911,0.8505029082298279,0.5527936220169067,0.8858031630516052,0.1524018049240112,0.9672349691390992,0.5644156336784363,0.5043063163757324,0.0405470989644527,0.1174206435680389,0.544802725315094,0.5551844239234924,-0.2412676066160202,0.9902395606040956,-176.5036412485954,0.5507957935333252,0.5345427691936493,172.80770400925098,173.7445928956676,0.895918417541304,0.0016480263684218,0.0012100193603097,-0.684332993320564,0.5909203428853724,169.21535334748242,2.6149895013370426,2,1761939697.3928766,sit_down,sit_down-person1-take1.csv
0.5663120746612549,0.1127976402640342,-0.2354094088077545,0.999988853931427,0.5464678406715393,0.2193898558616638,0.0217600762844085,0.9976392388343812,0.515354335308075,0.2260834574699401,-0.2127066105604171,0.9999815821647644,0.5637062788009644,0.5281721949577332,0.0731929466128349,0.9990209341049194,0.53835529088974,0.5403388738632202,-0.073271170258522,0.9996898770332336,0.567047655582428,0.694610595703125,0.1938144862651825,0.8256580829620361,0.5496839284896851,0.7259361147880554,0.0346818529069423,0.9907156825065612,0.5487886667251587,0.846824586391449,0.313829243183136,0.8451672196388245,0.552681565284729,0.8862414956092834,0.1450615674257278,0.9672568440437316,0.5616359114646912,0.5050366520881653,0.0519432127475738,0.1147833690047264,0.5442184209823608,0.5548833012580872,-0.2312845289707183,0.990604281425476,-176.30463855673605,0.5510307848453522,0.5342555344104767,173.26255627988007,175.12581403664467,0.8856916473397582,0.0065766646426498,-0.0080387943976992,0.1379370190111717,-0.2588450862462879,167.85873102199727,2.6363405329997565,3,1761939697.4286077,sit_down,sit_down-person1-take1.csv
0.5661969184875488,0.1133428886532783,-0.239166647195816,0.9999873638153076,0.5463066697120667,0.2188882380723953,0.0157737638801336,0.9974908232688904,0.5143268704414368,0.2260991781949997,-0.2164464741945266,0.9999821782112122,0.5638623833656311,0.5274225473403931,0.0734267383813858,0.9990049004554749,0.5383241772651672,0.5401031374931335,-0.07350604981184,0.9996933937072754,0.5680488348007202,0.692663848400116,0.1946494281291961,0.8229001760482788,0.5490490198135376,0.7236045598983765,0.0356280729174613,0.9905948042869568,0.548798680305481,0.8420476317405701,0.3157573938369751,0.8445516228675842,0.5525690317153931,0.8839855790138245,0.1469924747943878,0.9684009552001952,0.5618116855621338,0.5046758055686951,0.051711481064558,0.1143803894519805,0.5428537130355835,0.5537847876548767,-0.2399248629808426,0.9909886717796326,-176.18130076902486,0.5510932803153992,0.5337628424167633,172.5682756074866,175.5497639397474,0.8852461333354779,0.0017662219526986,-0.013924263863621,-0.135950805311186,-0.1663327816373121,167.29321228747304,2.641281709127796,4,1761939697.4639914,sit_down,sit_down-person1-take1.csv
0.5660296678543091,0.1133714541792869,-0.2416004240512848,0.9999863505363464,0.5452290773391724,0.2181923538446426,0.0123473927378654,0.997417688369751,0.5140212774276733,0.2265230417251587,-0.2183078080415725,0.9999826550483704,0.5640274882316589,0.5268687009811401,0.0732908397912979,0.9990057349205016,0.5382170081138611,0.5401161909103394,-0.0733706653118133,0.9996975660324096,0.5686448812484741,0.692630410194397,0.1955510675907135,0.8228464126586914,0.5486705899238586,0.7236343622207642,0.0379470847547054,0.9905895590782166,0.5494665503501892,0.8405657410621643,0.3160605728626251,0.8454997539520264,0.5523335337638855,0.8838203549385071,0.1500055789947509,0.9693981409072876,0.5618827939033508,0.5047075152397156,0.0529296286404132,0.1145435497164726,0.5419007539749146,0.5537398457527161,-0.234508991241455,0.991324245929718,-176.04757394447583,0.55112224817276,0.5334924459457397,172.44550942382136,175.87344321185617,0.8867015530902718,0.0007964915040906,-0.0074347401405496,-0.0266634171092816,0.178433994845903,165.0538294073627,2.770707556449954,5,1761939697.5003607,sit_down,sit_down-person1-take1.csv
0.5657310485839844,0.1134723350405693,-0.2439314424991607,0.9999855756759644,0.5448459386825562,0.217566430568695,0.0136591121554374,0.9972716569900512,0.5139821171760559,0.2266661822795868,-0.2169274389743805,0.9999828338623048,0.564049243927002,0.5260100364685059,0.0732528865337371,0.9989808797836304,0.5380144119262695,0.5400675535202026,-0.0733359977602958,0.9996948838233948,0.5689256191253662,0.6919666528701782,0.1947509348392486,0.8218708634376526,0.5486475229263306,0.7226331830024719,0.0369707606732845,0.9904184937477112,0.5497157573699951,0.8394423723220825,0.3153809309005737,0.8448313474655151,0.5521460771560669,0.8832349181175232,0.145372062921524,0.969926655292511,0.5617949962615967,0.5046695470809937,0.0535904467105865,0.1148197650909423,0.5411959886550903,0.5535271167755127,-0.2319413125514984,0.99165016412735,-176.02274312810226,0.5510318279266357,0.5330387949943542,172.23992225380957,176.57372807887776,0.8857150123915581,-0.0022185238699713,-0.0111306428308189,-0.0739755072828994,-0.0906815529807909,163.5726092570956,2.7515276414036105,6,1761939697.5411177,sit_down,sit_down-person1-take1.csv
0.5657259821891785,0.1134978830814361,-0.2437014132738113,0.9999846816062928,0.5449790358543396,0.2175261378288269,0.0144877340644598,0.9970932602882384,0.5140233635902405,0.2269158959388733,-0.2147691249847412,0.9999829530715942,0.5643625855445862,0.5258103609085083,0.0732129514217376,0.9989612102508544,0.5379698872566223,0.540151059627533,-0.0732952207326889,0.9996933937072754,0.5698792934417725,0.6912100315093994,0.1941671669483184,0.8218567371368408,0.548650324344635,0.7221392393112183,0.0365736559033393,0.9902647733688354,0.5501067638397217,0.8377493023872375,0.3104742467403412,0.8448042273521423,0.5520814061164856,0.8819154500961304,0.1435367614030838,0.9702178239822388,0.5618244409561157,0.5043246746063232,0.0548244826495647,0.1147540286183357,0.5408718585968018,0.5531463623046875,-0.2303735315799713,0.9920109510421752,-176.01199913906387,0.5511662364006042,0.5329807102680206,172.08473438484828,176.71766798379525,0.8824932125142296,0.0026428795784519,-0.0011421224608431,0.0955899841513283,0.1964047037015345,163.12591935236728,2.651219853167155,7,1761939697.5919745,sit_down,sit_down-person1-take1.csv
0.5657008290290833,0.1140260770916938,-0.2449738681316375,0.9999843835830688,0.5439364314079285,0.2174351811408996,0.0145371351391077,0.9969512820243835,0.5147494673728943,0.2289160043001175,-0.215120792388916,0.9999829530715942,0.5636222958564758,0.5254788994789124,0.0731382220983505,0.9989337921142578,0.5382764935493469,0.5401923060417175,-0.0732202678918838,0.9996873736381532,0.5679146647453308,0.6918338537216187,0.1932375878095626,0.8214892745018005,0.5489662289619446,0.722760021686554,0.0365690216422081,0.9902085661888124,0.5496388673782349,0.8407458662986755,0.3070804178714752,0.8457047343254089,0.5521020889282227,0.8829928040504456,0.1426125317811966,0.9706906080245972,0.5607088804244995,0.5045335292816162,0.0521839372813701,0.1120245084166526,0.5409222841262817,0.553744912147522,-0.2153815329074859,0.992273449897766,-176.00867102812768,0.5509493947029114,0.5328356027603149,173.0412225164434,176.83192821275358,0.8833009864277555,-0.0056650783269488,-0.0037909931794823,-0.2170488092089693,-0.0692028344119795,158.52758223675036,2.853854792892349,8,1761939697.6302514,sit_down,sit_down-person1-take1.csv
0.565857470035553,0.1147466152906417,-0.2398252785205841,0.9999845623970032,0.5440727472305298,0.2193831950426101,0.0168235134333372,0.9969196319580078,0.5150396823883057,0.2308318614959716,-0.2137142121791839,0.999983251094818,0.5636109709739685,0.5260199904441833,0.073106862604618,0.9989434480667114,0.5391021966934204,0.5414746999740601,-0.0731903687119484,0.999692678451538,0.5671957731246948,0.6926451921463013,0.1930164247751236,0.8183732628822327,0.5493096709251404,0.7227805256843567,0.0386327542364597,0.990184247493744,0.5491396188735962,0.8413448929786682,0.307131290435791,0.8456057906150818,0.5521633625030518,0.883310079574585,0.1456743329763412,0.9717018604278564,0.5602731108665466,0.5068209171295166,0.0519149489700794,0.1118293479084968,0.5405600070953369,0.5547500848770142,-0.2239152938127517,0.9925616979599,-175.95969796038847,0.5513565838336945,0.5337473452091217,173.2505226434453,177.19401019991986,0.8811793305499519,0.010763624102703,0.0241009699314934,0.4342757801709116,0.7372952363331577,158.47909567517067,2.8676276818017667,9,1761939697.6680815,sit_down,sit_down-person1-take1.csv
0.5662607550621033,0.1160583272576332,-0.2417848408222198,0.9999845027923584,0.5441094636917114,0.2203959375619888,0.0159547962248325,0.996775448322296,0.5159386992454529,0.2326693832874298,-0.2142518311738968,0.9999833703041076,0.5635999441146851,0.5275269150733948,0.0736078098416328,0.9989049434661864,0.5389620065689087,0.5426867008209229,-0.0736956447362899,0.9996892213821412,0.5674452781677246,0.6951321363449097,0.1927884966135025,0.8172047138214111,0.5494717955589294,0.7255550026893616,0.035512626171112,0.990227460861206,0.5499605536460876,0.8430298566818237,0.3079957664012909,0.8451879620552063,0.5523855686187744,0.8874751329421997,0.1411333382129669,0.9724096655845642,0.5600051879882812,0.5072407126426697,0.0509550645947456,0.1122402474284172,0.5405843257904053,0.5556796789169312,-0.2362130135297775,0.992767333984375,-176.0592641190047,0.5512809753417969,0.5351068079471588,173.11785399479254,176.97388134410014,0.8826105005480761,-0.001639575222703,0.0294800407405684,-0.268964210048383,0.1166455116135759,156.45819405639287,2.9173079906218016,10,1761939697.7141962,sit_down,sit_down-person1-take1.csv
0.567440390586853,0.119566336274147,-0.2545222640037536,0.9999839663505554,0.5462926030158997,0.2208983898162841,0.0133798448368906,0.996564507484436,0.5166515111923218,0.2347269505262375,-0.2242953330278396,0.9999836683273317,0.5643362402915955,0.52754807472229,0.0747789740562439,0.9988252520561218,0.5389395952224731,0.5426759719848633,-0.0748731344938278,0.9996798038482666,0.5690206289291382,0.6959541440010071,0.191324383020401,0.8156567811965942,0.5495902299880981,0.7261592149734497,0.0249876733869314,0.990229308605194,0.5503525733947754,0.8470162153244019,0.3031817674636841,0.8452153205871582,0.5535483360290527,0.8933250308036804,0.1226748377084732,0.9731016159057616,0.5621658563613892,0.5051798224449158,0.0405653193593025,0.1128594279289245,0.5410394072532654,0.556502640247345,-0.2556726336479187,0.9930579662322998,-176.24547068936062,0.5516379177570343,0.5351120233535767,172.77010816365046,177.4996070287848,0.8843962718521209,0.0080350194552529,0.0001174023883,0.2177817853542434,-0.660973200007904,154.9893748042102,2.741426030854585,11,1761939697.7586195,sit_down,sit_down-person1-take1.csv
0.5680783987045288,0.1218203976750373,-0.2577596306800842,0.999984085559845,0.5497406125068665,0.2230007648468017,0.0132377613335847,0.9962641596794128,0.517673671245575,0.2385380417108535,-0.2239669114351272,0.9999839067459106,0.565177857875824,0.5285906791687012,0.0753471180796623,0.9987071752548218,0.5391417741775513,0.5433327555656433,-0.0754463076591491,0.9996702671051024,0.5708044767379761,0.6967189908027649,0.1914901584386825,0.8147508502006531,0.5506636500358582,0.7279373407363892,0.0244610123336315,0.9902647733688354,0.5514863729476929,0.8475106358528137,0.3037160038948059,0.8442204594612122,0.5553464293479919,0.8982150554656982,0.1227874979376792,0.973696231842041,0.5633090734481812,0.5021750926971436,0.0407621301710605,0.1124840155243873,0.5419784784317017,0.5580516457557678,-0.2477911710739135,0.993248701095581,-176.53996914578815,0.5521598160266876,0.5359617173671722,172.27517100004673,177.58804985448057,0.8866405440987687,0.0125425438043615,0.0204203098678706,0.1083272830842604,0.4879305436049254,154.14859071487854,2.5213179058800064,12,1761939697.8002298,sit_down,sit_down-person1-take1.csv
0.5686801671981812,0.1229855194687843,-0.2565694451332092,0.999984323978424,0.550633430480957,0.2242524027824401,0.014780918136239,0.996015191078186,0.5186159014701843,0.2402164191007614,-0.2199689596891403,0.9999841451644896,0.5654690861701965,0.5303153395652771,0.0752786621451377,0.9986143708229064,0.5394992828369141,0.5444706678390503,-0.0753777995705604,0.9996644258499146,0.571308970451355,0.6991291642189026,0.1905683130025863,0.8137190341949463,0.5516512393951416,0.7306371927261353,0.0252530332654714,0.9903595447540284,0.5521954894065857,0.8490371108055115,0.3025460839271545,0.8434131145477295,0.5564526319503784,0.9016812443733216,0.1225075870752334,0.9743468165397644,0.5634116530418396,0.5022494196891785,0.0438490360975265,0.1117566302418708,0.542833149433136,0.5597778558731079,-0.243671104311943,0.993439257144928,-176.65056419293407,0.5524841845035553,0.5373930037021637,172.13662237602392,177.71257338977875,0.8867488594485237,0.0090893907001603,0.0401072287546766,-0.0967635881718563,0.5516630320323741,153.49904659433398,2.4953762918323203,13,1761939697.8359165,sit_down,sit_down-person1-take1.csv
0.5689976215362549,0.1261234730482101,-0.2514716982841491,0.9999837279319764,0.5505237579345703,0.2247067838907241,0.0144343078136444,0.9959303736686708,0.5185583829879761,0.2445824146270752,-0.2199254333972931,0.9999843835830688,0.5654622316360474,0.5321816205978394,0.0751616358757019,0.9985761046409608,0.539472222328186,0.546806812286377,-0.0752557814121246,0.999660313129425,0.5712882280349731,0.7015299201011658,0.1924649178981781,0.8116962313652039,0.551531195640564,0.7342289686203003,0.0313222333788871,0.9902785420417786,0.5520750284194946,0.8490879535675049,0.308530181646347,0.8420689105987549,0.5555201768875122,0.9016897678375244,0.1375625133514404,0.9745265245437622,0.5631321668624878,0.5036771893501282,0.047245480120182,0.1089830547571182,0.5425025820732117,0.5606914758682251,-0.2355681359767913,0.9936160445213318,-176.63469570719053,0.5524672269821167,0.5394942164421082,171.75778537241249,176.53651961610623,0.8870158045291804,-0.0005726327823713,0.0709551394043813,-0.3262735895793044,1.041692618207502,148.12721912124357,2.354643298416565,14,1761939697.8655295,sit_down,sit_down-person1-take1.csv
0.5690644979476929,0.1277401447296142,-0.2413439303636551,0.999983251094818,0.5505093932151794,0.2282832264900207,0.0189134366810321,0.9958524703979492,0.5187000632286072,0.2453183084726333,-0.2109571248292923,0.9999842047691344,0.565072774887085,0.5371198058128357,0.0746582895517349,0.9985038638114928,0.5391678810119629,0.5500885844230652,-0.0747507959604263,0.999642550945282,0.5702313184738159,0.7083415985107422,0.1822928041219711,0.8031845092773438,0.5508238673210144,0.7386422157287598,0.0257483161985874,0.989546000957489,0.551880955696106,0.8540146946907043,0.29229936003685,0.8318478465080261,0.5525410175323486,0.9034957885742188,0.1255868822336197,0.9726558327674866,0.5619357824325562,0.5139992833137512,0.0504634752869606,0.1097935736179351,0.5423070192337036,0.5625906586647034,-0.2350321561098098,0.9937490224838256,-176.73249497251194,0.5521203279495239,0.5436041951179504,171.2808984163306,175.8958235570486,0.875823124476526,-0.009468279636366,0.1121779646127115,-0.2427982324726014,1.1251378637647969,151.82929073445925,2.105846217202464,15,1761939697.9021676,sit_down,sit_down-person1-take1.csv
0.5692189931869507,0.1295971274375915,-0.2396343648433685,0.999982476234436,0.5507510900497437,0.2302498519420623,0.0189552344381809,0.9957340359687804,0.5188044309616089,0.2459128648042678,-0.2080953866243362,0.9999842047691344,0.5650705099105835,0.5393014550209045,0.074068933725357,0.9984031319618224,0.5390961170196533,0.5519184470176697,-0.0741589665412902,0.999622106552124,0.5706216096878052,0.709132194519043,0.176075667142868,0.7963014841079712,0.5499740242958069,0.7393048405647278,0.0191274136304855,0.9888622164726256,0.5518547296524048,0.8535510301589966,0.2797499001026153,0.8220585584640503,0.5516465902328491,0.9029788374900818,0.1111668571829795,0.9702829718589784,0.5617183446884155,0.5172827243804932,0.0510479807853698,0.1102509647607803,0.5421571135520935,0.5637195110321045,-0.2346957921981811,0.9939013719558716,-176.7791921148139,0.5520833134651184,0.5456099510192871,171.0400428517545,176.1849059447143,0.8660914053498612,-0.0010683540122628,0.0578924007514606,0.2424481763653142,-1.5668514877509196,153.8819145208111,2.0244776575676133,16,1761939697.9368138,sit_down,sit_down-person1-take1.csv
0.5693587064743042,0.1319322437047958,-0.2322946339845657,0.9999812841415404,0.5506846308708191,0.2314480394124984,0.0183193422853946,0.9957516193389891,0.5187686681747437,0.2479069530963897,-0.2075222283601761,0.9999841451644896,0.5648175477981567,0.539754331111908,0.0731302350759506,0.998357892036438,0.5387575030326843,0.5530818104743958,-0.0732124969363212,0.9996098875999452,0.5703418254852295,0.7097663283348083,0.1782756000757217,0.7898592948913574,0.5487920045852661,0.7401034832000732,0.0197114087641239,0.9880822896957396,0.5513488054275513,0.855550229549408,0.2863727211952209,0.8143941164016724,0.5501667261123657,0.9033917784690856,0.115470066666603,0.968527615070343,0.5608217716217041,0.5171860456466675,0.050672672688961,0.1115642338991165,0.5413880944252014,0.5648260116577148,-0.2301497161388397,0.994013488292694,-176.81649535179506,0.5517875254154205,0.5464180707931519,171.02948552643574,175.37961553807077,0.8641969220006895,-0.0084624225805571,0.0231201058634143,-0.2115424638636807,-0.9948267137193518,152.7200523404332,1.9365024790052656,17,1761939697.971767,sit_down,sit_down-person1-take1.csv
0.5694153308868408,0.1337491869926452,-0.2311091870069503,0.9999793767929076,0.5503742694854736,0.2319997996091842,0.0181506685912609,0.995577037334442,0.5187414884567261,0.2479190379381179,-0.2085651159286499,0.999983847141266,0.564045786857605,0.5404841303825378,0.0730130299925804,0.998280704021454,0.5381234884262085,0.5537748336791992,-0.073093295097351,0.9995970726013184,0.5694646835327148,0.7109037637710571,0.1783473193645477,0.785452127456665,0.5473427772521973,0.7400761246681213,0.0198428444564342,0.9878743290901184,0.5504903197288513,0.8559574484825134,0.2934385538101196,0.8094968795776367,0.5466339588165283,0.9040178656578064,0.1212790757417678,0.9681054949760436,0.5590990781784058,0.5195169448852539,0.0514284893870353,0.1120003014802932,0.5404905676841736,0.5663632750511169,-0.2301864624023437,0.9940518140792848,-176.92026824432986,0.5510846376419067,0.5471294820308685,170.00819980208107,174.07676373498987,0.8657718512469726,-0.0183166825098009,0.0185387970401297,-0.2567939823319056,-0.1193851740740344,153.28611388431668,1.679106494388177,18,1761939698.0101411,sit_down,sit_down-person1-take1.csv
0.5693295001983643,0.1361602395772934,-0.23152956366539,0.9999778270721436,0.5493526458740234,0.2323643416166305,0.0182208810001611,0.99537593126297,0.5184957385063171,0.2476035505533218,-0.2068191319704055,0.9999833703041076,0.5607531666755676,0.5401409268379211,0.072951391339302,0.998231828212738,0.5350319147109985,0.5535261034965515,-0.073033832013607,0.9995808601379396,0.5666188597679138,0.7120431661605835,0.176908254623413,0.7855278849601746,0.5455294251441956,0.7413151860237122,0.0202805139124393,0.9878617525100708,0.546565055847168,0.859310507774353,0.2859852910041809,0.8100336194038391,0.5412454605102539,0.9068171381950378,0.1184823364019393,0.9682005047798156,0.5567582249641418,0.5187274813652039,0.0566876903176307,0.1106277033686637,0.5396161675453186,0.5669048428535461,-0.2241362780332565,0.9941279888153076,-177.39359164670927,0.5478925406932831,0.5468335151672363,170.4328361761625,174.046387379117,0.8640960725146113,-0.0692033049393181,-0.0064164357929993,-1.103200343222721,-0.5410188397715625,153.71675289915,1.1477798954191525,19,1761939698.0562675,sit_down,sit_down-person1-take1.csv
0.5692030191421509,0.1374273896217346,-0.2338896095752716,0.9999772310256958,0.5484738349914551,0.2323751449584961,0.0165194924920797,0.9953492879867554,0.5178913474082947,0.247473731637001,-0.2079615294933319,0.9999833106994628,0.5582910776138306,0.5399082899093628,0.0729670748114585,0.9982019066810608,0.5329173803329468,0.553320586681366,-0.073052242398262,0.9995696544647216,0.564701497554779,0.7131674289703369,0.1780430823564529,0.7832971811294556,0.5437808632850647,0.7420349717140198,0.0214112885296344,0.9876806139945984,0.5446656942367554,0.8607194423675537,0.2884510159492492,0.80804443359375,0.539583683013916,0.9074373841285706,0.1206758394837379,0.9679206013679504,0.5557174682617188,0.5182035565376282,0.0545626059174537,0.1120254248380661,0.5392835140228271,0.5669956803321838,-0.2248777449131012,0.994197964668274,-177.6806591925905,0.5456042289733887,0.5466144382953644,170.23371947522062,173.92508829070007,0.8662921291205379,-0.0483810193516516,-0.0046318699875492,0.4402387110131111,0.0377304857625618,153.7244277111764,1.0250997470502516,20,1761939698.1035652,sit_down,sit_down-person1-take1.csv
0.5691643953323364,0.1369496434926986,-0.2359638661146164,0.999976933002472,0.5477805137634277,0.2322290688753128,0.0161513090133667,0.9953808784484864,0.5168702006340027,0.2473776042461395,-0.2103365361690521,0.999983549118042,0.5571016669273376,0.5397772192955017,0.0735680386424064,0.998213231563568,0.5315788984298706,0.5529928803443909,-0.0736608132719993,0.9995684623718262,0.5637465119361877,0.7131195664405823,0.1834543049335479,0.7831186056137085,0.5424352288246155,0.7417410016059875,0.0219131428748369,0.9877302050590516,0.5418471097946167,0.8592538833618164,0.2939863801002502,0.8085806369781494,0.5393664240837097,0.9073219895362854,0.1217283755540847,0.9680697321891784,0.5547513365745544,0.5162554383277893,0.0523051433265209,0.1136658415198326,0.5377064347267151,0.5668889880180359,-0.2349789887666702,0.9943081140518188,-177.7557291044504,0.5443402826786041,0.5463850498199463,170.11868753193735,174.2719750530415,0.8688001394143977,-0.0341872005365353,-0.0062044960630429,0.3839141996886381,-0.0425363666428976,153.8914362842723,0.9623408837930422,21,1761939698.1405363,sit_down,sit_down-person1-take1.csv
0.5689881443977356,0.1357402950525283,-0.235569566488266,0.9999760985374452,0.5477672815322876,0.2315856367349624,0.0169265903532505,0.9952327609062196,0.5163258910179138,0.2462140023708343,-0.2089297473430633,0.9999834299087524,0.5573458671569824,0.5395979285240173,0.0735065191984176,0.9981775879859924,0.5316417217254639,0.552941620349884,-0.073598489165306,0.9995596408843994,0.5633887052536011,0.7127870917320251,0.18099907040596,0.7838962078094482,0.5426396131515503,0.7416088581085205,0.0216867476701736,0.9878224730491638,0.5416105389595032,0.8579472303390503,0.2876028716564178,0.809704601764679,0.5396980047225952,0.9051288962364196,0.1179653257131576,0.968286395072937,0.5550686120986938,0.5136194229125977,0.0521722510457038,0.1121789515018463,0.5371852517127991,0.5657855272293091,-0.2265247106552124,0.9944218993186952,-177.6810256849651,0.5444937944412231,0.5462697744369507,170.31045823484357,174.63857103675633,0.8655466799712902,0.0029684380863688,-0.002229065913041,0.7184740174295962,0.076872404209515,155.04940854880505,1.0069833825089791,22,1761939698.1922512,sit_down,sit_down-person1-take1.csv
0.5683233141899109,0.1354149132966995,-0.2341330498456955,0.9999757409095764,0.5472499132156372,0.2315027713775634,0.01690717600286,0.995210826396942,0.515620768070221,0.2461892515420913,-0.2064100950956344,0.999983251094818,0.5566518902778625,0.5390840172767639,0.0725124180316925,0.998168647289276,0.531478762626648,0.552873969078064,-0.072599820792675,0.9995529651641846,0.5625523328781128,0.7127326130867004,0.1779544204473495,0.7838279008865356,0.5425130128860474,0.7408011555671692,0.0220805909484624,0.9877850413322448,0.5420244336128235,0.8577362895011902,0.2825987339019775,0.8093403577804565,0.5394579172134399,0.9041514992713928,0.1185088753700256,0.9679819941520692,0.5552881956100464,0.5119396448135376,0.0537924468517303,0.1116764098405838,0.5367168188095093,0.5655179023742676,-0.2171982228755951,0.9945365786552428,-177.64519789322753,0.5440653264522552,0.5459789931774139,170.60588701166006,174.51333139024692,0.8634389946505652,-0.0066734188402352,-0.0045289384172063,-0.1501725947458679,-0.0358206748102846,155.09296617914276,1.0710187424320468,23,1761939698.2564564,sit_down,sit_down-person1-take1.csv
0.5683146715164185,0.135552778840065,-0.2311229407787323,0.9999743700027466,0.5463222861289978,0.2317650467157364,0.0147098135203123,0.9951989054679872,0.5147756338119507,0.2466042786836624,-0.2069185227155685,0.9999828338623048,0.5556197762489319,0.5391002297401428,0.0718352943658828,0.9981704354286194,0.5297125577926636,0.5528201460838318,-0.0719198584556579,0.9995476007461548,0.5627714395523071,0.7123932838439941,0.1784076392650604,0.7816669940948486,0.5411667823791504,0.740986704826355,0.0260324515402317,0.9873925447463988,0.5421684980392456,0.8586604595184326,0.2828262150287628,0.8062728047370911,0.5373923182487488,0.9052768349647522,0.1290348023176193,0.9670222401618958,0.5543164610862732,0.512690544128418,0.0550770238041877,0.1108161956071853,0.5364692807197571,0.5655730962753296,-0.2158857136964798,0.9943433403968812,-177.7380721280755,0.5426661670207977,0.5459601879119873,170.57970671808684,173.76591719294316,0.8654285472906691,-0.0226879970308627,-0.000304935804006,-0.2596835601936965,0.0684940948057751,154.80817261258278,0.994052703952812,24,1761939698.318126,sit_down,sit_down-person1-take1.csv
0.5682446956634521,0.1362712383270263,-0.2312078028917312,0.9999743103981018,0.5461403131484985,0.2322403341531753,0.0121073704212903,0.9953345656394958,0.5144529938697815,0.2482427805662155,-0.208843857049942,0.9999828338623048,0.5554784536361694,0.5391896367073059,0.0716658681631088,0.9982174038887024,0.5288525223731995,0.5528253316879272,-0.071753866970539,0.99955415725708,0.5626527667045593,0.7121132612228394,0.1787700951099395,0.7820537090301514,0.5397906303405762,0.7408466935157776,0.0270297676324844,0.9872651100158693,0.5421947240829468,0.8592996597290039,0.283814013004303,0.8072555065155029,0.5380741357803345,0.9049793481826782,0.1319347620010376,0.9669607877731324,0.5543497204780579,0.5129533410072327,0.0549620017409324,0.1135786175727844,0.5362802743911743,0.5659599900245667,-0.2178185880184173,0.994332492351532,-177.77708100048253,0.5421654880046844,0.5460074841976166,170.72894262839944,174.02014923985536,0.8659692988975964,-0.0067819380841347,0.0006406509368763,0.2154552187481738,0.0128084272027724,153.20571986001133,1.0703956526861191,25,1761939698.391951,sit_down,sit_down-person1-take1.csv
0.5682505369186401,0.1379459947347641,-0.2315999269485473,0.9999749064445496,0.5463287830352783,0.2373563796281814,0.0131042627617716,0.9954714775085448,0.5143265724182129,0.2494892925024032,-0.2066571712493896,0.9999831318855286,0.5553768277168274,0.5446264147758484,0.0715895816683769,0.9982261061668396,0.528988242149353,0.5561360716819763,-0.0716777294874191,0.9995557069778442,0.5623141527175903,0.7177981734275818,0.1790221482515335,0.7828627824783325,0.5400650501251221,0.7500600814819336,0.0269953701645135,0.9873148798942566,0.5427635312080383,0.86089026927948,0.2853091955184936,0.8071825504302979,0.5390772819519043,0.9096938371658324,0.1311501264572143,0.9670830965042114,0.5543999075889587,0.5163847804069519,0.0533020794391632,0.1179427951574325,0.536311149597168,0.5669571757316589,-0.2184390127658844,0.9943711161613464,-177.78831310522187,0.5421825349330902,0.5503812432289124,170.49021666587367,173.0486540275207,0.8675961811730277,0.0002341981742368,0.0600886186238318,0.0963907551434614,0.8167222365803415,159.23691260219056,1.1542972055967375,26,1761939698.4647398,sit_down,sit_down-person1-take1.csv
0.5687444806098938,0.1391170024871826,-0.2437687218189239,0.9999753832817078,0.5465660691261292,0.2423409819602966,0.0135700237005949,0.995491862297058,0.5150083303451538,0.2523541450500488,-0.2156000584363937,0.9999831914901732,0.5550974607467651,0.5495996475219727,0.0725312530994415,0.998193085193634,0.5293334722518921,0.5596531629562378,-0.072624884545803,0.999546468257904,0.5620249509811401,0.7202740907669067,0.1859278082847595,0.7799039483070374,0.5421050786972046,0.7533770203590393,0.027310237288475,0.9873039722442628,0.5428782105445862,0.8618153929710388,0.3046247363090515,0.8061227798461914,0.5406173467636108,0.9123159646987916,0.1361055970191955,0.9670781493186952,0.55449378490448,0.5252006649971008,0.0413098596036434,0.1157410591840744,0.5385898351669312,0.5722304582595825,-0.2330382615327835,0.9942906498908995,-177.87004601565624,0.5422154664993286,0.5546264052391052,169.87650025314454,171.9386810975385,0.880668104796131,0.0005858215285435,0.0755174315039443,0.0062550481018825,0.2744640409632169,162.39594428490057,1.107579489236642,27,1761939698.520954,sit_down,sit_down-person1-take1.csv
0.5703467130661011,0.1423856168985366,-0.2486097812652588,0.9999753832817078,0.5469918251037598,0.2441332638263702,0.0116327656432986,0.9954802393913268,0.5162869095802307,0.2557383477687835,-0.2218446731567382,0.9999828338623048,0.5551271438598633,0.5513787865638733,0.0729181393980979,0.9981264472007751,0.5311275124549866,0.5614693760871887,-0.0730078965425491,0.9995301961898804,0.5620962381362915,0.720655083656311,0.189793586730957,0.7765986323356628,0.5457797050476074,0.7536951899528503,0.029826745390892,0.9873217940330504,0.5432895421981812,0.8645354509353638,0.3109749257564544,0.8048556447029114,0.5425137281417847,0.9136836528778076,0.1415190994739532,0.9673528671264648,0.5547612905502319,0.5255427360534668,0.0341932475566864,0.1125304624438285,0.5425487756729126,0.5748506188392639,-0.2337930500507354,0.9940096735954284,-177.85341322171996,0.5431273281574249,0.556424081325531,170.58384498116033,171.68910352137152,0.885346735527421,0.0290907949981745,0.0573506145795302,0.9093839315106412,-0.57956943602697,159.29565146279623,1.0408272771831346,28,1761939698.5522995,sit_down,sit_down-person1-take1.csv
0.5716484785079956,0.1431862115859985,-0.2627955973148346,0.9999758005142212,0.5490065813064575,0.2434397786855697,0.007446969859302,0.9954604506492616,0.5171387195587158,0.2567854821681976,-0.2290734946727752,0.99998277425766,0.5557711124420166,0.5504403710365295,0.0732702314853668,0.9981113076210022,0.5312155485153198,0.5610503554344177,-0.0733683928847312,0.999520778656006,0.5645599961280823,0.7200198769569397,0.1890200227499008,0.7817651033401489,0.5467580556869507,0.7527437806129456,0.0252185128629207,0.987524390220642,0.5477923154830933,0.8659324049949646,0.3075550198554992,0.8086344599723816,0.5446507930755615,0.9135431051254272,0.1348728239536285,0.967360496520996,0.556670606136322,0.5251480340957642,0.0230408608913421,0.1118692457675933,0.5440500378608704,0.5743708610534668,-0.2351064980030059,0.9938951134681702,-178.0472321101786,0.5434933304786682,0.5557453632354736,171.06251629863354,171.47697127325793,0.89008479946263,0.0113847893800059,-0.02111205873628,-0.5507591974807695,-2.440643017941236,157.27691653701828,1.1040643503084735,29,1761939698.584448,sit_down,sit_down-person1-take1.csv
0.5728071928024292,0.1434413939714431,-0.2574264407157898,0.9999755024909972,0.5492398738861084,0.243055984377861,0.0062818871811032,0.9953567981719972,0.5172110795974731,0.2565515637397766,-0.2296220064163208,0.99998277425766,0.5558429956436157,0.5500510931015015,0.0733196213841438,0.9980639219284058,0.5312682390213013,0.5607324242591858,-0.073418989777565,0.9995130896568298,0.5647344589233398,0.7199568748474121,0.1885236501693725,0.7807198166847229,0.5475355982780457,0.7524266839027405,0.0253603551536798,0.9873839616775512,0.5497050285339355,0.8655657172203064,0.305719792842865,0.807453453540802,0.5482951402664185,0.9131423234939576,0.134405568242073,0.9673169255256652,0.556693434715271,0.524506688117981,0.0277653392404317,0.1076518520712852,0.5459656119346619,0.5741879940032959,-0.223902627825737,0.9933901429176332,-178.0639024004417,0.5435556173324585,0.5553917586803436,171.50163909379037,171.97956967099648,0.8859730726901676,0.0017216836583388,-0.0097740557924357,-0.2670998805913431,0.3133960570931895,157.151500055811,1.4476207072809115,30,1761939698.6206255,sit_down,sit_down-person1-take1.csv
0.5727206468582153,0.1433478146791458,-0.2572678923606872,0.999975323677063,0.5486534237861633,0.2426716685295105,0.0065660066902637,0.9953808784484864,0.5172016024589539,0.255784124135971,-0.2274337261915207,0.9999826550483704,0.5558430552482605,0.5486992001533508,0.0731537342071533,0.9980879426002502,0.5313049554824829,0.5582760572433472,-0.0732607766985893,0.9995110630989076,0.5645855665206909,0.7193700075149536,0.1823025643825531,0.7818790674209595,0.547921895980835,0.7507728338241577,0.0229431185871362,0.9873180389404296,0.549848198890686,0.8676455020904541,0.2966356873512268,0.8100398778915405,0.5482480525970459,0.912834107875824,0.1299896389245987,0.9673640131950378,0.556700587272644,0.5244238376617432,0.0308150500059127,0.1073394119739532,0.5461832284927368,0.573417603969574,-0.2234427630901336,0.9931599497795104,-177.9959546775629,0.5435740053653717,0.553487628698349,171.39263065932215,171.8631388734072,0.8830934789984244,0.0005106330857135,-0.0528774215760272,-0.0336307039352004,-1.1969744006116387,157.36844776358473,1.477324134451934,31,1761939698.656636,sit_down,sit_down-person1-take1.csv
0.5730164051055908,0.1434359699487686,-0.2590710520744324,0.9999741315841676,0.5481377243995667,0.2424010187387466,0.0016877159941941,0.9954119324684144,0.5170642733573914,0.254610925912857,-0.2330130338668823,0.999982476234436,0.5546102523803711,0.5462928414344788,0.073408119380474,0.9981110095977784,0.5308955907821655,0.555126428604126,-0.0735267475247383,0.9995025396347046,0.5643131136894226,0.7189881205558777,0.1813852488994598,0.7840368151664734,0.5480169057846069,0.7483733892440796,0.0216413363814353,0.9873727560043336,0.5501796007156372,0.867783784866333,0.2954199016094208,0.8138905763626099,0.5485984086990356,0.9100470542907716,0.1296030580997467,0.9677276611328124,0.5566670894622803,0.5242233872413635,0.0208161808550357,0.1061564981937408,0.548011839389801,0.5711516737937927,-0.2235075533390045,0.992709219455719,-178.07598733946182,0.5427529215812683,0.5507096350193024,171.0903982185701,171.3032020965339,0.8824329709901404,-0.0205431547175213,-0.0695041785720677,-0.5267564998911922,-0.4159941385193391,158.54830238115676,1.4979954505465587,32,1761939698.6966047,sit_down,sit_down-person1-take1.csv
0.5731918811798096,0.144896924495697,-0.2587804198265075,0.9999719262123108,0.5474187135696411,0.2422107458114624,0.0018107465002685,0.9953201413154602,0.5168749690055847,0.2536026239395141,-0.2304029762744903,0.999981701374054,0.5522300004959106,0.5431252717971802,0.0736073404550552,0.9980533719062804,0.5305629372596741,0.5526413917541504,-0.0737287029623985,0.9994773268699646,0.5629289746284485,0.7168562412261963,0.1732107847929,0.7831344604492188,0.5485743880271912,0.7443102598190308,0.0131783653050661,0.987317144870758,0.5502278208732605,0.8677085041999817,0.2772925198078155,0.8153063654899597,0.5496140718460083,0.9074251055717468,0.1069709807634353,0.9681513905525208,0.5566650032997131,0.5239676833152771,0.0229063052684068,0.1051146611571312,0.5489485263824463,0.5682740807533264,-0.2235959321260452,0.9923775792121888,-178.23387331388955,0.5413964688777924,0.5478833317756653,171.49779961936937,172.83320186850216,0.8691500864645779,-0.0359875200040482,-0.0749835539840473,-0.4097484588105788,-0.1453711815701388,159.54603025667586,1.5860850399821091,33,1761939698.734297,sit_down,sit_down-person1-take1.csv
0.5742402076721191,0.1447644531726837,-0.283133327960968,0.999970555305481,0.5471640825271606,0.2417636066675186,0.0017130773048847,0.9951965808868408,0.517749011516571,0.2506560087203979,-0.2613646388053894,0.9999815821647644,0.5518062114715576,0.5427606701850891,0.0852106660604476,0.9979469776153564,0.5309818387031555,0.5516431927680969,-0.0853339582681655,0.99945467710495,0.562217116355896,0.7167124152183533,0.2222156226634979,0.7830061316490173,0.5496894717216492,0.7433103919029236,0.0254365764558315,0.98797345161438,0.5504909753799438,0.8668921589851379,0.3621810376644134,0.8191140294075012,0.5503013134002686,0.9099849462509156,0.1507683396339416,0.9700923562049866,0.5563274025917053,0.5207188725471497,-0.0143171939998865,0.1004879996180534,0.553458571434021,0.5626786351203918,-0.2540943026542663,0.99088317155838,-178.29919352731952,0.5413940250873566,0.547201931476593,172.36380715587393,171.65740779223515,0.9191281287881324,-6.169235676840389e-05,-0.0172016346969852,0.906930866066173,1.4586777684424157,163.1795295737897,1.6079952197104257,34,1761939698.7739096,sit_down,sit_down-person1-take1.csv
0.5793228149414062,0.1440204232931137,-0.2765858769416809,0.9999687075614928,0.5526925921440125,0.2413178384304046,0.0018669532146304,0.9950478076934814,0.5209563374519348,0.2490968108177185,-0.256018728017807,0.99998140335083,0.5549696087837219,0.5408427119255066,0.0849063321948051,0.9978087544441224,0.5373659133911133,0.5488942265510559,-0.0850167721509933,0.999410092830658,0.5665175914764404,0.7147074341773987,0.2093574255704879,0.7762209177017212,0.5611816644668579,0.7405969500541687,0.0205577481538057,0.9880107045173644,0.5573979616165161,0.8642712235450745,0.3361991941928863,0.8157795071601868,0.5600348711013794,0.9099627733230592,0.1415085196495056,0.9700330495834352,0.5623461604118347,0.5203241109848022,-0.0183972455561161,0.0959588587284088,0.5626219511032104,0.5594348907470703,-0.2555268108844757,0.9897881746292114,-178.21412259055424,0.5461677610874176,0.5448684692382812,172.55762260579422,170.65553850542716,0.9045967404835076,0.1154773370859743,-0.0564467757470197,2.794905174767797,-0.949345414569113,166.22758521558694,1.8198112961159976,35,1761939698.8152487,sit_down,sit_down-person1-take1.csv
0.5838136672973633,0.1441873162984848,-0.2790621817111969,0.999970555305481,0.5611706972122192,0.242280051112175,0.0021128803491592,0.995280385017395,0.5236276984214783,0.2493684291839599,-0.2504896521568298,0.9999819397926332,0.5573897957801819,0.5408275127410889,0.0836406722664833,0.9978625774383544,0.5383008122444153,0.5489901900291443,-0.0837539210915565,0.9994108080863952,0.5747007727622986,0.7099564671516418,0.2047542631626129,0.7753352522850037,0.5684340000152588,0.7399666905403137,0.0171918105334043,0.9881770014762878,0.5633001327514648,0.8614451289176941,0.335320770740509,0.8165169358253479,0.5682529211044312,0.9090003371238708,0.1280485540628433,0.970159649848938,0.573560893535614,0.5203072428703308,-0.007327108643949,0.0989602133631706,0.5658143758773804,0.5547049045562744,-0.2550041675567627,0.989772379398346,-178.95680216689613,0.5478453040122986,0.5449088513851166,170.46282457741444,170.35724134875323,0.9001784078952099,0.0533953966639853,0.0012853446051573,-1.976038756049829,1.8375860436931224,169.30802385943278,0.940303581652986,36,1761939698.846666,sit_down,sit_down-person1-take1.csv
0.5859601497650146,0.153286874294281,-0.26821368932724,0.9999682307243348,0.5589667558670044,0.251593679189682,-0.0070360405370593,0.9955459237098694,0.5238800048828125,0.2541141808032989,-0.2553665041923523,0.9999817609786988,0.5526313781738281,0.5455440282821655,0.0829757526516914,0.9978624582290648,0.5374736785888672,0.5548672080039978,-0.0830826312303543,0.9994011521339417,0.5740544199943542,0.7104538679122925,0.2019474506378173,0.766089141368866,0.5698078274726868,0.7447963356971741,0.0176318772137165,0.9877397418022156,0.5631383657455444,0.861415684223175,0.3262021243572235,0.8098571300506592,0.5658702850341797,0.9104682207107544,0.1280236542224884,0.9695435166358948,0.5708848237991333,0.5294334292411804,-0.017892736941576,0.1030294820666313,0.5665361881256104,0.5549092888832092,-0.2578411400318146,0.9883674383163452,-179.30074538475478,0.5450525283813477,0.5502056181430817,170.08736621479412,168.74308664866373,0.8846424336738301,-0.0959852339864139,0.1820451994067373,-5.134080456414794,6.2125567002932405,175.89114258118332,0.4885900018459209,37,1761939698.875762,sit_down,sit_down-person1-take1.csv
0.5853414535522461,0.1645701974630355,-0.271903783082962,0.9999677538871764,0.5577312707901001,0.2642290890216827,-0.0071410266682505,0.9957621693611144,0.523478627204895,0.263537734746933,-0.2590492367744446,0.9999812841415404,0.5495883226394653,0.5539993643760681,0.0829023495316505,0.9978947043418884,0.5284370183944702,0.5614923238754272,-0.0830059200525283,0.9993970990180968,0.5741757154464722,0.7121965289115906,0.1916662156581878,0.7662981152534485,0.5674909353256226,0.746026337146759,0.0041938023641705,0.9876806139945984,0.5625868439674377,0.8623090386390686,0.3022224605083465,0.8100330233573914,0.5635637044906616,0.9113560914993286,0.1075981631875038,0.9696740508079528,0.5694361925125122,0.5306998491287231,-0.018048632889986,0.1123141348361969,0.5642058253288269,0.5603200793266296,-0.2708262503147125,0.9874796271324158,179.68954880271508,0.5390126705169678,0.5577458441257477,168.97861729512965,166.26522492742345,0.8657426820519328,-0.1948557407564091,0.2432600819943234,-3.1897250346315875,1.974892714324724,-178.843700804027,0.2052156182903565,38,1761939698.9067583,sit_down,sit_down-person1-take1.csv
0.5846158266067505,0.1760637760162353,-0.2573762834072113,0.9999688267707824,0.5576119422912598,0.270818293094635,-0.006632313132286,0.995977818965912,0.5234365463256836,0.2755947709083557,-0.2473208159208297,0.9999807476997375,0.5455387830734253,0.5592864751815796,0.0806529968976974,0.9979769587516784,0.5224513411521912,0.5686525106430054,-0.080746442079544,0.9994137287139891,0.5736514329910278,0.7134272456169128,0.1821185201406479,0.7772522568702698,0.5680769085884094,0.7465856075286865,0.0068419254384934,0.988228678703308,0.5620476007461548,0.8622826337814331,0.2859596908092499,0.8179663419723511,0.5628751516342163,0.9110724329948424,0.1059347838163375,0.9709119200706482,0.5684651732444763,0.5365803837776184,0.004644809756428,0.1195494756102562,0.5640159249305725,0.5670214891433716,-0.2269458770751953,0.9870133996009828,178.71361977053553,0.5339950621128082,0.5639694929122925,167.5764943276677,164.70735514976914,0.8431873731724485,-0.1460054738068974,0.1810995830471552,1.4214752920224298,-1.8087846579120697,172.0436720142324,0.7769326247010151,39,1761939698.9411244,sit_down,sit_down-person1-take1.csv
0.584156334400177,0.1850918233394622,-0.2623038291931152,0.9999708533287048,0.5574640035629272,0.2802735567092895,-0.0067602107301354,0.9962636828422546,0.5222999453544617,0.2852922976016998,-0.2475596964359283,0.9999808073043824,0.5421000123023987,0.5655832290649414,0.0795245021581649,0.9981171488761902,0.5177770256996155,0.5752476453781128,-0.0796214416623115,0.9994438886642456,0.573165774345398,0.7203212976455688,0.1814091205596923,0.790273129940033,0.5672783255577087,0.7525153160095215,0.0072413058951497,0.989004611968994,0.5616410970687866,0.8710201978683472,0.2882378697395324,0.8291397094726562,0.5623919367790222,0.912068784236908,0.1077671200037002,0.9726511240005492,0.5680335760116577,0.5460218191146851,0.0044840178452432,0.1288691461086273,0.5635030269622803,0.5753098130226135,-0.2284377068281173,0.98686283826828,178.02007346046148,0.5299385190010071,0.5704154372215271,166.75778777499949,163.29842716545184,0.843473446654319,-0.1037310088767497,0.1648310613081012,1.08101227475478,-0.4160069612020253,171.87739633611957,1.2116511837808397,40,1761939698.9802308,sit_down,sit_down-person1-take1.csv
0.5838509202003479,0.1955522745847702,-0.2690563797950744,0.999971091747284,0.5561599135398865,0.2898438274860382,-0.0121941762045025,0.9964660406112672,0.5218697786331177,0.29381063580513,-0.2617228627204895,0.9999799132347108,0.5384126305580139,0.570343017578125,0.0806416645646095,0.9982179403305054,0.5139439702033997,0.5796489119529724,-0.080743558704853,0.9994573593139648,0.574944257736206,0.7246419191360474,0.180812656879425,0.7996871471405029,0.5692660808563232,0.7530901432037354,0.0027839003596454,0.9896240234375,0.5615087151527405,0.8740866780281067,0.2885118126869201,0.8365625143051147,0.5617293119430542,0.9135926961898804,0.1081581264734268,0.9741050004959106,0.5675697922706604,0.5556092858314514,0.0008256070432253,0.1315770745277404,0.5633970499038696,0.5837160348892212,-0.2312865257263183,0.9858993291854858,177.40445667161592,0.5261783003807068,0.5749959647655487,164.34308458966393,160.2423369529964,0.8405678090636074,-0.107030640290455,0.1303798649519867,-0.0939205132980197,-0.9806168143682716,173.401147026458,1.2240254663704926,41,1761939699.015363,sit_down,sit_down-person1-take1.csv
0.5836364030838013,0.2096591740846634,-0.2725449204444885,0.9999722838401794,0.5533568859100342,0.3000631332397461,-0.013915772549808,0.996687114238739,0.5217590928077698,0.3036095798015594,-0.264915257692337,0.9999796152114868,0.5330823659896851,0.5774636268615723,0.0817217975854873,0.9982955455780028,0.5089865922927856,0.5890876054763794,-0.0818220227956771,0.9994644522666932,0.577336847782135,0.724554717540741,0.1797377467155456,0.8104252815246582,0.5700914859771729,0.7541881799697876,-0.0063034729100763,0.990327775478363,0.5607151389122009,0.8775539994239807,0.2860327959060669,0.8440299034118652,0.5609520673751831,0.918067753314972,0.0989076271653175,0.9755694270133972,0.5670089721679688,0.5651020407676697,0.001264828024432,0.1369857341051101,0.5647428035736084,0.5949426293373108,-0.2331103980541229,0.9853865504264832,176.63997883996902,0.5210344791412354,0.5832756161689758,160.80883088315372,157.2566526022529,0.8308500502576499,-0.1541989779508987,0.2482033734767537,-1.41398954595683,3.5320559847011728,173.59608510700392,1.2827254948510145,42,1761939699.0487213,sit_down,sit_down-person1-take1.csv
0.583479642868042,0.2244471907615661,-0.2582831978797912,0.999973714351654,0.5484139919281006,0.3134460747241974,-0.0142560433596372,0.9969380497932434,0.5213114023208618,0.316252201795578,-0.2616029381752014,0.9999789595603944,0.5263049602508545,0.5867595076560974,0.0803286284208297,0.998394250869751,0.5047059059143066,0.5996463894844055,-0.080423429608345,0.999479591846466,0.5768738389015198,0.7253282070159912,0.1783037185668945,0.8214549422264099,0.570791482925415,0.755515456199646,-0.0017978379037231,0.9909691214561462,0.5593540668487549,0.8774492144584656,0.286670446395874,0.8524472713470459,0.5606406927108765,0.919270634651184,0.1044659987092018,0.9768314957618712,0.5655879378318787,0.5778475403785706,0.0024654967710375,0.1434903442859649,0.564656138420105,0.6011316776275635,-0.1960589438676834,0.983866274356842,176.02194480901366,0.5155054330825806,0.5932029485702515,158.04310595595317,155.51618997964584,0.8128289495809626,-0.1556012560555026,0.2793800909835076,-0.0394636311762932,0.8773912085873912,174.0888161636498,1.3990221689570266,43,1761939699.0842547,sit_down,sit_down-person1-take1.csv
0.5831888318061829,0.2395981699228286,-0.2504563927650451,0.9999752044677734,0.5468567609786987,0.326464980840683,-0.0141053171828389,0.9971654415130616,0.5204741358757019,0.3291768729686737,-0.2504692375659942,0.9999784231185912,0.5209152698516846,0.590944230556488,0.0792771950364112,0.9984633922576904,0.5008991360664368,0.6077112555503845,-0.0793635472655296,0.999480128288269,0.5768518447875977,0.7250816226005554,0.1647961437702179,0.8287212252616882,0.5754340887069702,0.7551032900810242,-0.0119143361225724,0.9914292097091676,0.5578681230545044,0.8726763129234314,0.264498770236969,0.8550882339477539,0.5604153275489807,0.922328770160675,0.0921970084309578,0.9770193696022034,0.5650091171264648,0.5864380598068237,0.0150787904858589,0.146581694483757,0.5647680759429932,0.6104099750518799,-0.1825926899909973,0.9830663800239564,175.2085537559414,0.5109072029590607,0.5993277430534363,154.4953301545396,150.08421760985348,0.7856777570183394,-0.1140524006363061,0.1519166060520044,1.0305588404572272,-3.1615460860795825,174.13113099399155,1.3385438350016905,44,1761939699.1245716,sit_down,sit_down-person1-take1.csv
0.5828069448471069,0.254108190536499,-0.2339443266391754,0.9999757409095764,0.5459743738174438,0.3355366289615631,-0.0004523605457507,0.9973584413528442,0.5198003649711609,0.341183990240097,-0.2355964928865432,0.9999775886535645,0.5177772641181946,0.591543436050415,0.0779459774494171,0.998497486114502,0.4983709752559662,0.6113696694374084,-0.0780127793550491,0.9994637966156006,0.5765728950500488,0.7249816656112671,0.1566434949636459,0.82861328125,0.5760748982429504,0.7545262575149536,-0.0176907144486904,0.9914499521255492,0.5563082098960876,0.8718337416648865,0.2510966956615448,0.8477147817611694,0.5593552589416504,0.9221474528312684,0.0837714746594429,0.9753822684288024,0.5649505853652954,0.5890906453132629,0.0329624488949775,0.1452957391738891,0.5647925138473511,0.6211496591567993,-0.1689057797193527,0.9819196462631226,174.61223172646172,0.5080741196870804,0.6014565527439117,152.50627160834694,147.5264938451242,0.7583048064294666,-0.0868442545074509,0.0652557206440155,0.834028138339401,-2.6564697418695555,167.8243859719449,1.3417526652174463,45,1761939699.157194,sit_down,sit_down-person1-take1.csv
0.5822082757949829,0.2682014405727386,-0.2114694118499755,0.9999768137931824,0.5450419187545776,0.3518135547637939,0.0024941805750131,0.9975892305374146,0.5194793343544006,0.3575847148895263,-0.2209287583827972,0.999976933002472,0.5154439806938171,0.600977897644043,0.0764151439070701,0.9985758662223816,0.4969044327735901,0.6226271390914917,-0.0764519125223159,0.999469518661499,0.5767241716384888,0.7255710959434509,0.1514605283737182,0.8270620703697205,0.576108455657959,0.7535179257392883,-0.0238905176520347,0.9916819334030152,0.5564223527908325,0.8751903176307678,0.2393209040164947,0.8437227010726929,0.5592970848083496,0.9224462509155272,0.076133981347084,0.9752357006072998,0.5654700398445129,0.6092666387557983,0.0342218652367591,0.1536279469728469,0.5664619207382202,0.6375319361686707,-0.1485077291727066,0.9794491529464722,174.20643856063276,0.5061742067337036,0.6118025183677673,150.46942976097577,144.76991460256892,0.7311475727803335,-0.0608046369490904,0.3311113188255402,0.8333694915417946,8.508417767024492,167.27785451086547,1.4057004710773378,46,1761939699.1884403,sit_down,sit_down-person1-take1.csv
0.582013726234436,0.2816831469535827,-0.1982554048299789,0.999975562095642,0.5437932014465332,0.3641428351402282,0.0015594547148793,0.9977872967720032,0.5188726186752319,0.3680469095706939,-0.2246138602495193,0.9999752044677734,0.5130120515823364,0.611602246761322,0.0756455138325691,0.9986084699630736,0.4954563081264496,0.6305856704711914,-0.0756628140807151,0.9994521141052246,0.5766397714614868,0.7312866449356079,0.1490940749645233,0.8178166151046753,0.5792009234428406,0.7534348368644714,-0.0275046229362487,0.9914536476135254,0.5559008121490479,0.8768517971038818,0.2418517172336578,0.8319258093833923,0.5590295195579529,0.9270026087760924,0.0778796225786209,0.9735375642776488,0.5661587715148926,0.6231641173362732,0.028396651148796,0.1597537398338318,0.5680423974990845,0.64702308177948,-0.1556804329156875,0.976849377155304,173.9339494746324,0.504234179854393,0.6210939586162567,148.75511071198144,140.78449256083704,0.7166282334470188,-0.0521793881136818,0.24990461319448,0.2319865829486852,-2.184153351556829,171.0963751084182,1.3247208466442375,47,1761939699.2256205,sit_down,sit_down-person1-take1.csv
0.5812481045722961,0.294769823551178,-0.1767703592777252,0.9999745488166808,0.5419414043426514,0.3761608004570007,0.0178404562175273,0.9979658722877502,0.5185760259628296,0.3776102364063263,-0.2066282331943512,0.9999735355377196,0.5085439085960388,0.6231517195701599,0.0756637901067733,0.9986405372619628,0.4942505955696106,0.6416432857513428,-0.0756798908114433,0.9994322657585144,0.5767244100570679,0.730505108833313,0.1472583413124084,0.8015481233596802,0.5846920013427734,0.7508396506309509,-0.0417511612176895,0.9915525317192078,0.5556358098983765,0.8778887391090393,0.2314878404140472,0.820227324962616,0.5589725971221924,0.9262914657592772,0.0661347135901451,0.9726915955543518,0.566556453704834,0.6235582232475281,0.0312533974647522,0.1602019518613815,0.5677692890167236,0.6493850946426392,-0.1339642107486724,0.971207320690155,173.55544714525706,0.5013972520828247,0.6323975026607513,144.8559105533116,132.62388502659704,0.6895031786897101,-0.0852945972875329,0.3398504702374125,-0.9956363566544364,2.7042971382799053,176.4502914872951,1.2331322525018036,48,1761939699.2588806,sit_down,sit_down-person1-take1.csv
0.5791446566581726,0.3069609105587005,-0.1749460995197296,0.9999744296073914,0.5400978326797485,0.3883029222488403,0.0301280878484249,0.998124659061432,0.5176482796669006,0.3923453390598297,-0.2036390006542205,0.9999719262123108,0.5052953958511353,0.6326215267181396,0.076224535703659,0.9986728429794312,0.4916343092918396,0.6506792306900024,-0.076228842139244,0.9994118213653564,0.5792949199676514,0.7297406792640686,0.1487684547901153,0.7833163142204285,0.5868077874183655,0.7490457892417908,-0.0563662759959697,0.991551399230957,0.5531071424484253,0.8774744868278503,0.2326143085956573,0.803525984287262,0.5589383840560913,0.9259976744651794,0.0518175885081291,0.971095860004425,0.567581295967102,0.6288368105888367,0.0424696914851665,0.1615200042724609,0.5675064325332642,0.6581699252128601,-0.1369782239198684,0.9675840735435486,173.10126142953897,0.4984648525714874,0.641650378704071,139.24714741837616,125.73085622995008,0.6744508059485504,-0.0925676794436625,0.2920875072439771,-0.2295909322700022,-1.507743617662646,169.79232491571682,1.124996831472274,49,1761939699.290559,sit_down,sit_down-person1-take1.csv
0.5761157274246216,0.3177473545074463,-0.1851735562086105,0.9999757409095764,0.5368533730506897,0.3945250511169433,0.0342011973261833,0.9982600808143616,0.5160247087478638,0.4034945964813232,-0.2011784613132476,0.9999711513519288,0.5042133331298828,0.6371980905532837,0.0765575096011161,0.9987155795097352,0.4891353249549866,0.658626914024353,-0.0765489041805267,0.9994075894355774,0.5816724896430969,0.7244094014167786,0.1517654508352279,0.7756040692329407,0.5901527404785156,0.7486134767532349,-0.0710317268967628,0.9918577075004578,0.5531623959541321,0.871367871761322,0.2361238896846771,0.7953234314918518,0.5578547716140747,0.9256651401519777,0.043772354722023,0.970169484615326,0.5674751996994019,0.632664680480957,0.0364504270255565,0.1594276428222656,0.5672834515571594,0.6640300154685974,-0.1340032219886779,0.966731607913971,173.1807394237179,0.4966743290424347,0.6479125022888184,135.3021347449069,117.40243107590722,0.6658990669894794,-0.0440076881607013,0.1539111759604341,1.193512913286041,-3.396113371117184,156.70161192874514,0.9789403466145596,50,1761939699.3312457,sit_down,sit_down-person1-take1.csv
0.5721489787101746,0.3262914717197418,-0.1945577710866928,0.9999775290489196,0.5345281362533569,0.4021587669849396,0.0283828880637884,0.9983991980552672,0.5128297209739685,0.4157524108886719,-0.2090955078601837,0.9999710321426392,0.5024811029434204,0.6411734223365784,0.0778653770685195,0.99878990650177,0.4853805005550384,0.6638263463973999,-0.0778586491942405,0.9994246363639832,0.5849315524101257,0.7228545546531677,0.1533499658107757,0.7803196907043457,0.5887807011604309,0.7488222122192383,-0.073032796382904,0.9923900961875916,0.5514365434646606,0.8660838603973389,0.2364517003297805,0.7982903718948364,0.5563565492630005,0.9255152940750122,0.0493608675897121,0.97119802236557,0.5676699876785278,0.635333776473999,0.0336647257208824,0.166663572192192,0.5663785338401794,0.6714701652526855,-0.1435455381870269,0.96745765209198,173.03600790215623,0.4939308017492294,0.6524998843669891,130.56141981528603,114.89445755544604,0.6622345671919139,-0.0889540703921583,0.148737834432325,-1.4573077726589103,-0.1677365439716291,147.93363993633585,0.902536499177542,51,1761939699.3620875,sit_down,sit_down-person1-take1.csv
0.5691722631454468,0.3351783752441406,-0.1838268339633941,0.9999788999557496,0.5315134525299072,0.4121266305446625,0.0295838415622711,0.9985319972038268,0.5091493129730225,0.4256162047386169,-0.2000216245651245,0.999970018863678,0.4962837696075439,0.6497712731361389,0.077303908765316,0.998860001564026,0.4804707169532776,0.6719763875007629,-0.077290304005146,0.9994446635246276,0.5850321054458618,0.7180737853050232,0.1542221009731292,0.780941367149353,0.5872400403022766,0.7487248182296753,-0.0733191668987274,0.9927863478660583,0.5495834350585938,0.8610901832580566,0.2377332150936126,0.7982308268547058,0.5543592572212219,0.925325870513916,0.0294209867715835,0.9721055030822754,0.5676652193069458,0.6414251327514648,0.0337526574730873,0.1769798547029495,0.565515398979187,0.6780037879943848,-0.1255442798137664,0.966909110546112,172.47814431659944,0.4883772432804107,0.6608738303184509,124.53744980744456,112.57488336269084,0.6422135326702564,-0.1915442446220643,0.2888204312216301,-3.5383722956811354,4.831499539863903,148.90251205358723,0.9352688359209992,52,1761939699.391081,sit_down,sit_down-person1-take1.csv
0.5647580027580261,0.3455150723457336,-0.1903309971094131,0.9999797940254213,0.527471661567688,0.418535441160202,0.0272877253592014,0.9986270666122437,0.5054331421852112,0.4361084401607513,-0.198668748140335,0.9999691843986512,0.4917119145393371,0.6568084955215454,0.0739112421870231,0.9989176392555236,0.4773119986057281,0.6784743070602417,-0.0738844126462936,0.9994623064994812,0.5776862502098083,0.7227214574813843,0.1537277996540069,0.7771161794662476,0.586399257183075,0.7516395449638367,-0.0671945959329605,0.99312025308609,0.5478624105453491,0.8631581664085388,0.2332991063594818,0.7943243384361267,0.5537159442901611,0.92230886220932,0.0448648184537887,0.9712972044944764,0.5632336139678955,0.6522537469863892,0.0275536477565765,0.1681517213582992,0.5654579997062683,0.6871304512023926,-0.1193466559052467,0.9661508798599244,172.42928653260253,0.4845119565725326,0.6676414012908936,126.19353590294536,110.83161907592893,0.6388709174810951,-0.0877444307935442,0.1536281025729842,2.3563208292663,-3.068950590586635,141.4319624300764,1.0219445952207045,53,1761939699.435133,sit_down,sit_down-person1-take1.csv
0.5615381002426147,0.3515712320804596,-0.1869330704212188,0.9999809861183168,0.5268452763557434,0.4229646325111389,0.0255791340023279,0.9987389445304872,0.503159761428833,0.4409966766834259,-0.1936621963977813,0.9999679327011108,0.4889276921749115,0.6613472700119019,0.0730539485812187,0.9989818930625916,0.4737090468406677,0.6830103993415833,-0.0730305165052414,0.9994682669639589,0.5745885968208313,0.7289590835571289,0.1459890156984329,0.77242112159729,0.5863445401191711,0.7523515224456787,-0.068043366074562,0.9933843612670898,0.5466617941856384,0.8827183246612549,0.2127690315246582,0.7866263389587402,0.5523462295532227,0.921787679195404,0.0510512180626392,0.9693543314933776,0.5632989406585693,0.6514140963554382,0.0274982564151287,0.1707825362682342,0.5643237829208374,0.6860830783843994,-0.1068986430764198,0.9663211703300476,172.0171942736893,0.4813183695077896,0.6721788346767426,125.24856085717369,107.84545513702606,0.6364402674725902,-0.1008893332730778,0.1433430871896842,-0.4152635955163715,-0.3249162536321744,142.7175810538532,1.0878643503077994,54,1761939699.466787,sit_down,sit_down-person1-take1.csv
0.5590320229530334,0.3561838865280151,-0.1876736730337143,0.9999809861183168,0.5272570848464966,0.4274452328681946,0.0258456077426671,0.998793601989746,0.5006879568099976,0.4424186646938324,-0.1967354118824005,0.9999633431434632,0.4892917275428772,0.6646442413330078,0.0731997489929199,0.9990013241767884,0.4709948897361755,0.6845948100090027,-0.0731771811842918,0.9994477033615112,0.5756642818450928,0.7287363409996033,0.1361669152975082,0.7650856971740723,0.5858326554298401,0.752368688583374,-0.0847794935107231,0.9934197068214417,0.5471932888031006,0.8852193355560303,0.1924749314785003,0.7750993371009827,0.5524493455886841,0.9213610291481018,0.0418024472892284,0.9662995934486388,0.5634182095527649,0.6569008231163025,0.0271353423595428,0.1638221889734268,0.5644228458404541,0.688691258430481,-0.1143157109618187,0.9650839567184448,171.9664066111872,0.4801433086395263,0.6746195256710052,121.90978422597234,102.41363448627352,0.6263551008121861,-0.0378933640361668,0.0787074055849428,2.031494077948186,-2.084371523999673,150.59591213883698,1.093800004588925,55,1761939699.497797,sit_down,sit_down-person1-take1.csv
0.5560057759284973,0.3603861927986145,-0.1856806427240371,0.9999813437461852,0.5257693529129028,0.4282215237617492,0.0254130419343709,0.9988588690757751,0.4971268773078918,0.4466131329536438,-0.1952311247587204,0.999960958957672,0.489501416683197,0.6649754047393799,0.0729260891675949,0.9990288019180298,0.4704009592533111,0.6876739263534546,-0.0728836134076118,0.9994524717330932,0.5758804678916931,0.7270011305809021,0.1372896283864975,0.7682629227638245,0.5845619440078735,0.7523032426834106,-0.0825498849153518,0.9937766194343568,0.5474960207939148,0.8823152184486389,0.2093832939863205,0.7741216421127319,0.552600622177124,0.920040726661682,0.0416267402470111,0.9667879939079284,0.5621262788772583,0.6553378701210022,0.0190903451293706,0.1587307751178741,0.562848687171936,0.6860044598579407,-0.1069308966398239,0.9641156196594238,172.48958544381838,0.4799511879682541,0.6763246655464172,123.22434685523496,102.45850598151117,0.6239613411151259,-0.005986097285572,0.0531287607529677,0.9941668515985446,-0.7969796034092462,147.2950895774663,1.0438472772521636,56,1761939699.5298915,sit_down,sit_down-person1-take1.csv
0.5526719689369202,0.363629013299942,-0.1814346611499786,0.9999814629554749,0.5215480923652649,0.4331973195075989,0.0260269045829772,0.9989190697669984,0.4924909472465515,0.4496365785598755,-0.1961950361728668,0.9999582767486572,0.4879268109798431,0.6683617234230042,0.0729219540953636,0.9990330934524536,0.4686282277107239,0.6927474141120911,-0.0728667974472045,0.999453902244568,0.575999915599823,0.7221440076828003,0.1488864421844482,0.7741113305091858,0.5830694437026978,0.7523851990699768,-0.0941466465592384,0.9941199421882628,0.5472016930580139,0.8770639300346375,0.2193059027194976,0.7756074070930481,0.552315354347229,0.918174684047699,0.0245753414928913,0.9675750136375428,0.5610581636428833,0.6553674936294556,0.0144383758306503,0.159523531794548,0.5610694885253906,0.6844440698623657,-0.1042556539177894,0.9632978439331056,173.14648337048163,0.4782775193452835,0.6805545687675476,120.25872343005253,98.18776072528436,0.6141585173745762,-0.0506342010545373,0.1279690419001868,-1.350757869218517,2.264174514941002,150.5007209657093,0.9652365897602944,57,1761939699.5629456,sit_down,sit_down-person1-take1.csv
0.5481758713722229,0.3663412630558014,-0.1812389194965362,0.9999817609786988,0.5163179636001587,0.4383110404014587,0.0254026651382446,0.9989596009254456,0.4896518588066101,0.4528351128101349,-0.1967276185750961,0.9999557733535768,0.4858366847038269,0.6740259528160095,0.0728200450539588,0.9990503191947936,0.4673135876655578,0.6963446736335754,-0.0727538615465164,0.9994632601737976,0.5745794177055359,0.7205284237861633,0.1551590412855148,0.7788215279579163,0.5821155309677124,0.7524816989898682,-0.0880940407514572,0.9944617748260498,0.5469819903373718,0.8757856488227844,0.2284161150455474,0.7775761485099792,0.5524120926856995,0.9179091453552246,0.0345052182674407,0.968411922454834,0.555063009262085,0.6587536931037903,0.0090996567159891,0.1528718620538711,0.5607890486717224,0.6861684918403625,-0.1032097563147544,0.9616582989692688,173.7103149314169,0.4765751361846924,0.6851853132247925,118.62414343846808,98.58214203658684,0.6158084957076543,-0.0427090498549511,0.1161751951431049,0.1988246157073259,-0.2958816797476781,151.42445229380263,0.9217610574632908,58,1761939699.6028056,sit_down,sit_down-person1-take1.csv
0.5433851480484009,0.3647886514663696,-0.1851755231618881,0.9999828338623048,0.5143738389015198,0.4376574754714966,0.0231163632124662,0.999021589756012,0.48813396692276,0.4549205005168915,-0.1960164010524749,0.9999550580978394,0.4865523874759674,0.6729859113693237,0.0723610669374466,0.9990682005882264,0.4678915441036224,0.6986936330795288,-0.0722870156168937,0.9994661808013916,0.5746790170669556,0.7148615717887878,0.1545732468366623,0.7840580940246582,0.5820672512054443,0.7523787617683411,-0.087402656674385,0.9947447776794434,0.5459394454956055,0.8697162866592407,0.225826546549797,0.7787044048309326,0.5526002645492554,0.9173692464828492,0.0339629128575325,0.969208598136902,0.556004524230957,0.6572020053863525,0.0093495622277259,0.15325428545475,0.5605865716934204,0.6862342953681946,-0.0997311323881149,0.9626020789146424,174.27120638082476,0.4772219657897949,0.6858397722244263,116.40753977708746,97.9977729532448,0.6155361957326814,0.0175662376006837,0.0177734324415322,1.636922633940581,-2.6723401809475105,146.65936675488558,0.8257183429420595,59,1761939699.639628,sit_down,sit_down-person1-take1.csv
0.5376005172729492,0.3657272756099701,-0.1924095004796981,0.999983847141266,0.5094369649887085,0.4394847154617309,0.0180830974131822,0.9990893602371216,0.4841614365577698,0.4565223753452301,-0.1969538778066635,0.99995356798172,0.4862385392189026,0.6720669865608215,0.0722258239984512,0.999060869216919,0.4671311378479004,0.7011460065841675,-0.0721493884921073,0.9994481205940248,0.5755844712257385,0.7106297612190247,0.1445354372262954,0.7892929911613464,0.5820308923721313,0.7523185014724731,-0.0881031230092048,0.9948795437812804,0.5459668040275574,0.8671561479568481,0.2083039581775665,0.7798829674720764,0.5526700615882874,0.9173991680145264,0.02234922721982,0.9702465534210204,0.5560588240623474,0.6554715037345886,0.0069384151138365,0.1640034019947052,0.5598753690719604,0.6866576671600342,-0.1032067090272903,0.9635009765625,175.18132695704523,0.4766848385334015,0.6866064965724945,112.61759295733094,97.47506917647942,0.609995178480288,-0.0152057924257048,0.0217055663172672,-0.9277590738854992,0.1113166587485812,146.01698465268646,0.6820682404535711,60,1761939699.6749518,sit_down,sit_down-person1-take1.csv
0.5323387384414673,0.36475470662117,-0.18918476998806,0.9999850392341614,0.5041240453720093,0.4415681660175323,0.0182262770831584,0.999157965183258,0.4814311563968658,0.4569917917251587,-0.1896372586488723,0.9999525547027588,0.4830775260925293,0.6751633882522583,0.0711228623986244,0.9990745186805724,0.4659865796566009,0.7055248618125916,-0.0710339173674583,0.9994394779205322,0.5753347873687744,0.7099007368087769,0.1404455751180648,0.7949997782707214,0.5818043947219849,0.7520210146903992,-0.0848050490021705,0.9950087070465088,0.5453341007232666,0.8658860921859741,0.204418808221817,0.7801980376243591,0.5528278946876526,0.917387306690216,0.0290505196899175,0.9709073305130004,0.5553112626075745,0.6553305983543396,0.0089519340544939,0.1772737205028534,0.5592118501663208,0.6869182586669922,-0.0829411596059799,0.9643966555595398,175.6716768840062,0.4745320528745651,0.6903441250324249,110.0793494768015,96.23196558035627,0.6094847312809156,-0.0537118030563503,0.0932534843464656,-0.9607214034475196,1.7851139366811952,145.79731561110725,0.6187114145508901,61,1761939699.715032,sit_down,sit_down-person1-take1.csv
0.5263782739639282,0.3660098612308502,-0.1957932114601135,0.999986171722412,0.5015511512756348,0.4426786303520202,0.0081589501351118,0.9992272853851318,0.4772520959377289,0.4603687226772308,-0.1918124854564666,0.9999510049819946,0.4811626970767975,0.6745803356170654,0.0702130645513534,0.9990906715393066,0.4645722508430481,0.7079599499702454,-0.0701210051774978,0.9994307160377502,0.5752941966056824,0.7087282538414001,0.1417172849178314,0.7964151501655579,0.5815309286117554,0.7514070868492126,-0.0810360461473465,0.9949361085891724,0.5454835295677185,0.8659839034080505,0.2097444236278534,0.7748543620109558,0.5528878569602966,0.916434407234192,0.0333498790860176,0.9710267186164856,0.5551233291625977,0.6536740064620972,0.0085252001881599,0.204186275601387,0.5585928559303284,0.6885233521461487,-0.0845247656106948,0.9652354121208192,176.0548350367308,0.4728674739599228,0.6912701427936554,110.3105408060111,95.80943644867703,0.6140516124568886,-0.0483346717804577,0.0268889411960178,0.1561367100439016,-1.9270389543088475,143.94479613851587,0.5656980825990602,62,1761939699.7494707,sit_down,sit_down-person1-take1.csv
0.5207532644271851,0.3654342591762543,-0.1960878819227218,0.9999871850013732,0.4980439245700836,0.4428118765354156,0.0094465371221303,0.9992818236351012,0.4728792309761047,0.4621993601322174,-0.1929236352443695,0.9999499320983888,0.4791341423988342,0.6781617403030396,0.0696317180991172,0.9990715980529784,0.4641443789005279,0.7116273045539856,-0.0695228353142738,0.9994083046913148,0.5742661952972412,0.7094950079917908,0.1397292464971542,0.802107036113739,0.5809706449508667,0.7515522241592407,-0.0764702185988426,0.9949609041213988,0.5455043911933899,0.866994321346283,0.2118995487689972,0.775997519493103,0.5529028177261353,0.918816864490509,0.0334516949951648,0.971885085105896,0.5523756742477417,0.649437665939331,0.0027557956054806,0.2125639468431472,0.5575926303863525,0.6884248852729797,-0.0666704028844833,0.9654563665390016,176.73622168695238,0.4716392606496811,0.6948945224285126,109.75694915857996,96.05263294022724,0.6169648297314829,-0.0396141246674151,0.1168987711662386,0.2812677876257136,2.903128142318764,142.38848134977118,0.4864304191268682,63,1761939699.7804751,sit_down,sit_down-person1-take1.csv
0.5154991149902344,0.3654797375202179,-0.1893461644649505,0.9999879002571106,0.4931586384773254,0.4415948987007141,0.0102763613685965,0.9993305802345276,0.4698270261287689,0.4597022235393524,-0.1891537606716156,0.9999478459358216,0.4777377545833587,0.6784956455230713,0.0685472637414932,0.9990198612213136,0.463564395904541,0.7121889591217041,-0.0684344321489334,0.9993612766265868,0.5732027292251587,0.7095935940742493,0.1365775465965271,0.8033472895622253,0.5803254842758179,0.7515324354171753,-0.0741186439990997,0.9948180913925172,0.5472897887229919,0.8673722743988037,0.2075241059064865,0.7731877565383911,0.5534306764602661,0.9206884503364564,0.0331256091594696,0.9723983407020568,0.5503278374671936,0.6465076208114624,0.0044727581553161,0.2223441451787948,0.5553407073020935,0.6876875758171082,-0.0560059323906898,0.9644045829772948,177.4630290804276,0.4706510752439499,0.6953423023223877,110.00877095449852,96.69329833091378,0.6135773809490125,-0.0352729671077826,0.0159833624101102,0.1549562530700551,-3.602143760754558,142.18548151852076,0.410596808523691,64,1761939699.8084905,sit_down,sit_down-person1-take1.csv
0.5119465589523315,0.3666395545005798,-0.1957689225673675,0.9999887943267822,0.4938279688358307,0.442549854516983,0.0052689672447741,0.9993869066238404,0.4655666947364807,0.4602939486503601,-0.1900369822978973,0.9999473690986632,0.4788623750209808,0.6783204078674316,0.0682657808065414,0.9990333914756776,0.4629086554050445,0.7132092118263245,-0.0681672245264053,0.9993396997451782,0.5742642879486084,0.7079353332519531,0.1322739720344543,0.8042250871658325,0.5800024271011353,0.7505356073379517,-0.072311595082283,0.9945884943008424,0.5481175184249878,0.8704338073730469,0.2042012959718704,0.7702059745788574,0.5534394979476929,0.9206486940383912,0.0343414768576622,0.9725433588027954,0.5502768754959106,0.6460344791412354,0.0037981464993208,0.253909170627594,0.5537267923355103,0.6872879266738892,-0.0675149708986282,0.9657186269760132,177.93461902512703,0.4708855152130127,0.695764809846878,108.95350638866064,96.44882495447366,0.6168430276930625,0.0076154933395291,0.0137246359975216,1.3931787578067034,-0.0733719425900378,147.87697483920783,0.3343400722912914,65,1761939699.8392751,sit_down,sit_down-person1-take1.csv
0.5087244510650635,0.3683107495307922,-0.2098313570022583,0.9999895691871644,0.4900365769863128,0.4450182318687439,0.0037652873434126,0.9994369149208068,0.4617660939693451,0.46368607878685,-0.2020584791898727,0.9999468326568604,0.477275937795639,0.6788502335548401,0.0699416100978851,0.9990425705909728,0.4611822664737701,0.7139386534690857,-0.0698517262935638,0.9993071556091307,0.5735167264938354,0.7016401290893555,0.1344133913516998,0.8041805028915405,0.5777060389518738,0.7492932677268982,-0.073606476187706,0.9944191575050354,0.5469481348991394,0.8703612685203552,0.2062608897686004,0.7675995826721191,0.5532346963882446,0.9206171035766602,0.0321915820240974,0.9729820489883424,0.5458777546882629,0.6414995193481445,0.0047956709749996,0.2842460870742798,0.5488486886024475,0.6865425705909729,-0.0741894990205764,0.9668858051300048,178.42096179788382,0.4692291021347046,0.6963944435119629,105.700853429299,96.5252741264262,0.6228219883176396,-0.0503489459151949,0.0191385782718661,-1.7619085814159745,0.1645641961710324,146.56202188769174,0.2614412425057413,66,1761939699.8721738,sit_down,sit_down-person1-take1.csv
0.5034653544425964,0.3681850731372833,-0.2060176581144333,0.9999902844429016,0.4850029051303863,0.4479192495346069,0.0049924510531127,0.9994747638702391,0.4580046534538269,0.466804176568985,-0.1994698345661163,0.9999461770057678,0.4736780226230621,0.6814835667610168,0.0701522827148437,0.9990016222000122,0.4607687890529632,0.717142641544342,-0.0700537338852882,0.999258279800415,0.5725203156471252,0.6954672336578369,0.1338890939950943,0.8039541244506836,0.5771031379699707,0.7453014850616455,-0.0763439014554023,0.9942307472229004,0.5501638650894165,0.8621504902839661,0.2013756036758422,0.7644284963607788,0.5527361631393433,0.9197706580162048,0.0259166862815618,0.9731847047805786,0.5412752032279968,0.6409400105476379,0.005025444086641,0.2926797866821289,0.54593425989151,0.6860905289649963,-0.068800538778305,0.9666762948036194,178.986483392096,0.4672234058380127,0.6993131041526794,101.89073977784936,93.36923642209824,0.6146394870417698,-0.0526891014198655,0.0766724288031666,-0.0614752547168864,1.5113987549954326,145.02770985024105,0.1832138891628975,67,1761939699.9102404,sit_down,sit_down-person1-take1.csv
0.4992589056491852,0.3675320148468017,-0.205282837152481,0.9999908208847046,0.4818812310695648,0.4466586112976074,0.0042643784545362,0.9995073080062866,0.4535880982875824,0.4654122292995453,-0.1961946487426757,0.9999436736106871,0.4738952219486236,0.6806240677833557,0.0695650577545166,0.99889075756073,0.4604153633117676,0.7149513959884644,-0.0694660171866417,0.9991361498832704,0.5707095861434937,0.6960947513580322,0.1254392713308334,0.8022388219833374,0.5747779011726379,0.7432616949081421,-0.0767746046185493,0.9938225746154784,0.5488719344139099,0.8624269366264343,0.1915028989315033,0.7589437365531921,0.5519020557403564,0.9187163710594176,0.0230359565466642,0.9725098609924316,0.5386019945144653,0.6374342441558838,0.0055678817443549,0.3101171255111694,0.5421737432479858,0.6812933087348938,-0.0731298997998237,0.967220425605774,179.8626879330764,0.4671552926301956,0.69778773188591,101.76960469374148,93.87721693022696,0.6114519308814023,-0.0018006498254106,-0.0403249442196422,1.345293877878385,-3.092958121614161,146.4622748033022,0.025913702637845,68,1761939699.9480674,sit_down,sit_down-person1-take1.csv
0.4960909783840179,0.367316871881485,-0.2059695720672607,0.9999907612800598,0.4790193438529968,0.4458600878715515,0.0044440263882279,0.999525785446167,0.4498768448829651,0.4667735695838928,-0.1984424889087677,0.999937891960144,0.4749110639095306,0.6787887811660767,0.0695775896310806,0.9987617135047911,0.459846556186676,0.7136847376823425,-0.0694795623421669,0.9990190267562866,0.5709408521652222,0.6939752697944641,0.1189275607466697,0.7999591827392578,0.573140025138855,0.7399804592132568,-0.0873159617185592,0.9932130575180054,0.5488088726997375,0.8566934466362,0.1772097498178482,0.7537864446640015,0.5505141615867615,0.9137999415397644,0.0076840706169605,0.9716036319732666,0.5370681881904602,0.635578989982605,-0.0034096513409167,0.3254062831401825,0.5412209033966064,0.6788429617881775,-0.1163250803947448,0.9679137468338012,-179.3001444786288,0.4673788100481033,0.6962367594242096,99.7634278861437,90.76416883610068,0.6001445661279972,0.007011075629875,-0.0486493863906608,0.2763975808910347,-0.2611129556875498,144.33570826623918,0.1309529025368307,69,1761939699.979948,sit_down,sit_down-person1-take1.csv
0.4944143295288086,0.3668667674064636,-0.2048408687114715,0.9999908804893494,0.4761311113834381,0.4455627501010895,0.0015035371761769,0.9995463490486144,0.4481469690799713,0.4672290384769439,-0.2008386850357055,0.9999353885650636,0.4744272828102112,0.6785619258880615,0.0695690438151359,0.9986954927444458,0.4601851999759674,0.7129142880439758,-0.0694708079099655,0.998946249485016,0.5703092813491821,0.6953715682029724,0.1216166839003562,0.8011894226074219,0.5734856724739075,0.7394885420799255,-0.0853408873081207,0.9931751489639282,0.5480809807777405,0.857889711856842,0.186746597290039,0.7506128549575806,0.5505644679069519,0.9134492874145508,0.0154661387205123,0.9712792038917542,0.5366637706756592,0.6337141990661621,-0.0094952173531055,0.3358367681503296,0.5410863757133484,0.6788778901100159,-0.1129931360483169,0.9686962366104126,-178.76322345708752,0.4673062413930893,0.6957381069660187,101.8189344721977,91.0271398543586,0.6047932857134988,-0.0021946585525888,-0.0150805038611569,-0.2784045432907091,1.0152073940184752,142.2517276596792,0.2288827867662977,70,1761939700.013014,sit_down,sit_down-person1-take1.csv
0.4926512837409973,0.3665928244590759,-0.204100489616394,0.9999913573265076,0.4740750789642334,0.4454782605171203,0.0037842481397092,0.9995775818824768,0.4465583264827728,0.4692447185516357,-0.2006645947694778,0.999935746192932,0.4733649790287018,0.6760215163230896,0.0700857862830162,0.9986647367477416,0.4599252343177795,0.7125219702720642,-0.0699871629476547,0.998893976211548,0.5704444646835327,0.6896634697914124,0.1184187158942222,0.7999235391616821,0.5737794637680054,0.7350339293479919,-0.0898526757955551,0.9930586218833924,0.5471283793449402,0.8539183139801025,0.177892804145813,0.7458462119102478,0.5505134463310242,0.912674605846405,-0.0015464185271412,0.971430003643036,0.5369726419448853,0.631358802318573,-0.0027236589230597,0.3632997274398803,0.5401483774185181,0.6778794527053833,-0.1216015219688415,0.9701536297798156,-178.46986516188628,0.4666451066732406,0.6942717432975769,98.51318793611782,89.01541779735174,0.5962898452624807,-0.0201687395446941,-0.0447332533275147,-0.5483217674122562,-0.904594121010562,139.1825428515928,0.2716980073749894,71,1761939700.0457942,sit_down,sit_down-person1-take1.csv
0.4906230866909027,0.3656357526779175,-0.2049068659543991,0.9999918937683104,0.4725899696350097,0.4453434348106384,0.0073405159637331,0.9996047616004944,0.4446143507957458,0.4690858721733093,-0.2022570073604583,0.999936819076538,0.4730845093727112,0.6751366257667542,0.071684792637825,0.9986523389816284,0.4597185254096985,0.7121465802192688,-0.071586474776268,0.998867690563202,0.5705273747444153,0.6866298913955688,0.1203346252441406,0.7982476949691772,0.5739814639091492,0.7315455675125122,-0.0940805524587631,0.9929493069648744,0.5464128851890564,0.8518008589744568,0.1815490275621414,0.7390279769897461,0.5504662394523621,0.9115296006202698,-0.0037797316908836,0.9714322686195374,0.5368677377700806,0.6296797394752502,-0.0012218009214848,0.3860740661621094,0.5400132536888123,0.6773982048034668,-0.127327099442482,0.971543312072754,-178.11058656603484,0.4664015173912048,0.6936416029930115,97.4554560602772,87.06248863327292,0.5966092689057179,-0.0063540545919287,-0.0164372827175312,0.3603576546001614,0.7381036656653972,139.6792932410023,0.3274858920188429,72,1761939700.0841303,sit_down,sit_down-person1-take1.csv
0.4891842007637024,0.3650124371051788,-0.2030499428510666,0.9999922513961792,0.4717113971710205,0.445043683052063,0.0085521042346954,0.9996287822723388,0.443138986825943,0.4692854881286621,-0.2018615901470184,0.9999366998672484,0.472738116979599,0.6750763058662415,0.0717458128929138,0.998650312423706,0.459186315536499,0.7119277715682983,-0.0716505274176597,0.998836874961853,0.5701314806938171,0.6873863339424133,0.118472933769226,0.7944287061691284,0.573606550693512,0.7308263778686523,-0.0922978967428207,0.992732048034668,0.5479124784469604,0.8523344397544861,0.178298145532608,0.731772243976593,0.5504992604255676,0.9105264544487,0.0012027015909552,0.970724642276764,0.5373163819313049,0.6293147802352905,-0.0004600388056132,0.402658998966217,0.5400327444076538,0.6761882305145264,-0.1229909658432006,0.9723021388053894,-177.93125094504444,0.465962216258049,0.6935020387172699,97.95700249066758,87.18766594294027,0.5966759726437738,-0.0125328188873546,-0.0039816282249233,-0.1762739224138527,0.3553472779774274,139.6875930032387,0.3766753074486391,73,1761939700.1191823,sit_down,sit_down-person1-take1.csv
0.487476497888565,0.3649629056453705,-0.2023991644382476,0.999992609024048,0.4716027379035949,0.4446786642074585,0.0167029332369565,0.9996492862701416,0.4418089389801025,0.4692332744598388,-0.2014356553554535,0.9999367594718932,0.4730569422245025,0.6745225787162781,0.0722477510571479,0.9986329674720764,0.4588949680328369,0.7117154598236084,-0.0721527114510536,0.9988049864768982,0.5699493885040283,0.6870809197425842,0.1166316717863082,0.7942051291465759,0.5733951330184937,0.729809045791626,-0.0960101336240768,0.9926547408103944,0.5479058027267456,0.8521648645401001,0.1748629063367843,0.728479266166687,0.5504778623580933,0.9094748497009276,-0.0026106685400009,0.9705684781074524,0.5370997786521912,0.6279332637786865,0.0065676569938659,0.4193044900894165,0.5393964648246765,0.6754748225212097,-0.1275447309017181,0.9731767177581788,-177.7521207449938,0.4659759551286697,0.6931190192699432,97.65383464689758,86.19277096595677,0.5942760436372594,0.0003504402928799,-0.0097697584470553,0.3286160300219825,-0.1476390677419146,140.50630072146086,0.4123455412433162,74,1761939700.158387,sit_down,sit_down-person1-take1.csv
0.4859529137611389,0.3631868958473205,-0.2059767991304397,0.9999930262565612,0.4722852706909179,0.4424215853214264,0.0159895475953817,0.9996695518493652,0.4410156607627868,0.4657644629478454,-0.2013038098812103,0.9999361634254456,0.4740960001945495,0.6698076128959656,0.0730931162834167,0.99860018491745,0.4590426385402679,0.7072427868843079,-0.0730063915252685,0.9987584948539734,0.569968581199646,0.6869958639144897,0.1168723702430725,0.789895236492157,0.5733717679977417,0.7289526462554932,-0.0957179069519043,0.9924559593200684,0.5479010343551636,0.8521576523780823,0.1770904511213302,0.7211082577705383,0.5504852533340454,0.9088138937950134,-0.0066010602749884,0.9706792831420898,0.536296010017395,0.625186562538147,0.0085107153281569,0.4449027478694916,0.5373924970626831,0.674418568611145,-0.1452473402023315,0.9742061495780944,-177.57725365669708,0.4665693193674087,0.6885251998901367,100.22707328072204,88.23980887272299,0.5969986716769256,0.0181175245874191,-0.1402656751621568,0.5424923942789966,-3.9845053430723314,143.25852674531694,0.4412687992586641,75,1761939700.1911378,sit_down,sit_down-person1-take1.csv
0.4854907989501953,0.3623791933059692,-0.2054601609706878,0.99999338388443,0.4717426896095276,0.4419279396533966,0.0153998956084251,0.999689757823944,0.4410192966461181,0.4655264019966125,-0.2011539041996002,0.9999369978904724,0.4746824204921722,0.6696475744247437,0.0730510801076889,0.9986128807067872,0.459087997674942,0.7072432041168213,-0.0729656144976615,0.9987564086914062,0.5700041055679321,0.6860598921775818,0.1163989081978797,0.7872259616851807,0.5734422206878662,0.7265086770057678,-0.0971554443240165,0.9923503994941713,0.5488860607147217,0.8511711359024048,0.1745125204324722,0.7145859599113464,0.5505244731903076,0.9076248407363892,-0.007250512484461,0.9704937934875488,0.5364373922348022,0.6253238916397095,0.0108603872358798,0.4630542993545532,0.5381908416748047,0.6747068166732788,-0.1381287574768066,0.975000023841858,-177.43758308214035,0.4668852090835571,0.6884453892707825,99.90881592361876,86.89399284400615,0.5958234922752188,0.0100135851081518,-0.0025299665946158,-0.2568918313530592,4.366170120982447,142.47233984024672,0.4770546112787061,76,1761939700.222684,sit_down,sit_down-person1-take1.csv
0.4854993224143982,0.3618606030941009,-0.2083180397748947,0.9999938011169434,0.4707965850830078,0.440928190946579,0.0139365810900926,0.9997084736824036,0.4411422610282898,0.4654951393604278,-0.203661635518074,0.9999384880065918,0.4747936725616455,0.6689985990524292,0.0732137262821197,0.998621702194214,0.4591429829597473,0.7070443630218506,-0.0731263905763626,0.9987568855285645,0.5700284242630005,0.6839790940284729,0.1173645108938217,0.787638247013092,0.5741628408432007,0.725581169128418,-0.095873013138771,0.9924216866493224,0.5488740801811218,0.8497990369796753,0.1768847852945327,0.7110699415206909,0.5506271123886108,0.907690167427063,-0.0066898204386234,0.971022367477417,0.5369051098823547,0.6257449388504028,0.0105681577697396,0.4791018068790436,0.5386261343955994,0.6747521162033081,-0.1385119706392288,0.9760633707046508,-177.31812526151316,0.4669683277606964,0.6880214810371399,99.47445982192944,86.78278223642012,0.5978210128447633,0.0022656965900007,-0.0115551338458838,-0.2111963905039628,-0.2460131870376003,140.36015258348118,0.4922083081321662,77,1761939700.2593696,sit_down,sit_down-person1-take1.csv
0.485086590051651,0.3608671426773071,-0.2075247317552566,0.9999942183494568,0.4711968302726745,0.4397560954093933,0.0133619587868452,0.9997265338897704,0.4409362375736236,0.4653479158878326,-0.203233927488327,0.9999387860298156,0.4751420021057129,0.6684161424636841,0.0730828866362571,0.9986355304718018,0.4591873586177826,0.7068743705749512,-0.0729928165674209,0.998754382133484,0.5701999068260193,0.6830681562423706,0.1167269349098205,0.7911174297332764,0.5741705298423767,0.7256230711936951,-0.0953592211008071,0.9925464987754822,0.5488460063934326,0.8481425046920776,0.1757215559482574,0.7127804160118103,0.5506428480148315,0.9074082374572754,-0.0070424266159534,0.9718233942985536,0.5380262732505798,0.6258696913719177,0.0093403421342372,0.4963856935501098,0.5384590029716492,0.6750369071960449,-0.1365896165370941,0.9768895506858826,-177.29722048436506,0.4671646803617477,0.6876452565193176,99.14190449308468,86.9784132089896,0.597126050357634,0.0050711976600985,-0.0097167487684729,0.0724576623172137,0.0474799623382093,139.77831617196176,0.494530332907792,78,1761939700.2980888,sit_down,sit_down-person1-take1.csv
0.4853138327598572,0.3596284985542297,-0.2101085931062698,0.9999945759773254,0.4712367057800293,0.4382481873035431,0.0127916457131505,0.9997432231903076,0.4410938322544098,0.4645682871341705,-0.2051863223314285,0.999940037727356,0.4758849740028381,0.6678041815757751,0.0734106749296188,0.9986547231674194,0.4596289992332458,0.7068348526954651,-0.0733231976628303,0.9987663626670836,0.5713233351707458,0.6822355389595032,0.1173059567809104,0.7947158813476562,0.5747396945953369,0.7250673770904541,-0.0952802002429962,0.9926295876502992,0.5488922595977783,0.8475797176361084,0.1769236028194427,0.7133530378341675,0.5508244037628174,0.9075218439102172,-0.0065083531662821,0.9724849462509156,0.5384584665298462,0.6259893774986267,0.008603723719716,0.5160486102104187,0.5386025309562683,0.6753904819488525,-0.1405817568302154,0.9778260588645936,-177.18698160822305,0.467756986618042,0.6873195171356201,98.7622920742693,86.74590119295893,0.599684209675327,0.0193654217919336,-0.0106500319598397,0.4673489036453907,-0.0305136446898542,138.87324716848644,0.5001996186622938,79,1761939700.3286746,sit_down,sit_down-person1-take1.csv
0.4852510392665863,0.3589763939380646,-0.2094654589891433,0.9999948740005492,0.4714131355285644,0.438161164522171,0.0127021120861172,0.9997574090957642,0.4411848485469818,0.4641789197921753,-0.2050647437572479,0.9999414086341858,0.476825475692749,0.6678571701049805,0.073436751961708,0.9986700415611268,0.4601102471351623,0.7070580124855042,-0.0733511745929718,0.9987764358520508,0.5723451972007751,0.6816538572311401,0.1174200922250747,0.7974740862846375,0.5752130746841431,0.7251088619232178,-0.0959629565477371,0.9927144050598145,0.5487319827079773,0.8480437397956848,0.1777757406234741,0.7133949398994446,0.5509500503540039,0.9076122641563416,-0.0059462548233568,0.972856879234314,0.5392662882804871,0.6261013150215149,0.0101761166006326,0.531936526298523,0.5387579798698425,0.6764231324195862,-0.141093447804451,0.9788271188735962,-177.05185725058743,0.4684678614139557,0.6874575912952423,98.17972355719976,86.38455414215343,0.6005233717305989,0.0198948748573754,0.0038642080750522,0.0148175213699616,0.4062023169254977,139.28112908260405,0.5083256893047127,80,1761939700.364406,sit_down,sit_down-person1-take1.csv
0.4850715100765228,0.3583282828330993,-0.2071589231491089,0.9999951720237732,0.4714302122592926,0.4379794299602508,0.007464830763638,0.9997724294662476,0.4411020874977112,0.4630785584449768,-0.2033383101224899,0.99994295835495,0.4772194921970367,0.6678827404975891,0.0719977468252182,0.9986944198608398,0.4605747759342193,0.7070876359939575,-0.0719222128391265,0.9987973570823668,0.5723432302474976,0.6821046471595764,0.1175122037529945,0.8007067441940308,0.575417697429657,0.7254014015197754,-0.0954645946621894,0.9928248524665833,0.5485605001449585,0.8477437496185303,0.1780566126108169,0.7138497829437256,0.5510103702545166,0.9073057174682616,-0.0003033954126294,0.9727482199668884,0.5402958989143372,0.6274286508560181,0.0070490441285073,0.5497632622718811,0.5388455986976624,0.6783148646354675,-0.139408677816391,0.979765236377716,-176.94872800210317,0.468897134065628,0.6874851882457733,98.65318498576424,85.99818281339886,0.6011571197220105,0.0103513300639879,0.0006654631796204,-0.2301296897250434,-0.0771334117701553,140.38932213043063,0.5241936078531474,81,1761939700.4058764,sit_down,sit_down-person1-take1.csv
0.4850651621818542,0.357786476612091,-0.2030116766691208,0.9999953508377076,0.4716014266014099,0.4371081590652466,0.0029512690380215,0.9997870326042176,0.4408731460571289,0.4623725116252899,-0.2006087601184845,0.9999436140060424,0.4775548875331878,0.6672240495681763,0.0708240270614624,0.9987082481384276,0.4610297083854675,0.7063088417053223,-0.0707458406686782,0.9987974762916564,0.5723233222961426,0.6826452016830444,0.1172078251838684,0.8018758296966553,0.5755060315132141,0.725659966468811,-0.0928815156221389,0.9927955269813538,0.5481051206588745,0.847890317440033,0.1783246099948883,0.7102517485618591,0.5511102080345154,0.9073347449302672,0.0019584188703447,0.9722812175750732,0.5405253171920776,0.6276628971099854,0.0038692778907716,0.5670793652534485,0.5387853980064392,0.6786358952522278,-0.1338737308979034,0.98045015335083,-176.847427233055,0.4692922979593277,0.6867664456367493,99.37111873272474,86.76528359502811,0.6002696519497077,0.0115144604846329,-0.0209430403490246,0.0338918091468408,-0.6296381425013207,140.5734466607643,0.5370661874934187,82,1761939700.440195,sit_down,sit_down-person1-take1.csv
0.4850620627403259,0.3572788536548614,-0.2030374258756637,0.9999955892562866,0.4717602133750915,0.4366086423397064,0.0025481968186795,0.9997991323471068,0.4408976435661316,0.4620800018310547,-0.2001622915267944,0.9999436736106871,0.4779663681983948,0.6666122674942017,0.0701822265982627,0.9987407922744752,0.461254358291626,0.7055410146713257,-0.0701119527220726,0.9988131523132324,0.5723621845245361,0.6855491399765015,0.1157229170203208,0.8042528629302979,0.575467050075531,0.7277828454971313,-0.0924667045474052,0.9928499460220336,0.5483027696609497,0.8504922389984131,0.1756800264120102,0.7109288573265076,0.5508617758750916,0.9085873961448668,0.0054509164765477,0.97208434343338,0.5405727624893188,0.6278353333473206,0.0013951759319752,0.5791351795196533,0.5383161306381226,0.6786536574363708,-0.133480355143547,0.9810017347335817,-176.78889107846655,0.4696103632450104,0.6860766410827637,100.94675919013014,87.71635944653688,0.6025960780223891,0.0095628978380548,-0.020739548686776,-0.0586753570850518,0.0061181463824407,140.46661189135722,0.5458121367954887,83,1761939700.4734557,sit_down,sit_down-person1-take1.csv
0.4848999381065368,0.3569435179233551,-0.2046161144971847,0.999995768070221,0.4718140959739685,0.4363597929477691,0.0026344747748225,0.999807834625244,0.44085294008255,0.4621273875236511,-0.2021079510450363,0.9999427795410156,0.4782707691192627,0.6660735011100769,0.0701583921909332,0.9987391233444214,0.4612608850002289,0.7047133445739746,-0.0700847655534744,0.9987953305244446,0.5730955004692078,0.6858794093132019,0.1135843992233276,0.807232141494751,0.57548987865448,0.729353666305542,-0.0922616943717002,0.9928935766220092,0.5485566854476929,0.8513370156288147,0.17415152490139,0.710783064365387,0.5505008101463318,0.9119242429733276,0.0051384596154093,0.9721750020980836,0.5406525135040283,0.6279698014259338,0.001720049418509,0.5877427458763123,0.5380165576934814,0.679347574710846,-0.136682778596878,0.981429636478424,-176.7444981197172,0.4697658270597458,0.6853934228420258,100.92790978116072,88.80761218821355,0.6050314428498085,0.0043982496374489,-0.0193290276887794,-0.146113821499402,0.0399052569153208,140.23089147034085,0.542392110550472,84,1761939700.5088024,sit_down,sit_down-person1-take1.csv
0.4848448634147644,0.3569446206092834,-0.2115333974361419,0.9999958872795104,0.4719239175319671,0.4362013638019562,0.0036813870538026,0.9998155236244202,0.4407609105110168,0.4625380933284759,-0.2034841775894165,0.9999414086341858,0.4787844717502594,0.6652562618255615,0.0707815885543823,0.9987350702285768,0.4613171219825744,0.704528272151947,-0.070705309510231,0.9987687468528748,0.5740868449211121,0.6849772334098816,0.1126134842634201,0.8086856603622437,0.5756615996360779,0.7293745875358582,-0.0946884006261825,0.9928551316261292,0.548540472984314,0.8513758182525635,0.173987939953804,0.7076925039291382,0.5503948330879211,0.9119575619697572,0.0018384435679763,0.97212153673172,0.5406658053398132,0.6281867623329163,0.0088231759145855,0.5995153784751892,0.5375085473060608,0.6798502802848816,-0.1442533731460571,0.981898844242096,-176.66890760040926,0.4700507968664169,0.6848922669887543,100.36203817780194,88.4607564236679,0.6075998806307604,0.0081629377697645,-0.0143555701251161,0.107839196389414,0.1424643019798906,139.79791191519604,0.5395393283827675,85,1761939700.5437126,sit_down,sit_down-person1-take1.csv
0.4849211275577545,0.3569491803646087,-0.2183583229780197,0.9999960064888,0.4727149903774261,0.4357586801052093,0.0011283823987469,0.999822437763214,0.4407870173454284,0.4630772769451141,-0.2059554159641266,0.9999407529830932,0.4793243408203125,0.6630480289459229,0.0709272176027298,0.9987193942070008,0.4616114199161529,0.7041317224502563,-0.0708508044481277,0.998741090297699,0.5745574235916138,0.6850153207778931,0.110628068447113,0.8085585236549377,0.575779914855957,0.7293344140052795,-0.0959266424179077,0.992788016796112,0.5481389760971069,0.8511137962341309,0.1750157177448272,0.7044606804847717,0.5501341819763184,0.912386417388916,-0.0009036263218149,0.9723424315452576,0.5407393574714661,0.6282532811164856,0.0085193132981657,0.6099590063095093,0.5375632643699646,0.6798678636550903,-0.1453779637813568,0.982435941696167,-176.6476673072344,0.4704678803682327,0.6835898756980896,101.19656392675375,88.39221196333247,0.6105878914703501,0.0134454572704424,-0.0419849895087964,0.1702917759092111,-0.8906853810162871,139.4486437565631,0.526901585952205,86,1761939700.574733,sit_down,sit_down-person1-take1.csv
0.4850192070007324,0.3571433126926422,-0.2179629504680633,0.9999961256980896,0.4727389216423034,0.4358201622962951,0.0004815599822904,0.9998292922973632,0.4410077035427093,0.463422954082489,-0.2087431401014328,0.9999409914016724,0.4793663918972015,0.6631096601486206,0.0709386318922042,0.9987227320671082,0.4618391990661621,0.7041425704956055,-0.070860743522644,0.998729646205902,0.5744746923446655,0.6870393753051758,0.110681913793087,0.809644877910614,0.5757235288619995,0.730835497379303,-0.0956949219107627,0.9928587079048156,0.549174427986145,0.8565757870674133,0.1771992743015289,0.7033847570419312,0.549630343914032,0.9156915545463562,0.002639336977154,0.9719775915145874,0.5407480001449585,0.6291323900222778,0.0072120130062103,0.61456698179245,0.5376077890396118,0.6808385848999023,-0.1441371142864227,0.9830021262168884,-176.64219939830932,0.4706027954816818,0.683626115322113,102.75010663043622,88.91155895605065,0.61544087964259,0.0032749859653793,0.0008796958104487,-0.2468822797821105,1.0405153228729669,138.98019258920957,0.534268425490435,87,1761939700.6159286,sit_down,sit_down-person1-take1.csv
0.4850911200046539,0.3572706878185272,-0.2183925807476043,0.9999962449073792,0.4727659821510315,0.4358514547348022,-6.31010188953951e-05,0.9998354315757751,0.4411559700965881,0.4636211097240448,-0.2104556262493133,0.9999414086341858,0.4793806970119476,0.6631686687469482,0.070987083017826,0.9987185001373292,0.462005615234375,0.7041504383087158,-0.0709065571427345,0.9987167716026306,0.5743456482887268,0.6879626512527466,0.1113877072930336,0.8109136819839478,0.575684130191803,0.7316344976425171,-0.0955976098775863,0.9929236769676208,0.5493949055671692,0.8581329584121704,0.1799781024456024,0.7024692296981812,0.5493375062942505,0.9175876379013062,0.0039885379374027,0.9717273116111756,0.5407310128211975,0.6295586228370667,0.0064867660403251,0.6197014451026917,0.5376389622688293,0.6813926100730896,-0.144152820110321,0.9835668802261353,-176.6403769237862,0.4706931561231613,0.683659553527832,103.59824877319424,89.22617646074184,0.618053251066135,0.0021009567945718,0.000777464882424,-0.0272971121391753,-0.0023769503993348,138.7004287935374,0.5353742513552193,88,1761939700.658938,sit_down,sit_down-person1-take1.csv
0.4851419031620025,0.3573393225669861,-0.2223706990480423,0.9999963641166688,0.4730951189994812,0.4356617927551269,-0.0006009741919115,0.9998407363891602,0.4412022233009338,0.4636506736278534,-0.2143170088529586,0.999941885471344,0.4798933565616607,0.6628453731536865,0.0714562684297561,0.9987198710441588,0.4621968865394592,0.7039444446563721,-0.071377620100975,0.998711109161377,0.5743719339370728,0.6882802248001099,0.1113919466733932,0.811511218547821,0.5756845474243164,0.7320610284805298,-0.0977358445525169,0.9929314255714417,0.5496888160705566,0.8589654564857483,0.1807172149419784,0.7010494470596313,0.5491493344306946,0.9192126989364624,0.0039394474588334,0.9717137813568116,0.5411430597305298,0.630166232585907,0.0076911053620278,0.6249421834945679,0.5377337336540222,0.6822021007537842,-0.1518212705850601,0.9840513467788696,-176.59760271016802,0.47104512155056,0.6833949089050293,104.07700970775252,89.04374530830077,0.6212284898383645,0.0100576376729641,-0.0075623897151499,0.2273672557720386,-0.2383166903850215,138.7301408477334,0.5426146284879759,89,1761939700.6939328,sit_down,sit_down-person1-take1.csv
0.4851640164852142,0.3573440611362457,-0.2204934358596801,0.9999964833259584,0.4731292724609375,0.4359897673130035,0.0015537638682872,0.9998447895050048,0.44142746925354,0.4636079967021942,-0.2129682302474975,0.9999427199363708,0.4800474047660827,0.6646558046340942,0.0716202035546302,0.9987198114395142,0.4626269936561584,0.7047811150550842,-0.0715416371822357,0.9987131357192992,0.5745338201522827,0.6883042454719543,0.1160990819334983,0.8153774738311768,0.5759998559951782,0.7321624755859375,-0.0967819839715957,0.9930747747421264,0.5489053726196289,0.8565866947174072,0.18489570915699,0.7035112380981445,0.5493961572647095,0.920274257659912,0.0058933803811669,0.9718366265296936,0.5414880514144897,0.6302921772003174,0.0101417321711778,0.6278957724571228,0.538892924785614,0.6822648644447327,-0.1496253907680511,0.9844380617141724,-176.57520261626374,0.4713371992111206,0.6847184598445892,103.5854590816812,88.98405266084882,0.621234497220682,0.0100187484154828,0.0453999934574776,-0.0013339660623877,1.8166976258044027,138.93801204288525,0.5383003019925839,90,1761939700.723086,sit_down,sit_down-person1-take1.csv
0.4852281510829925,0.3572466969490051,-0.2199884951114654,0.9999966025352478,0.473640501499176,0.4359209239482879,0.003267265157774,0.9998511672019958,0.4422624111175537,0.4635604321956634,-0.2120513916015625,0.999943196773529,0.4804490208625793,0.6645424962043762,0.0720764845609664,0.998723566532135,0.4630948603153229,0.7047639489173889,-0.0719881579279899,0.9987072348594666,0.575462818145752,0.6860430240631104,0.1161644086241722,0.8186873197555542,0.5775511264801025,0.7320998907089233,-0.0970670953392982,0.9931927919387816,0.5474588871002197,0.8536333441734314,0.18476103246212,0.7053895592689514,0.5496205687522888,0.92015939950943,-0.0015041197184473,0.9724788069725036,0.5424152612686157,0.6303595900535583,0.0142088681459426,0.6381570100784302,0.5396457314491272,0.6833098530769348,-0.1484391987323761,0.9850041270256042,-176.6330290751308,0.4717719405889511,0.6846532225608826,101.68006020010104,88.98696717465948,0.617772011609282,0.0127727479686186,-0.001916678341272,0.0809128000960747,-1.390168855366933,138.62466701084432,0.4941491532150577,91,1761939700.7571225,sit_down,sit_down-person1-take1.csv
0.4852480292320251,0.3569706678390503,-0.2199914455413818,0.9999967217445374,0.4746424257755279,0.4354937672615051,0.0009617082541808,0.9998581409454346,0.4426946640014648,0.463320255279541,-0.2115117758512497,0.9999436140060424,0.4810806810855865,0.6620678901672363,0.0721457153558731,0.9987195730209352,0.4635393619537353,0.7032139897346497,-0.0720563307404518,0.9987015724182128,0.5760529637336731,0.6842821836471558,0.1108410358428955,0.8198727369308472,0.5782366394996643,0.7320767045021057,-0.0982452780008316,0.9931957125663756,0.5462607741355896,0.85001540184021,0.184042140841484,0.7043330073356628,0.5500926375389099,0.919474184513092,-0.0074475733563303,0.973246455192566,0.5427799820899963,0.6301982402801514,0.0122330505400896,0.6536163091659546,0.5397464036941528,0.6832562685012817,-0.150982528924942,0.9856141805648804,-176.6526756574714,0.4723100215196609,0.682640939950943,101.02518993827694,89.55627712862234,0.6144489289751203,0.0178584145723871,-0.0667858216750015,0.1687886290027587,-2.15294761158159,138.94414799228497,0.4708975639086436,92,1761939700.787253,sit_down,sit_down-person1-take1.csv
0.4853004813194275,0.3559120893478393,-0.2188541144132614,0.999996781349182,0.4754714965820312,0.4335749447345733,0.0007017280440777,0.9998650550842284,0.4431131482124328,0.462692379951477,-0.2100288569927215,0.999944031238556,0.4816442131996155,0.6585660576820374,0.072107195854187,0.9987154603004456,0.463809072971344,0.6999047994613647,-0.0720147415995597,0.9986886978149414,0.5766083598136902,0.6824357509613037,0.1069491133093833,0.8210392594337463,0.5789127945899963,0.730635404586792,-0.0980271697044372,0.9932066202163696,0.5461472272872925,0.8491767644882202,0.1796463727951049,0.702897846698761,0.5504151582717896,0.918393611907959,-0.0096111167222261,0.9738574624061584,0.5433169007301331,0.6298241019248962,0.0117989182472229,0.6676710247993469,0.5398596525192261,0.6831325888633728,-0.1524115055799484,0.98623389005661,-176.67304756390237,0.4727266430854797,0.679235428571701,100.885974213759,90.42575373670256,0.6123353773588501,0.0132302447777466,-0.1081455038272549,-0.1469722747926609,-1.3134190922851077,138.01775584409964,0.4557037145717972,93,1761939700.818743,sit_down,sit_down-person1-take1.csv
0.4856460988521576,0.3546091318130493,-0.2154523879289627,0.9999969005584716,0.4754489064216614,0.43329718708992,0.0045244703069329,0.9998690485954284,0.4433352947235107,0.4615361094474792,-0.2084345817565918,0.9999446868896484,0.4816423058509826,0.6587998867034912,0.0723035112023353,0.9987007975578308,0.464031845331192,0.7001155614852905,-0.0722066536545753,0.9986810088157654,0.576637327671051,0.6802524328231812,0.1120668277144432,0.8241285085678101,0.5791939496994019,0.7293722629547119,-0.0968980640172958,0.993344783782959,0.54579758644104,0.8482125401496887,0.1813393682241439,0.7046313881874084,0.5503388047218323,0.9175360798835754,-0.008283220231533,0.9743446707725524,0.5433992147445679,0.6286637783050537,0.011958641000092,0.676548182964325,0.5398707389831543,0.6817783117294312,-0.151083305478096,0.9866507649421692,-176.68386312281444,0.4728370755910873,0.6794577240943909,100.18517114479,89.98652783205945,0.6116803217753051,0.0023625506238077,0.0047557050608505,-0.2324992760190694,2.415365113918698,138.67340140455553,0.4504414173881645,94,1761939700.865486,sit_down,sit_down-person1-take1.csv
0.4856407642364502,0.3542510271072387,-0.2232547551393509,0.9999969601631165,0.4754915237426758,0.4324343800544739,0.0020361838396638,0.999873161315918,0.4432345032691955,0.4613678455352783,-0.2129910439252853,0.9999443888664246,0.4818961024284363,0.657289445400238,0.0725600868463516,0.9986976385116576,0.464053213596344,0.6990861296653748,-0.0724697485566139,0.9986717104911804,0.5769074559211731,0.6803537011146545,0.1103067621588707,0.8238205909729004,0.5791304111480713,0.7280203104019165,-0.0978142470121383,0.9932994842529296,0.5467206239700317,0.8477718830108643,0.18132846057415,0.703852653503418,0.5503392219543457,0.916782021522522,-0.0075733819976449,0.9748963117599488,0.5433849096298218,0.6273947954177856,0.0117475613951683,0.6857200264930725,0.539940595626831,0.6807414293289185,-0.1601118743419647,0.9868616461753844,-176.63192331689137,0.4729746580123901,0.6781877875328064,100.9619715503584,89.68999630843443,0.6155879010934657,0.0034770132256801,-0.0320941162293254,0.0281649441079972,-0.9312767923156722,138.10895955605335,0.4615679764855118,95,1761939700.905055,sit_down,sit_down-person1-take1.csv
0.4851175248622894,0.3539206385612488,-0.2223020046949386,0.999997079372406,0.4754917025566101,0.4324855506420135,0.0022117593325674,0.9998767971992492,0.442922979593277,0.4613605439662933,-0.2124122083187103,0.9999445676803588,0.4818845689296722,0.6575607657432556,0.0726892575621604,0.9987293481826782,0.4638748168945312,0.6992066502571106,-0.072606161236763,0.9987002015113832,0.576713502407074,0.6810528039932251,0.1037784814834594,0.8253066539764404,0.5778810381889343,0.7280474901199341,-0.1051783561706543,0.993294894695282,0.5466959476470947,0.8450130224227905,0.1794774085283279,0.7061680555343628,0.5498777031898499,0.9152414798736572,-0.0073335408233106,0.975250244140625,0.5435876846313477,0.6276640892028809,0.011579280719161,0.6930376291275024,0.5398502945899963,0.6803134083747864,-0.1573642194271087,0.987176775932312,-176.61947376124627,0.4728796929121017,0.6783837080001831,100.30797067150178,87.83832959147638,0.6131706496875736,-0.002583609545369,0.0053301895971304,-0.1648846028131632,1.018161339991355,138.4402334514002,0.4712744192483951,96,1761939700.9418118,sit_down,sit_down-person1-take1.csv
0.4849533140659332,0.3532314598560333,-0.2218153923749923,0.9999970197677612,0.4755495190620422,0.4307925701141357,-0.0007260059937834,0.999876081943512,0.4423348307609558,0.4598196148872375,-0.2120560705661773,0.9999432563781738,0.4816461205482483,0.6571606397628784,0.0726590007543563,0.9987192749977112,0.4633397459983825,0.698330283164978,-0.0725792646408081,0.9986924529075624,0.5758906006813049,0.6812718510627747,0.1048218458890914,0.8233643174171448,0.5774604082107544,0.7274026870727539,-0.1042155027389526,0.9931486248970032,0.5475374460220337,0.8451285362243652,0.179495483636856,0.7045866847038269,0.5499932169914246,0.9140143394470216,-0.0055915797129273,0.9751192331314088,0.5431492924690247,0.6276382207870483,0.0073228143155574,0.6940590143203735,0.5398574471473694,0.6793869137763977,-0.156134694814682,0.9868722558021544,-176.66354507318852,0.4724929332733154,0.6777454614639282,101.36406123953756,88.16882890839591,0.6135495244219412,-0.0100592041621192,-0.0166001091378112,-0.194432213038334,-0.5703835927743387,138.84907740162345,0.485495840367789,97,1761939700.98026,sit_down,sit_down-person1-take1.csv
0.4621224403381347,0.3217651546001434,-0.2435431480407714,0.9999988079071044,0.4554840922355652,0.409365177154541,0.0104704797267913,0.999952793121338,0.4286758303642273,0.4311980903148651,-0.2379579991102218,0.9999430179595948,0.4528140425682068,0.6252031326293945,0.0866835266351699,0.9997243285179138,0.4388012290000915,0.6705186367034912,-0.0867833346128463,0.99978905916214,0.5527719259262085,0.6330069303512573,0.1268589794635772,0.4820936024188995,0.5592955350875854,0.696077823638916,-0.1027670130133628,0.945227324962616,0.5402296185493469,0.8027944564819336,0.2135298550128936,0.3890010416507721,0.5482677221298218,0.8659040927886963,0.0270238183438777,0.9497280716896056,0.5327821969985962,0.5911585688591003,0.0299152918159961,0.7208174467086792,0.5275931358337402,0.6420053839683533,-0.1549080461263656,0.9750287532806396,-179.06159758934567,0.4458076357841491,0.6478608846664429,99.91532993992296,92.02047065515262,0.6339181169895131,0.0,0.0,0.0,0.0,140.84028860340257,0.3162782500119282,0,1761939701.2328646,stand_up,stand_up-person1-take1.csv
0.4609350264072418,0.3205602467060089,-0.2249588519334793,0.9999988675117492,0.4519057273864746,0.4054648876190185,0.0095049943774938,0.9999539852142334,0.4226832985877991,0.4302790760993957,-0.213572472333908,0.9999460577964784,0.4535098969936371,0.6309041976928711,0.0800072774291038,0.9997187256813048,0.4422564506530761,0.6761637926101685,-0.0799867063760757,0.9997795224189758,0.5513303279876709,0.6323058605194092,0.1402034759521484,0.509907066822052,0.559295654296875,0.6947563886642456,-0.0971490442752838,0.9492916464805604,0.5402318835258484,0.7998534440994263,0.2135356664657592,0.4161869883537292,0.5470365881919861,0.8654511570930481,0.0266409181058406,0.951702356338501,0.5273464322090149,0.5909432172775269,0.0221776701509952,0.7204092741012573,0.5259073972702026,0.6417758464813232,-0.0976180806756019,0.9756394028663636,-177.42734183594862,0.4478831738233566,0.6535339951515198,99.74736826134064,89.12631863638347,0.62300478540323,0.0547367204889274,0.1496129953094151,1.4435334420693298,3.9456394202679865,139.66379104459386,0.9065824222626656,1,1761939701.2707832,stand_up,stand_up-person1-take1.csv
0.4609550833702087,0.3196754157543182,-0.2145799696445465,0.999998927116394,0.4505480229854584,0.4018855690956116,0.0102097885683178,0.9999534487724304,0.4195069670677185,0.4289579093456268,-0.2065644264221191,0.9999484419822692,0.4548078179359436,0.6327428817749023,0.0766970887780189,0.9996944069862366,0.4428969025611877,0.6767030954360962,-0.076648361980915,0.9997525215148926,0.5511298179626465,0.6320366859436035,0.1395469903945922,0.5384665131568909,0.5581529140472412,0.6940823197364807,-0.0933780968189239,0.953403890132904,0.5406221151351929,0.8007828593254089,0.2082302123308181,0.4451722502708435,0.5439772009849548,0.8654359579086304,0.0246186777949333,0.9538151025772096,0.523714542388916,0.5895773768424988,0.0241163037717342,0.7194831371307373,0.5256887674331665,0.6415469646453857,-0.1166084632277488,0.9766563773155212,-176.69359457087137,0.4488523602485657,0.6547229886054993,98.72880935523878,88.53015023615332,0.6162753665482783,0.025867239152153,0.03173381015711,-0.7705161344742211,-3.146153303517342,138.90681238944305,1.1200836383496595,2,1761939701.308251,stand_up,stand_up-person1-take1.csv
0.4619726240634918,0.3185051083564758,-0.2095824033021927,0.9999989867210388,0.4503863453865051,0.402106910943985,0.0203721020370721,0.9999550580978394,0.4196545481681824,0.4279570281505584,-0.2026557475328445,0.9999518394470216,0.456712007522583,0.6371768116950989,0.0778028815984726,0.9996960759162904,0.4472286105155945,0.6788908839225769,-0.0777736231684684,0.9997491240501404,0.5521604418754578,0.6343215703964233,0.1556988954544067,0.5688351988792419,0.5586510896682739,0.6932064294815063,-0.0843546018004417,0.95760977268219,0.5374643206596375,0.8035256266593933,0.2341490238904953,0.4768769145011902,0.5437068343162537,0.8677886724472046,0.0335983112454414,0.956717610359192,0.5247860550880432,0.5895886421203613,0.0209910776466131,0.7231225371360779,0.5257598161697388,0.6415973901748657,-0.1171649843454361,0.977788746356964,-176.00996848969146,0.4519703090190887,0.6580338478088379,100.5594210120518,90.13948693341568,0.6257701676955566,0.0953339481108349,0.1012323494463357,2.124003989387691,2.1249772289447693,139.9310589122491,1.143623703919485,3,1761939701.3409564,stand_up,stand_up-person1-take1.csv
0.4643864631652832,0.3190250992774963,-0.2175186425447464,0.9999990463256836,0.4504254460334778,0.4025595784187317,0.0105174276977777,0.9999553561210632,0.4240323603153229,0.428082138299942,-0.2077503651380539,0.9999545812606812,0.4608541131019592,0.637059211730957,0.0776968598365783,0.999689757823944,0.4534336626529693,0.6785113215446472,-0.0776747986674308,0.9997342228889464,0.5553726553916931,0.6406945586204529,0.1511121690273285,0.5950377583503723,0.5628424882888794,0.6939321756362915,-0.0797064155340194,0.9613946080207824,0.5376162528991699,0.8171343207359314,0.2325910776853561,0.5039396286010742,0.5447976589202881,0.8715047240257263,0.0399482585489749,0.958777129650116,0.5284134745597839,0.5915724039077759,0.0203666202723979,0.7294373512268066,0.5281744599342346,0.642956554889679,-0.1421215832233429,0.9794092178344728,-175.304510941951,0.4571438878774643,0.6577852666378021,102.21672784139103,91.25703393451546,0.6379669174886515,0.1638197380341235,-0.0078712441491771,2.16858087436516,-3.4547307793449646,135.9606503389983,1.1124685492257704,4,1761939701.3725374,stand_up,stand_up-person1-take1.csv
0.4671500623226166,0.3203082084655761,-0.2408443242311477,0.9999991059303284,0.4530178904533386,0.4031398296356201,-0.0001641389535507,0.9999558925628662,0.4290842413902282,0.4296417534351349,-0.2274115085601806,0.9999573826789856,0.464804470539093,0.6369768381118774,0.0782220885157585,0.9996873736381532,0.4575493335723877,0.6793251633644104,-0.0782139897346496,0.9997302293777466,0.5593840479850769,0.6424518823623657,0.1531317979097366,0.6215054988861084,0.5675376057624817,0.6949577331542969,-0.0837105885148048,0.9647992253303528,0.5391268730163574,0.8168075680732727,0.2369617968797683,0.5317469835281372,0.5460933446884155,0.8745494484901428,0.0380320325493812,0.9611401557922364,0.5333012342453003,0.5940027832984924,0.0114596327766776,0.7359569072723389,0.5311323404312134,0.6442784070968628,-0.1644597798585891,0.9808634519577026,-175.24126511760073,0.4611769020557403,0.6581510007381439,103.08344197522172,89.4795052479578,0.6518053878560313,0.1210424865831842,0.0109767441860465,-1.283869745042435,0.5656829543211577,132.08490847803452,0.965188389431931,5,1761939701.4058564,stand_up,stand_up-person1-take1.csv
0.4698466360569,0.3228598535060882,-0.2416093349456787,0.9999991059303284,0.4566984176635742,0.4033367037773132,-0.00502455746755,0.9999557733535768,0.4316145777702331,0.4322079122066498,-0.2277366816997528,0.9999592900276184,0.4695360064506531,0.6361660957336426,0.0775166675448417,0.999658465385437,0.4609192311763763,0.6791521906852722,-0.0774867013096809,0.999701976776123,0.5648234486579895,0.6419000029563904,0.1471897065639495,0.6444029808044434,0.5721439123153687,0.6951625347137451,-0.0856931656599044,0.9677551984786988,0.5412295460700989,0.8127016425132751,0.2239323854446411,0.5522699952125549,0.5481645464897156,0.8751603960990906,0.0289038382470607,0.9628030061721802,0.5365238189697266,0.5942044854164124,0.0105787198990583,0.7430257201194763,0.5329598188400269,0.6457854509353638,-0.1658624112606048,0.9820616245269777,-174.9801510591175,0.4652276188135147,0.6576591432094574,100.53447472744826,88.28114696510947,0.6423098514974797,0.0915223662308699,-0.0111130862920646,-0.666981037585144,-0.4991002027271687,130.98471543848615,0.885801459424347,6,1761939701.4501157,stand_up,stand_up-person1-take1.csv
0.4726123213768005,0.3240871429443359,-0.2377908676862716,0.9999991059303284,0.4607749879360199,0.4035429656505584,-0.0005274691502563,0.9999536871910096,0.4339316785335541,0.4327929615974426,-0.2229559123516082,0.9999595880508424,0.4735938012599945,0.6359220147132874,0.0778724625706672,0.9996166229248048,0.4640031456947326,0.6790351867675781,-0.0778470486402511,0.9996461868286132,0.5709756016731262,0.642492413520813,0.1344639956951141,0.661450982093811,0.5766999125480652,0.6954538822174072,-0.0886086821556091,0.9702157378196716,0.5476716160774231,0.8157766461372375,0.2026753723621368,0.5656703114509583,0.5508355498313904,0.8772894740104675,0.020269151777029,0.9632515907287598,0.5380021929740906,0.593370795249939,0.0135840373113751,0.7478357553482056,0.533011794090271,0.6457228064537048,-0.1656417250633239,0.9827601909637452,-174.87927993013048,0.4687984734773636,0.6574786007404327,97.40558152789072,87.41639778748302,0.6330942687375741,0.0987678134541449,-0.0049937022309269,0.2004049582261489,0.1692586902299892,132.54322800335802,0.8722793707433669,7,1761939701.4862697,stand_up,stand_up-person1-take1.csv
