nose_x,nose_y,nose_z,nose_visibility,left_shoulder_x,left_shoulder_y,left_shoulder_z,left_shoulder_visibility,right_shoulder_x,right_shoulder_y,right_shoulder_z,right_shoulder_visibility,left_hip_x,left_hip_y,left_hip_z,left_hip_visibility,right_hip_x,right_hip_y,right_hip_z,right_hip_visibility,left_knee_x,left_knee_y,left_knee_z,left_knee_visibility,right_knee_x,right_knee_y,right_knee_z,right_knee_visibility,left_ankle_x,left_ankle_y,left_ankle_z,left_ankle_visibility,right_ankle_x,right_ankle_y,right_ankle_z,right_ankle_visibility,left_wrist_x,left_wrist_y,left_wrist_z,left_wrist_visibility,right_wrist_x,right_wrist_y,right_wrist_z,right_wrist_visibility,trunk_lateral_inclination,center_mass_x,center_mass_y,left_knee_angle,right_knee_angle,person_height,center_mass_velocity_x,center_mass_velocity_y,center_mass_acceleration_x,center_mass_acceleration_y,body_orientation,torso_leg_ratio,frame,timestamp
0.5351579785346985,0.5283461809158325,-0.1748461276292801,0.959940493106842,0.5070303082466125,0.5815867781639099,-0.20765721797943115,0.9983395338058472,0.5072407722473145,0.5637579560279846,-0.11116578429937363,0.9918524622917175,0.4640600085258484,0.6660412549972534,-0.03542013466358185,0.9999890327453613,0.4647582173347473,0.6364609003067017,0.03538094833493233,0.9999299049377441,0.4203259348869324,0.6662118434906006,-0.23336350917816162,0.9860549569129944,0.4412063658237457,0.5857033729553223,-0.07248092442750931,0.5089017152786255,0.4209996163845062,0.7727868556976318,-0.14162421226501465,0.8858572244644165,0.4527896046638489,0.6866021156311035,-0.021351225674152374,0.4618188142776489,0.41475480794906616,0.5600690245628357,-0.2523922920227051,0.6439482569694519,0.43867596983909607,0.5924155712127686,-0.10851015150547028,0.18753674626350403,151.46528353246623,0.46440911293029785,0.6512510776519775,50.40262860339471,37.86041611980769,0.24271922417754832,0.0,0.0,0.0,0.0,-89.32367159178283,6.970667259391306,0,1762115127.570678
0.5368432402610779,0.5290888547897339,-0.31259214878082275,0.9609322547912598,0.510789692401886,0.5848644971847534,-0.2960277199745178,0.9984257221221924,0.5079143047332764,0.567206084728241,-0.17869749665260315,0.9920969009399414,0.46776914596557617,0.6727055907249451,-0.03818170726299286,0.9999868869781494,0.4654916822910309,0.6426284313201904,0.03814450278878212,0.9999234676361084,0.41926655173301697,0.664726734161377,-0.25603848695755005,0.9845384955406189,0.43435606360435486,0.590726375579834,-0.09515853226184845,0.49796342849731445,0.4219987392425537,0.772969663143158,-0.13918551802635193,0.8827144503593445,0.4374612271785736,0.6846756339073181,-0.009546037763357162,0.4577828347682953,0.41743582487106323,0.5608727335929871,-0.36865732073783875,0.6646737456321716,0.45852741599082947,0.6339130401611328,-0.10346248000860214,0.17830073833465576,152.37489597026342,0.46663041412830353,0.6576670110225677,41.96946990408682,28.330727951409322,0.3288139929830319,0.03183123842647953,0.09194030284187582,0.4561415357237825,1.317504219324247,-99.24852255689922,14.63230548275302,1,1762115127.6404617
0.5439311265945435,0.5252590775489807,-0.33864134550094604,0.9637322425842285,0.5168731212615967,0.5938014388084412,-0.3022645115852356,0.9985302090644836,0.5079082250595093,0.5580864548683167,-0.17640283703804016,0.9919478893280029,0.4676341116428375,0.6848941445350647,-0.044908829033374786,0.9999871850013733,0.4637845456600189,0.6436522603034973,0.04486381635069847,0.9999145865440369,0.41262006759643555,0.6655787825584412,-0.27213600277900696,0.9849898815155029,0.43553194403648376,0.5904169082641602,-0.05530708283185959,0.48125189542770386,0.39913034439086914,0.7951804995536804,-0.1567029058933258,0.8870404958724976,0.4414865970611572,0.6847019195556641,0.07572327554225922,0.43728747963905334,0.41007882356643677,0.560836136341095,-0.3788609802722931,0.6761336922645569,0.4556427001953125,0.619455873966217,-0.14130662381649017,0.17286241054534912,152.14388646766463,0.4657093286514282,0.664273202419281,46.73207847170342,14.140521365568866,0.38764070204492684,-0.014513309991697691,0.10409208049858935,-0.7302392823519743,0.19147247515003962,-104.0908130455839,12.387132768768844,2,1762115127.7039266
0.5479767322540283,0.5234472751617432,-0.2562127411365509,0.9646767377853394,0.5162968039512634,0.5881576538085938,-0.2650398910045624,0.9985855221748352,0.5194939970970154,0.5619945526123047,-0.15207502245903015,0.9919282793998718,0.4650730490684509,0.6860403418540955,-0.04529517516493797,0.9999861717224121,0.4670625627040863,0.6513795256614685,0.045211099088191986,0.9999045729637146,0.4074249863624573,0.6635951995849609,-0.21627816557884216,0.9843623042106628,0.44633108377456665,0.5814928412437439,-0.04286155849695206,0.45751500129699707,0.3964170813560486,0.7942374348640442,-0.11745421588420868,0.8872935175895691,0.43756240606307983,0.683567225933075,0.03559585288167,0.4174971282482147,0.41018328070640564,0.5497020483016968,-0.3409561216831207,0.6717225313186646,0.4700241982936859,0.6137953996658325,-0.047214023768901825,0.15981425344944,151.03487743655634,0.4660678058862686,0.668709933757782,49.98668759522355,20.02677390234953,0.33155012146624985,0.005646059188217932,0.0698790475510978,0.3175124680863408,-0.5388593479750344,-83.03286359510064,5.240779420557529,3,1762115127.7674181
0.5489762425422668,0.5215288996696472,-0.22849884629249573,0.9673474431037903,0.5080275535583496,0.5733277797698975,-0.25671014189720154,0.9986313581466675,0.5251450538635254,0.5754506587982178,-0.14980794489383698,0.9922888875007629,0.45556640625,0.6853258013725281,-0.04393336549401283,0.9999866485595703,0.4669105112552643,0.6544903516769409,0.04385652765631676,0.999906063079834,0.40736013650894165,0.6551424860954285,-0.21568529307842255,0.9846327900886536,0.4584733843803406,0.5691956281661987,-0.01991344429552555,0.4500613808631897,0.4001089036464691,0.7933188676834106,-0.12654024362564087,0.8927136063575745,0.439300537109375,0.6820977330207825,0.019924430176615715,0.4316612482070923,0.40324482321739197,0.5390784740447998,-0.27803200483322144,0.6765267848968506,0.4617287218570709,0.636182427406311,-0.04780106619000435,0.1519232839345932,149.91010282064568,0.46123845875263214,0.6699080765247345,50.02682780323457,22.028130881408345,0.30681676132314284,-0.07181667659405491,0.017817445966643974,-1.1519396079480448,-0.7742022059085015,7.069613707297484,4.188880430152881,4,1762115127.8346636
0.5494586825370789,0.5200290083885193,0.002235743682831526,0.970237672328949,0.5283525586128235,0.5787457227706909,-0.03208039700984955,0.9987016320228577,0.5134326219558716,0.5412555932998657,0.07295900583267212,0.9930029511451721,0.4646149277687073,0.6844146847724915,-0.04252741485834122,0.9999862909317017,0.458892285823822,0.6391586065292358,0.04227657616138458,0.9999099373817444,0.4223150312900543,0.6133732795715332,-0.22189846634864807,0.9851626753807068,0.4519685208797455,0.5206987857818604,-0.06298716366291046,0.4629041850566864,0.40367427468299866,0.7575131058692932,-0.21429899334907532,0.8981963396072388,0.41523122787475586,0.6382797956466675,-0.10638346523046494,0.450888454914093,0.44373220205307007,0.5971552133560181,-0.13215725123882294,0.6337630748748779,0.44994157552719116,0.5834871530532837,-0.05463000014424324,0.15075470507144928,149.84285474798656,0.46175360679626465,0.6617866456508636,67.90117756977673,63.926299068581514,0.2786929492891126,0.006810656231186032,-0.10737160796971483,1.0395142539447926,-1.6550962792283888,-111.7010583225668,2.1357504697944516,5,1762115127.9103022
0.5495449304580688,0.5195543169975281,-0.10904280096292496,0.9718042612075806,0.5294284820556641,0.591109573841095,-0.11691161245107651,0.9987583756446838,0.5080291032791138,0.5335634350776672,-0.014061303809285164,0.9935525059700012,0.4665842652320862,0.6820544004440308,-0.042165812104940414,0.9999852776527405,0.45754843950271606,0.6297511458396912,0.04196825996041298,0.9999080896377563,0.4210236072540283,0.6248724460601807,-0.24022872745990753,0.9858832955360413,0.4443187713623047,0.5160693526268005,-0.07114739716053009,0.4774051010608673,0.40477418899536133,0.7628750205039978,-0.2181849479675293,0.9051689505577087,0.41762614250183105,0.6364561319351196,-0.093791663646698,0.4743650555610657,0.44270819425582886,0.6049259901046753,-0.17225559055805206,0.607900857925415,0.44558802247047424,0.5871123671531677,-0.1274574100971222,0.14919111132621765,148.80148130109868,0.4620663523674011,0.655902773141861,67.1879406430447,57.73193617079204,0.23191209551496147,0.0039226269863579,-0.07379876557238806,-0.036223251418035604,0.42108905689035864,-110.39839198766406,2.6388961498103765,6,1762115127.9900308
0.549302875995636,0.519599437713623,-0.03051469288766384,0.9744564294815063,0.5358299016952515,0.5923475623130798,-0.023001622408628464,0.998818039894104,0.5077974796295166,0.521283745765686,0.05482666566967964,0.994166374206543,0.4698772430419922,0.6812384128570557,-0.04186158627271652,0.9999802708625793,0.4575917720794678,0.6278373003005981,0.041690848767757416,0.9999117851257324,0.431359201669693,0.5976266860961914,-0.2029629498720169,0.9805370569229126,0.43609634041786194,0.5160583257675171,-0.0689191073179245,0.48599711060523987,0.40565791726112366,0.686818540096283,-0.1820065677165985,0.889789879322052,0.40896424651145935,0.6367600560188293,-0.09416426718235016,0.4762437641620636,0.4661179482936859,0.6696791648864746,-0.07745791971683502,0.5552051663398743,0.443340927362442,0.5816611051559448,-0.009738143533468246,0.1527375727891922,149.27573714533855,0.46373450756073,0.6545378565788269,56.11814330392453,59.68334624479328,0.2279278104176201,0.020369054931746525,-0.016666351284865457,0.20081956138753035,0.6976169181738904,-111.52766203349728,2.198495968190927,7,1762115128.0719273
0.5498804450035095,0.5198667049407959,0.007488347589969635,0.9769388437271118,0.5361074209213257,0.5927314758300781,0.006225569639354944,0.9988510012626648,0.50352942943573,0.523525595664978,0.05190395191311836,0.9946817755699158,0.47070154547691345,0.6745027303695679,-0.026279831305146217,0.9999761581420898,0.4555845856666565,0.6256424188613892,0.02610030770301819,0.9999164938926697,0.4579532742500305,0.5794630646705627,-0.14677837491035461,0.9699319005012512,0.4399228096008301,0.5321482419967651,-0.06770322471857071,0.5030648708343506,0.40989333391189575,0.6350776553153992,-0.08230838924646378,0.8727535009384155,0.4193100333213806,0.6403380632400513,-0.07111436128616333,0.4866597652435303,0.4700228273868561,0.7161305546760559,-0.06568173319101334,0.5056224465370178,0.4274345934391022,0.5713103413581848,-0.021823592483997345,0.15464453399181366,148.34984365598785,0.463143065571785,0.6500725746154785,34.28252331124779,49.868196279125705,0.19818293132078998,-0.007030530402868115,-0.05307925576386232,-0.32570162640058814,-0.43284385752348614,-115.20825266458053,1.6505451321289057,8,1762115128.156052
0.5368478298187256,0.5381167531013489,-0.2716287076473236,0.9786944389343262,0.5213276147842407,0.6172258853912354,-0.2248501032590866,0.99887615442276,0.5003617405891418,0.5201975107192993,-0.17155492305755615,0.9952007532119751,0.45059290528297424,0.6609269380569458,-0.027396148070693016,0.9999756813049316,0.44272714853286743,0.6069549918174744,0.02705523744225502,0.9999204277992249,0.4675171375274658,0.6443954110145569,-0.13043442368507385,0.960533857345581,0.46002787351608276,0.5194759964942932,0.06650033593177795,0.4915640354156494,0.4787517189979553,0.7226240634918213,-0.06075268238782883,0.8474263548851013,0.4307253956794739,0.5761457085609436,0.12177316844463348,0.4627108573913574,0.42776528000831604,0.719896674156189,-0.2878321707248688,0.4866965711116791,0.38127511739730835,0.5358351469039917,-0.22070589661598206,0.22375069558620453,135.46247571479952,0.44666002690792084,0.6339409649372101,41.96640633135611,66.48687367395702,0.3322807179889444,-0.06854980243620698,-0.06708827655956412,-0.2558468756825706,-0.058260835726568976,-102.19300287644579,7.104041935637784,9,1762115128.3965056
0.5409427285194397,0.5555334091186523,-0.10827027261257172,0.9807910323143005,0.5264596939086914,0.6023081541061401,-0.029399067163467407,0.9989668130874634,0.49582749605178833,0.5164697766304016,-0.07387451827526093,0.9956792593002319,0.4752064347267151,0.6550374627113342,0.01419873721897602,0.9999761581420898,0.4542028307914734,0.6218225359916687,-0.014489291235804558,0.9999269843101501,0.5066062211990356,0.6504456400871277,-0.054483164101839066,0.9556901454925537,0.4753407835960388,0.6378843784332275,-0.10266049206256866,0.5243353843688965,0.49516692757606506,0.7640974521636963,-0.03578188642859459,0.8523646593093872,0.4722607731819153,0.742612898349762,-0.05181826278567314,0.49929189682006836,0.4567229151725769,0.7153152227401733,-0.05383504182100296,0.47208279371261597,0.3845764100551605,0.5281592607498169,-0.09315065294504166,0.2990301251411438,149.56449531690288,0.46470463275909424,0.6384299993515015,75.68501176832181,74.50129360015755,0.21578925386140693,0.04673346273589158,0.01162608506113638,0.29857045487318484,0.2038611824453506,-109.63939892646012,6.395976849258038,10,1762115128.782623
0.5546887516975403,0.5284172296524048,-0.06374924629926682,0.981597900390625,0.5213865041732788,0.5447971224784851,-0.12422899901866913,0.9990639090538025,0.5323030948638916,0.5694878697395325,-0.06151220202445984,0.9960808753967285,0.472987562417984,0.6386790871620178,-0.027358829975128174,0.9999785423278809,0.4845786690711975,0.6422074437141418,0.02711651287972927,0.999934196472168,0.44512009620666504,0.6696333885192871,-0.03565921261906624,0.9583077430725098,0.4953072965145111,0.6662958860397339,0.11163584142923355,0.4927964210510254,0.45455503463745117,0.7647277116775513,-0.010395395569503307,0.8659080862998962,0.4829123914241791,0.7483767867088318,0.1117032989859581,0.5333102941513062,0.4263191819190979,0.6033236384391785,-0.12774674594402313,0.5042613744735718,0.4531545042991638,0.6244515180587769,-0.046058423817157745,0.3028651475906372,150.0165298984763,0.47878311574459076,0.6404432654380798,126.04918524093567,104.57627846808167,0.2692989928080224,0.17283251184667664,0.02471557731877292,1.5480372012912431,0.1606913065857687,66.14820346820156,32.452548794970454,11,1762115128.8640804
0.5271264314651489,0.5878618955612183,-0.2923077344894409,0.9832343459129333,0.504652738571167,0.6035171747207642,-0.25963807106018066,0.9991542100906372,0.5032834410667419,0.5904706120491028,-0.2060251533985138,0.996468722820282,0.45611611008644104,0.6420440077781677,-0.002641991013661027,0.9999800324440002,0.4519506096839905,0.6324895024299622,0.0024514745455235243,0.9999393820762634,0.46114397048950195,0.7120193243026733,0.07744050025939941,0.9446176290512085,0.47755494713783264,0.6809706687927246,0.08566165715456009,0.47765132784843445,0.48757606744766235,0.7619331479072571,0.22445102035999298,0.8344008922576904,0.4931049942970276,0.7246284484863281,0.24363844096660614,0.5055984854698181,0.40240421891212463,0.582082986831665,-0.32673659920692444,0.5534248948097229,0.4379505515098572,0.6502851843833923,-0.24208411574363708,0.3680518865585327,128.886525267093,0.45403335988521576,0.6372667551040649,156.68336256770425,162.64802321737375,0.550050138943021,-0.04375760324607498,-0.005616074748075952,-0.38293162878454645,-0.05362640360900431,-95.99152327944603,2.3787423077702687,12,1762115129.4296908
0.532021164894104,0.5218726992607117,-0.17005692422389984,0.9846733808517456,0.5117363333702087,0.5966663956642151,-0.21525819599628448,0.9992356896400452,0.524429440498352,0.5645039081573486,-0.0763801783323288,0.9967859983444214,0.4561300277709961,0.640137255191803,-0.04088316857814789,0.9999802708625793,0.4624071717262268,0.6176080703735352,0.04065084829926491,0.9999434351921082,0.46368926763534546,0.5969060063362122,0.023351658135652542,0.9073003530502319,0.4805520474910736,0.5535675287246704,0.09033994376659393,0.4718538224697113,0.4469626843929291,0.6369412541389465,0.16632184386253357,0.7885769009590149,0.4323289394378662,0.5598320960998535,0.17266878485679626,0.4941217303276062,0.4016333520412445,0.6042985916137695,-0.2503257691860199,0.5966646075248718,0.45878729224205017,0.6126072406768799,-0.09526597708463669,0.3846741020679474,129.38656637345628,0.45926859974861145,0.6288726627826691,129.06963529914626,110.75327279402607,0.36011569955606576,0.0751966970309236,-0.12056907297695284,1.7086075732646697,-1.651134619647859,-68.46304945926033,1.8110163419141527,13,1762115129.4993114
0.5300788283348083,0.5257941484451294,-0.20631849765777588,0.9861742854118347,0.5103956460952759,0.6100389361381531,-0.2065720558166504,0.9993091225624084,0.516925573348999,0.5408051609992981,-0.09518071264028549,0.9971016645431519,0.45173659920692444,0.6412534117698669,-0.032660551369190216,0.9999793171882629,0.45478516817092896,0.6082914471626282,0.03251204639673233,0.9999468326568604,0.4660545289516449,0.6280713081359863,0.046786822378635406,0.8934500217437744,0.46215659379959106,0.5566940903663635,0.14368751645088196,0.4848995506763458,0.4521214962005615,0.6908787488937378,0.19876578450202942,0.747580349445343,0.43015971779823303,0.5574209690093994,0.25535744428634644,0.49177855253219604,0.41968148946762085,0.6762897372245789,-0.20494146645069122,0.6247003078460693,0.4527553617954254,0.5382093191146851,-0.08577390760183334,0.39948490262031555,129.25098687599834,0.4532608836889267,0.6247724294662476,144.912300047436,148.33883391284084,0.4532131667611895,-0.07031097404445535,-0.04798685480855623,-1.7029410149565165,0.8494619930481402,-84.61196865613326,2.629968040681538,14,1762115129.5847564
0.5322201251983643,0.5270996689796448,-0.2301773577928543,0.9874167442321777,0.5096571445465088,0.6072403788566589,-0.24305152893066406,0.9993760585784912,0.5179800987243652,0.5488671660423279,-0.1114579290151596,0.9973756074905396,0.44872957468032837,0.640525758266449,-0.04341002181172371,0.9999796748161316,0.4546816945075989,0.6103277802467346,0.04327903315424919,0.9999480247497559,0.4565455913543701,0.6291242241859436,0.03149067237973213,0.8941138386726379,0.4630257487297058,0.6009493470191956,0.17303024232387543,0.46112823486328125,0.4904191493988037,0.71351557970047,0.18036304414272308,0.7262163162231445,0.45525217056274414,0.6309162378311157,0.29723596572875977,0.4640800952911377,0.40806666016578674,0.6713603138923645,-0.2610054016113281,0.6608853936195374,0.44938382506370544,0.5716129541397095,-0.11889390647411346,0.4191296696662903,127.33242863895924,0.4517056345939636,0.6254267692565918,141.8750765403784,160.91190867217568,0.49449422194157755,-0.020342432539472165,0.008558669531510686,0.6535812738634449,0.7396072552121972,-81.885362146439,4.759254840670674,15,1762115129.6612098
0.5513471364974976,0.5217127203941345,-0.20360925793647766,0.9877254962921143,0.5196325778961182,0.5488078594207764,-0.21062438189983368,0.9994268417358398,0.5289390683174133,0.5745550394058228,-0.15915153920650482,0.9975679516792297,0.4743146300315857,0.6376720070838928,-0.023426981642842293,0.9999815225601196,0.4799671769142151,0.642271101474762,0.023305654525756836,0.9999529719352722,0.4515053629875183,0.6898334622383118,-0.017192015424370766,0.9034664034843445,0.4814007878303528,0.6486778855323792,0.04814714565873146,0.4819963574409485,0.4827164113521576,0.7586559057235718,0.11722324788570404,0.7511999011039734,0.47068148851394653,0.7263745069503784,0.15025922656059265,0.5093434453010559,0.4391961097717285,0.6087067723274231,-0.21472521126270294,0.6852207779884338,0.4733666479587555,0.6569053530693054,-0.11342795193195343,0.4074532687664032,148.94439105100224,0.4771409034729004,0.6399715542793274,114.88107920532543,155.82150714814532,0.4100383471583401,0.05715065929109199,0.03268076532837057,0.1741196961471636,0.05420008276047949,70.12727153772312,4.60090728376809,16,1762115130.1062663
0.5493707656860352,0.504878580570221,-0.14952987432479858,0.9889407157897949,0.5267885327339172,0.54352867603302,-0.1832490861415863,0.9994785189628601,0.5316761136054993,0.5589520335197449,-0.07509588450193405,0.9977499842643738,0.48660483956336975,0.6371374130249023,-0.04564463347196579,0.9999833703041077,0.496407687664032,0.6337000131607056,0.045472826808691025,0.9999575614929199,0.439908504486084,0.678124189376831,-0.09627584367990494,0.9129169583320618,0.4923955798149109,0.6559480428695679,0.0872616395354271,0.45627009868621826,0.4582274556159973,0.752843976020813,-0.053293369710445404,0.7753698825836182,0.4920596480369568,0.7288042902946472,0.08846572786569595,0.5413215756416321,0.4533866047859192,0.6194689273834229,-0.18608839809894562,0.6858313679695129,0.4781802296638489,0.6459389328956604,-0.06849774718284607,0.3913709223270416,155.85959679608382,0.49150626361370087,0.635418713092804,90.25013900654989,118.88005320245794,0.29850922660443746,0.07093007548271503,-0.02248000508554786,0.06803693196689364,-0.27236056533184344,72.41686529155778,4.195275948023668,17,1762115130.3087947
0.544978678226471,0.49945196509361267,-0.21719352900981903,0.9846539497375488,0.5217348337173462,0.5437788963317871,-0.2350589483976364,0.9995015263557434,0.5304653644561768,0.5520082712173462,-0.10521756112575531,0.9976761341094971,0.4828227460384369,0.63947993516922,-0.04642610251903534,0.9999847412109375,0.4923345148563385,0.6322299242019653,0.046296920627355576,0.9999578595161438,0.43511444330215454,0.6646756529808044,-0.10861091315746307,0.9198523163795471,0.48457902669906616,0.624536395072937,0.04913577437400818,0.4286191761493683,0.43975701928138733,0.7575422525405884,-0.06324996054172516,0.7943509221076965,0.4838620126247406,0.7253092527389526,0.08279799669981003,0.53816819190979,0.4263404905796051,0.5220968127250671,-0.2988228499889374,0.7041575908660889,0.4667523503303528,0.5841917991638184,-0.04618489742279053,0.3647511899471283,156.34964233916313,0.4875786304473877,0.6358549296855927,85.27012366109125,55.82631191019733,0.3420273247040768,-0.04924339234043571,0.0054691423344572785,-1.5066960111453251,0.35041735663820106,43.307433847298825,19.61597019832776,18,1762115130.3885543
0.5415976047515869,0.4997987449169159,-0.23813846707344055,0.9823055863380432,0.5221804976463318,0.5472142696380615,-0.2383350133895874,0.9994845390319824,0.526242733001709,0.5500971674919128,-0.10824351012706757,0.9975812435150146,0.4847745895385742,0.639980673789978,-0.04594209045171738,0.9999858736991882,0.48990994691848755,0.6287999749183655,0.04579077288508415,0.9999597668647766,0.4431679844856262,0.6569619178771973,-0.1775301992893219,0.9243798851966858,0.4779502749443054,0.6178241968154907,-0.01396284531801939,0.4191911816596985,0.44464311003685,0.7576289772987366,-0.11803741753101349,0.8069790601730347,0.4855504631996155,0.7211384177207947,0.011711901053786278,0.563062310218811,0.42494258284568787,0.5249865055084229,-0.3063756823539734,0.7039362788200378,0.46331802010536194,0.59372478723526,-0.025500157848000526,0.3382081389427185,156.73034002722736,0.4873422682285309,0.6343903243541718,67.6625500363696,65.32749761858456,0.31220079683264307,-0.0029434250764525994,-0.01823876963273062,0.5765747391561813,-0.2952352661608149,35.36266027859574,8.123404760767682,19,1762115130.468856
0.5483125448226929,0.497435986995697,-0.19883514940738678,0.9840057492256165,0.5055447220802307,0.5481278300285339,-0.2099330723285675,0.999512791633606,0.5331595540046692,0.5599139928817749,-0.13821816444396973,0.997508704662323,0.4741556644439697,0.6505231261253357,-0.02881641685962677,0.9999868273735046,0.48954495787620544,0.6400840878486633,0.028778616338968277,0.999961793422699,0.44004908204078674,0.6292814016342163,-0.030291641131043434,0.9306029081344604,0.4886336922645569,0.6255605220794678,0.13414530456066132,0.4434661269187927,0.43751031160354614,0.6775690317153931,0.096188485622406,0.8196806311607361,0.48293548822402954,0.7084345817565918,0.25493940711021423,0.5798341631889343,0.43325933814048767,0.5860558152198792,-0.13101816177368164,0.7022191286087036,0.4922263026237488,0.6360751390457153,0.02892601490020752,0.30752918124198914,157.66558651153915,0.4818503111600876,0.6453036069869995,78.06945664664802,137.67320534846198,0.43148633617651505,-0.02696816319792824,0.053589491578206715,-0.11797307414697104,0.3527114736002558,23.113057257268043,9.103518158372095,20,1762115130.672502
0.5484442114830017,0.4977741539478302,-0.16390161216259003,0.9855279326438904,0.5059758424758911,0.5339367985725403,-0.1615133285522461,0.9994913339614868,0.5331310033798218,0.5580762028694153,-0.08916745334863663,0.997563898563385,0.47445225715637207,0.6411809921264648,-0.03425132855772972,0.99998539686203,0.48839062452316284,0.6364080905914307,0.03419099003076553,0.9999618530273438,0.4397749900817871,0.6272975206375122,-0.13855119049549103,0.9365005493164062,0.4652227759361267,0.6114851832389832,0.040555842220783234,0.4510881304740906,0.4352537989616394,0.6909101605415344,-0.1213846430182457,0.8360759019851685,0.4696230888366699,0.7112729549407959,0.04072641581296921,0.6043871641159058,0.4413822591304779,0.5878108739852905,-0.04834098368883133,0.6456342339515686,0.49552661180496216,0.6453136205673218,0.07625573128461838,0.28262534737586975,157.6593992712655,0.48142144083976746,0.6387945413589478,69.88293210894274,41.56606264571993,0.2565642931020896,-0.006211519270148105,-0.0942736875546025,0.30062769007836493,-2.141568075504098,41.63528781830768,620.6467217839631,21,1762115130.7415464
0.5509735345840454,0.5082420110702515,-0.2108875811100006,0.9868899583816528,0.5119979977607727,0.5358065962791443,-0.1837475299835205,0.9995126724243164,0.5312301516532898,0.5491155385971069,-0.10980039834976196,0.9976381659507751,0.47929197549819946,0.6375871300697327,-0.03471090644598007,0.99997878074646,0.48642364144325256,0.6264565587043762,0.03476902097463608,0.9999504685401917,0.4290767312049866,0.6400785446166992,-0.1583186537027359,0.9421782493591309,0.44629549980163574,0.6157123446464539,-0.02174435369670391,0.48650994896888733,0.43629130721092224,0.7545919418334961,-0.08776731789112091,0.8511001467704773,0.456409752368927,0.7332181334495544,0.052070654928684235,0.6297225952148438,0.4517274796962738,0.5998428463935852,-0.07046554982662201,0.6016967296600342,0.4952241778373718,0.6364618539810181,0.027845734730362892,0.2614421546459198,156.60007693485457,0.482857808470726,0.6320218443870544,60.69620549225824,53.24713425861397,0.322098101705252,0.01961337680602671,-0.09248012475339068,0.35263494303368315,0.02449082135188768,34.68382216777196,4.4725231771292036,22,1762115130.8147805
0.5514827966690063,0.5099838972091675,-0.20616355538368225,0.9881665110588074,0.5128682851791382,0.5374298691749573,-0.17635497450828552,0.9995236396789551,0.5261597037315369,0.5457470417022705,-0.11459536850452423,0.9977810978889465,0.4811038076877594,0.6350817680358887,-0.03240615874528885,0.99996417760849,0.48189687728881836,0.6247739791870117,0.03256837651133537,0.9999439120292664,0.4465709328651428,0.6174174547195435,-0.195954367518425,0.9457134008407593,0.43885159492492676,0.6266040205955505,-0.053524088114500046,0.5226169228553772,0.43911170959472656,0.7224878072738647,-0.11470510065555573,0.8632102608680725,0.45334258675575256,0.7582153081893921,0.0026160089764744043,0.6602178812026978,0.45348793268203735,0.5989602208137512,-0.06310418248176575,0.5560638904571533,0.4919067919254303,0.6237843632698059,0.04689010605216026,0.24093729257583618,156.71713339958825,0.4815003424882889,0.6299278736114502,48.26161204902148,67.86963739922558,0.29442100397381515,-0.0162525940494575,-0.025070578126917886,-0.4294141231129188,0.8070773121040455,32.03648257726043,10.808900418194957,23,1762115130.8983035
0.5513702630996704,0.5115469694137573,0.09954874962568283,0.9892552495002747,0.5144510269165039,0.5316416621208191,-0.0044097816571593285,0.9995561242103577,0.5384379625320435,0.547792375087738,0.0778948962688446,0.9979870915412903,0.48273950815200806,0.6305786371231079,-0.036848969757556915,0.9999640583992004,0.49213284254074097,0.6264810562133789,0.03681940212845802,0.9999463558197021,0.4350842833518982,0.6073163151741028,-0.14678820967674255,0.9487057328224182,0.44730663299560547,0.5994939208030701,-0.012283435091376305,0.5386654734611511,0.4370841085910797,0.7162879109382629,-0.11353299766778946,0.8737861514091492,0.45983800292015076,0.7318701148033142,-0.05430781841278076,0.6801667213439941,0.45409926772117615,0.6092442274093628,0.06979458034038544,0.5161054730415344,0.49398693442344666,0.6260115504264832,0.1750495880842209,0.22383971512317657,156.2879857793729,0.4874361753463745,0.6285298466682434,63.132418932079204,78.05830928948346,0.2990336206296258,0.08054026578588967,-0.018969109183782404,1.313332575848409,0.08278769670798465,33.95289065971327,5.368168381204908,24,1762115130.9720037
0.5481603741645813,0.510908305644989,0.06852531433105469,0.9902698397636414,0.5201176404953003,0.5336529612541199,0.002616647630929947,0.9995881915092468,0.529625415802002,0.5391458868980408,0.08558051288127899,0.9981772303581238,0.4847688674926758,0.6284202933311462,-0.03930363804101944,0.9999644160270691,0.48841458559036255,0.6238292455673218,0.03916468843817711,0.9999488592147827,0.4303605556488037,0.6109673380851746,-0.1220971941947937,0.952904999256134,0.429053395986557,0.6034196019172668,-0.035286881029605865,0.5594057440757751,0.43741172552108765,0.7442733645439148,-0.13069018721580505,0.8836420774459839,0.4597907066345215,0.7225510478019714,-0.033650342375040054,0.677382230758667,0.458746999502182,0.6138615012168884,0.046887967735528946,0.4785672426223755,0.48338931798934937,0.6219654679298401,0.09734297543764114,0.21581971645355225,156.89530054165542,0.48659172654151917,0.626124769449234,81.45860964169164,68.5720173212559,0.2865818718575302,-0.011531305245268644,-0.032842345671375506,-1.257276206523366,-0.1894449062612369,30.016308793262095,2.0258965263287068,25,1762115131.0452347
0.5492421388626099,0.5102036595344543,0.1216476708650589,0.9912060499191284,0.5200074911117554,0.5266256332397461,0.02458624169230461,0.9996263980865479,0.5329393148422241,0.5405940413475037,0.11468897014856339,0.9983471035957336,0.483700692653656,0.6278548836708069,-0.03894224017858505,0.9999660849571228,0.4878930151462555,0.6279683709144592,0.03885230794548988,0.9999504685401917,0.4328160881996155,0.6065184473991394,-0.10971836000680923,0.9567195177078247,0.4337529242038727,0.606142520904541,-0.013639773242175579,0.5747233033180237,0.43989449739456177,0.7299788594245911,-0.15773747861385345,0.8932902812957764,0.45903196930885315,0.7049725651741028,-0.07185740768909454,0.6873332262039185,0.46115416288375854,0.6093055605888367,0.07812737673521042,0.4494093060493469,0.48527321219444275,0.6112051010131836,0.1039968952536583,0.20240645110607147,156.66731849873446,0.48579685389995575,0.6279116272926331,91.9455899346493,87.08046642706272,0.32988456433215735,-0.01024644640799078,0.02303380714560123,0.016562700147921314,0.7202814330076275,47.206766820003175,2.514044192465017,26,1762115131.1228101
0.5490571856498718,0.5100904107093811,0.11663997173309326,0.9920386672019958,0.5272195339202881,0.5292977690696716,0.03519720956683159,0.9996582269668579,0.5282765626907349,0.5420130491256714,0.15586963295936584,0.9984897971153259,0.4848579466342926,0.628171980381012,-0.04096341133117676,0.9999646544456482,0.48211759328842163,0.6282833218574524,0.0408683605492115,0.9999480247497559,0.44294995069503784,0.6068885326385498,-0.12256190925836563,0.9604098200798035,0.42330074310302734,0.6081907749176025,-0.024017104879021645,0.5966904759407043,0.4397524893283844,0.7568015456199646,-0.16264529526233673,0.9030023217201233,0.44746360182762146,0.7171486616134644,-0.05567976087331772,0.7001202702522278,0.4638015627861023,0.6039384603500366,0.010139230638742447,0.43716639280319214,0.46819978952407837,0.5891974568367004,0.07103842496871948,0.19290177524089813,154.44678629952983,0.4834877699613571,0.6282276511192322,90.83917242010295,81.41593848313993,0.33702070253012095,-0.027753340573750528,0.0037983534259686444,-0.21041885400918361,-0.23119475617485272,85.24789456007414,4.221819006772657,27,1762115131.2060103
0.5488990545272827,0.5096930861473083,0.09628500044345856,0.9927782416343689,0.5274450778961182,0.5305799841880798,0.02754826471209526,0.9996876120567322,0.5235757231712341,0.538852870464325,0.14431026577949524,0.9986206293106079,0.4844125807285309,0.6278451681137085,-0.041381802409887314,0.9999630451202393,0.4778447151184082,0.6275268197059631,0.04130389541387558,0.9999447464942932,0.44361430406570435,0.6187190413475037,-0.14037229120731354,0.9636444449424744,0.4206846356391907,0.6096572875976562,-0.035138681530952454,0.6115663647651672,0.4396393299102783,0.7588645815849304,-0.1694766730070114,0.9115810990333557,0.4464855194091797,0.7267964482307434,-0.052975140511989594,0.705956220626831,0.4637949466705322,0.5894955396652222,0.0010269974591210485,0.4352477788925171,0.4635182023048401,0.5839189291000366,0.07205882668495178,0.18686997890472412,154.48115346788992,0.48112864792346954,0.6276859939098358,96.58355884778986,79.21110413574621,0.329568247134015,-0.031668261568102825,-0.007271070301548388,-0.052552915905367883,-0.14859316321128743,115.0662069450787,4.066514237405153,28,1762115131.2805052
0.5429617166519165,0.5094580054283142,0.017685232684016228,0.9925796389579773,0.5301365256309509,0.5443623065948486,-0.025648947805166245,0.9996566772460938,0.5137032270431519,0.5259016752243042,0.06706928461790085,0.9986912608146667,0.48790034651756287,0.6282793879508972,-0.041012056171894073,0.9999628663063049,0.47741952538490295,0.6091592907905579,0.04111544415354729,0.9999439120292664,0.44306954741477966,0.6303478479385376,-0.146613210439682,0.9669289588928223,0.4297805428504944,0.57505202293396,-0.06718376278877258,0.6313323974609375,0.43958625197410583,0.7596824765205383,-0.15892913937568665,0.9179376363754272,0.4469826817512512,0.649720311164856,-0.06270840018987656,0.6948651671409607,0.4632956385612488,0.5649573802947998,-0.025897737592458725,0.42329344153404236,0.45787039399147034,0.565940797328949,0.037548936903476715,0.1815367043018341,154.84113829483127,0.4826599359512329,0.6187193393707275,96.63919670052597,65.95726851702305,0.25410394230523564,0.022792460697682673,-0.1334641931935129,0.8106207645490371,-1.8783218713164356,-131.67486075685275,5.722671568994195,29,1762115131.3476892
0.5414987206459045,0.5088385939598083,-0.23149701952934265,0.9904732704162598,0.528511643409729,0.5460355281829834,-0.21603024005889893,0.9996336102485657,0.5178316831588745,0.5287078619003296,-0.1134461760520935,0.9982447624206543,0.48873066902160645,0.6288923621177673,-0.0406765416264534,0.9999548196792603,0.48175114393234253,0.6049526929855347,0.04072082042694092,0.9999068379402161,0.4209253191947937,0.6518115997314453,-0.13494665920734406,0.969694197177887,0.43214839696884155,0.5874263048171997,0.004660762846469879,0.6402428150177002,0.43654417991638184,0.7686848044395447,-0.11482888460159302,0.9249019026756287,0.4460473954677582,0.6707441210746765,0.09573701024055481,0.6806685924530029,0.4610859751701355,0.5092874765396118,-0.21340689063072205,0.4634440839290619,0.4657633304595947,0.5693743228912354,-0.019617684185504913,0.1826774775981903,154.50765402224872,0.4852409064769745,0.616922527551651,88.87942166104934,46.702591992258505,0.32213590729594543,0.030908183746712996,-0.021517560665024,0.09718912197371563,1.3406069745884177,-121.64773163321513,2.569846727519637,30,1762115131.4311936
0.5423897504806519,0.5081290602684021,-0.17570355534553528,0.9907196760177612,0.5136493444442749,0.5336961150169373,-0.19621145725250244,0.9996297955513,0.5233473777770996,0.5359766483306885,-0.11421066522598267,0.9981646537780762,0.4731965661048889,0.6285759210586548,-0.042790912091732025,0.9999457001686096,0.481751024723053,0.6107574701309204,0.0428561195731163,0.9998730421066284,0.41396546363830566,0.6625363826751709,-0.10826052725315094,0.9716499447822571,0.43718546628952026,0.6021917462348938,0.08534996211528778,0.6145801544189453,0.4349673390388489,0.7688139081001282,-0.08987829834222794,0.9299993515014648,0.4466121792793274,0.6834730505943298,0.12879621982574463,0.6691646575927734,0.4652971625328064,0.5631141662597656,-0.10825665295124054,0.445464164018631,0.4661221504211426,0.5814632177352905,-0.008897741325199604,0.17707140743732452,154.19124670606928,0.47747379541397095,0.6196666955947876,96.41701604070805,97.27859442923051,0.3097438503801864,-0.12057748538011696,0.04260076615589607,-2.3516801686332793,0.995379949138694,13.232923780511133,2.696271604772871,31,1762115131.4956095
0.5429626703262329,0.5081616044044495,0.15361598134040833,0.9905063509941101,0.5231029391288757,0.5342260003089905,0.07667975127696991,0.9996342658996582,0.5236279368400574,0.5545973777770996,0.16554901003837585,0.9982602000236511,0.4818069338798523,0.6230125427246094,-0.03886602073907852,0.9999421834945679,0.4819478392601013,0.637738049030304,0.03861548751592636,0.9998798966407776,0.44760483503341675,0.5546748042106628,-0.045287828892469406,0.9669467210769653,0.4239940643310547,0.624618411064148,0.0392620712518692,0.6262892484664917,0.4597338140010834,0.6295726895332336,-0.10930311679840088,0.9254490733146667,0.4399786591529846,0.7242748737335205,-0.07288747280836105,0.6828207969665527,0.46554866433143616,0.6021862626075745,0.033101439476013184,0.4150903522968292,0.4638456702232361,0.5902700424194336,0.12376372516155243,0.16561412811279297,154.2369542050551,0.4818773865699768,0.6303752958774567,47.72205801886211,75.0954869037825,0.31150134693202186,0.059097381093317546,0.14371230422192716,2.4112851717375405,1.3569441136400928,88.52373770799987,2.951250557784549,32,1762115131.5701237
0.5440431833267212,0.5081285238265991,0.17055752873420715,0.9908705949783325,0.5311230421066284,0.534142792224884,0.08397038280963898,0.9996342062950134,0.5247029662132263,0.559949517250061,0.18903662264347076,0.9982537627220154,0.4889303743839264,0.6229473352432251,-0.038672979921102524,0.9999366998672485,0.482069730758667,0.6447940468788147,0.03838483244180679,0.9998813271522522,0.456828773021698,0.5505978465080261,-0.06656591594219208,0.9676475524902344,0.4178299307823181,0.6386427283287048,0.022133149206638336,0.6416491270065308,0.4614090919494629,0.6484249830245972,-0.14560414850711823,0.9293028712272644,0.43955931067466736,0.7396519184112549,-0.08141152560710907,0.698449969291687,0.4642612040042877,0.5846839547157288,0.03270487114787102,0.39955583214759827,0.44685283303260803,0.5365183353424072,0.184787780046463,0.1574559509754181,153.96493542488278,0.4855000525712967,0.6338706910610199,61.622619489750264,88.03124499123588,0.3521489969807015,0.04538670918214947,0.04379219188720951,-0.1717746760251505,-1.2518529387835462,103.97018225338422,3.2238854570810034,33,1762115131.6499414
0.47667473554611206,0.49962133169174194,-0.2069508582353592,0.9915281534194946,0.4917709231376648,0.5277243256568909,-0.21174290776252747,0.9996687769889832,0.49690914154052734,0.5155836939811707,-0.1230011135339737,0.9983737468719482,0.4595028758049011,0.6191319227218628,-0.0460008941590786,0.999941885471344,0.4639259874820709,0.6096017360687256,0.04584832862019539,0.9998819231987,0.4168407917022705,0.6508270502090454,-0.0738840103149414,0.9695602059364319,0.4215892255306244,0.6305563449859619,0.09405447542667389,0.6119535565376282,0.4405633807182312,0.7648805379867554,-0.046671174466609955,0.9336890578269958,0.45307984948158264,0.7280693054199219,0.17322634160518646,0.6692875623703003,0.4659140110015869,0.616712212562561,-0.09985396265983582,0.440634161233902,0.4575076997280121,0.6197761297225952,-0.0805559754371643,0.15846827626228333,160.61305185167,0.461714431643486,0.6143668293952942,104.8806137251885,121.18974045471056,0.36722107028621986,-0.27385757853589976,-0.224559213488081,-3.6756436950384987,-3.089684574383194,-67.06070557838561,1.1817612915903086,34,1762115131.7367954
0.4573794901371002,0.4869147837162018,-0.15921245515346527,0.9920955300331116,0.4833630919456482,0.5025216937065125,-0.19941642880439758,0.9997013807296753,0.488582044839859,0.4995196759700775,-0.09060948342084885,0.9985064268112183,0.4515153765678406,0.615598738193512,-0.053010523319244385,0.9999433755874634,0.4548916220664978,0.6020631790161133,0.05280878022313118,0.9998648762702942,0.4146026074886322,0.6681230068206787,-0.07458667457103729,0.9672349095344543,0.4208148121833801,0.6350998282432556,0.05529901385307312,0.5757007002830505,0.43656760454177856,0.7716941237449646,-0.030376071110367775,0.9304574728012085,0.44920235872268677,0.735239565372467,0.12270566076040268,0.6263535618782043,0.46843820810317993,0.6107341051101685,-0.1503739356994629,0.4932863414287567,0.4688234329223633,0.6197466254234314,-0.03246835619211197,0.16079603135585785,163.09328431830633,0.4532034993171692,0.6088309586048126,118.22385833657412,115.1887386717762,0.33680841249130516,-0.10735651688806153,-0.06982922472204094,2.1002368896066455,1.9517571066435202,-29.908140145911187,1.301533753966772,35,1762115131.8160727
0.4537055492401123,0.490386426448822,-0.12099709361791611,0.9911432266235352,0.4850156307220459,0.4981439709663391,-0.1751333773136139,0.99973064661026,0.48630601167678833,0.5044255256652832,-0.04760187119245529,0.9986152648925781,0.453483521938324,0.61722332239151,-0.05844702571630478,0.9999440312385559,0.4543033242225647,0.6077924966812134,0.05829286575317383,0.9998413324356079,0.4152175486087799,0.6650269627571106,-0.0800895020365715,0.9621648192405701,0.42139673233032227,0.6342958807945251,0.03484056144952774,0.5468835234642029,0.4360887110233307,0.7740020155906677,-0.06157820671796799,0.932600200176239,0.4430214762687683,0.7355385422706604,0.07843827456235886,0.6010072231292725,0.4714807868003845,0.606850266456604,-0.23735828697681427,0.5377273559570312,0.46776023507118225,0.6131311655044556,0.03217685967683792,0.15598471462726593,164.0596754580166,0.45389342308044434,0.6125079095363617,123.28697961018871,100.06860340352578,0.2947039840075873,0.00956994367995132,0.05100304584643775,1.6218888258320139,1.6760663795252064,78.39157202415673,1.4950100296756212,36,1762115131.8881655
0.4672916829586029,0.49725696444511414,0.02456408366560936,0.9900428652763367,0.49331575632095337,0.49896910786628723,-0.08401568233966827,0.9997571110725403,0.4887120723724365,0.5124781131744385,0.06990779936313629,0.9987170696258545,0.46165862679481506,0.6266517043113708,-0.06457947939634323,0.9999480843544006,0.46662741899490356,0.6271443367004395,0.06417988240718842,0.9998461604118347,0.4168950915336609,0.6611251831054688,-0.09636372327804565,0.9634110331535339,0.4221735894680023,0.6379881501197815,0.0349535308778286,0.5100212693214417,0.4362989068031311,0.7724143266677856,-0.061090826988220215,0.9316118359565735,0.442167192697525,0.7379457950592041,0.08425497263669968,0.5609246492385864,0.4746655821800232,0.6057229042053223,-0.14157138764858246,0.5650948286056519,0.4799790382385254,0.6151248216629028,0.04874268174171448,0.14615821838378906,167.49676793661658,0.4641430228948593,0.6268980205059052,103.92735597919432,78.31110038977836,0.2597694038354927,0.12263288100685193,0.17217265046012356,1.3527585457526816,1.4497519877155873,108.81840694507204,1.364024773742408,37,1762115131.971745
0.4653768539428711,0.49756649136543274,-0.07861514389514923,0.9865644574165344,0.49151095747947693,0.4996730089187622,-0.16391976177692413,0.9997801780700684,0.49696606397628784,0.5109454989433289,-0.03121950663626194,0.9988040328025818,0.46410903334617615,0.6309136748313904,-0.060511667281389236,0.9999504089355469,0.46731171011924744,0.6268642544746399,0.06024101376533508,0.9998385310173035,0.41788941621780396,0.6646141409873962,-0.10329084098339081,0.9637822508811951,0.42214637994766235,0.6396148204803467,0.034715957939624786,0.4901973605155945,0.43603944778442383,0.7713356614112854,-0.05588167905807495,0.9336258172988892,0.44320639967918396,0.7340222001075745,0.09147349745035172,0.545210599899292,0.4745391309261322,0.6053608655929565,-0.12129420042037964,0.5821220278739929,0.4777548313140869,0.6161770224571228,0.03636104613542557,0.13969339430332184,167.00109395735785,0.4657103717327118,0.6288889646530151,94.95739963286216,78.48554206490903,0.2739355997548393,0.020043592331286473,0.025460619790110432,-1.3119337763934573,-1.876184842727219,64.17622462979062,1.4550699619493117,38,1762115132.049942
0.47962942719459534,0.47358083724975586,-0.0786055475473404,0.9777384996414185,0.5004722476005554,0.486349880695343,-0.16032876074314117,0.9998018741607666,0.4985927939414978,0.48895463347435,-0.007555621210485697,0.998820960521698,0.4700203835964203,0.6297973990440369,-0.061148833483457565,0.9999542832374573,0.46773356199264526,0.6218445897102356,0.06093551591038704,0.9998416304588318,0.4190627932548523,0.6624164581298828,-0.1269746869802475,0.9645701050758362,0.4214234948158264,0.6411901712417603,0.03449087589979172,0.46852192282676697,0.4365324378013611,0.7713779807090759,-0.06453912705183029,0.9365126490592957,0.44850945472717285,0.7314077615737915,0.09944121539592743,0.526442289352417,0.47638019919395447,0.6052723526954651,-0.16448453068733215,0.6183204054832458,0.4771299362182617,0.6135368943214417,0.05309518054127693,0.1326623111963272,167.49040503104627,0.4688769727945328,0.6258209943771362,82.67289847669034,79.10847936101139,0.2962826932926267,0.04964968337395517,-0.048103234295796764,0.46419899997244757,-1.1534203367672626,125.81224988368635,1.375996234514329,39,1762115132.113721
0.5071345567703247,0.4759131073951721,0.13311822712421417,0.9779105186462402,0.5161693692207336,0.47746115922927856,0.0251289214938879,0.9998215436935425,0.5236276388168335,0.4992106258869171,0.18829871714115143,0.9988698363304138,0.48661094903945923,0.6210804581642151,-0.06007556989789009,0.9999585151672363,0.48486003279685974,0.6274703145027161,0.059832602739334106,0.9998519420623779,0.4191659986972809,0.6608973145484924,-0.1268000453710556,0.967494010925293,0.4186529517173767,0.641554594039917,0.04212261363863945,0.46273961663246155,0.4368368089199066,0.775646984577179,-0.13545729219913483,0.940872848033905,0.450051873922348,0.7153364419937134,0.09266297519207001,0.49812066555023193,0.4785730242729187,0.6043019890785217,-0.0130839291960001,0.6215239763259888,0.48668187856674194,0.6200975775718689,0.1504649966955185,0.12174177914857864,165.89311265144764,0.4857354909181595,0.6242753863334656,109.27605385904151,73.04056905528867,0.31718145071971354,0.24506897029771602,-0.022468200880324404,2.840771832466218,0.3726514511303829,71.0722685810461,1.3923703692764444,40,1762115132.1825118
0.5069065690040588,0.4808034300804138,0.017150523141026497,0.9786339998245239,0.5157346725463867,0.4838583767414093,-0.07907773554325104,0.9998387694358826,0.5341187715530396,0.5047116875648499,0.07672284543514252,0.9989075064659119,0.48961877822875977,0.6307016015052795,-0.06566917151212692,0.9999605417251587,0.4969243109226227,0.638299286365509,0.06547299027442932,0.9998554587364197,0.4210204482078552,0.6631714105606079,-0.11542253196239471,0.9692748188972473,0.4352361261844635,0.6553627252578735,0.046804726123809814,0.4507625699043274,0.43942388892173767,0.7764702439308167,-0.0582222044467926,0.9453038573265076,0.47466975450515747,0.7451342344284058,0.10443122684955597,0.5031910538673401,0.4782947897911072,0.6046950817108154,-0.07043831050395966,0.6308199167251587,0.4990946352481842,0.63448166847229,0.11029601097106934,0.11336785554885864,167.2781198907905,0.4932715445756912,0.6345004439353943,87.88494573497857,74.89220330811926,0.28446577557005914,0.10324716473293613,0.14008767116128357,-1.9430195148935747,2.2270851113450028,48.60087738788028,1.094594985790602,41,1762115132.2555022
0.5282668471336365,0.48185548186302185,0.11421354860067368,0.9796162843704224,0.527569055557251,0.48939716815948486,-0.004921765998005867,0.9998543858528137,0.5487932562828064,0.531074583530426,0.16769003868103027,0.9989973306655884,0.5036008954048157,0.6340339183807373,-0.06355029344558716,0.9999640583992004,0.5151090621948242,0.6522330641746521,0.0632934719324112,0.9998685121536255,0.42202049493789673,0.6601542830467224,-0.08115362375974655,0.9719513058662415,0.4617566466331482,0.6769112348556519,0.06434810161590576,0.4666311740875244,0.44030171632766724,0.7757086157798767,-0.08515121787786484,0.9497008919715881,0.4962838292121887,0.7666341066360474,0.02894817292690277,0.5270238518714905,0.47877779603004456,0.6043655276298523,-0.04956527799367905,0.631859302520752,0.504640519618988,0.6445068120956421,0.1903165727853775,0.1061868742108345,167.76182660774586,0.50935497879982,0.6431334912776947,98.97589226474713,93.18547413758172,0.3279544893614518,0.21664674173108484,0.11628869505454803,1.5275126274633102,-0.3205764737934571,63.01255584829536,1.0916855374646637,42,1762115132.3297403
0.518793523311615,0.4829886257648468,0.12441550195217133,0.9813917875289917,0.5207327604293823,0.4913366138935089,0.012869985774159431,0.9998686909675598,0.5406469702720642,0.5291339159011841,0.17771689593791962,0.9990928769111633,0.49721843004226685,0.6330016851425171,-0.061974067240953445,0.9999675154685974,0.5118309259414673,0.6493027210235596,0.06171043589711189,0.9998810291290283,0.42408275604248047,0.6594088077545166,-0.055817026644945145,0.9745420813560486,0.4786972403526306,0.6867150068283081,0.08588553965091705,0.4865662455558777,0.4411621689796448,0.7756409645080566,-0.12618102133274078,0.954189658164978,0.5054377317428589,0.7734139561653137,0.004420434590429068,0.5613722801208496,0.4796527028083801,0.6045640707015991,-0.03575022518634796,0.6340203881263733,0.5180529356002808,0.6475744247436523,0.18005098402500153,0.10257582366466522,168.69772672033722,0.5045246779918671,0.6411522030830383,97.46035918387514,93.28678733906256,0.348423720501059,-0.06404037817795606,-0.02626802145663629,-3.7213643670101684,-1.8900243277091102,62.21666406946601,1.194160215556887,43,1762115132.4051661
0.5123084783554077,0.4727649688720703,-0.02001967653632164,0.9777930974960327,0.5308147668838501,0.48314565420150757,-0.11295659840106964,0.999881386756897,0.5335949063301086,0.4869612753391266,0.11802408844232559,0.9987555146217346,0.5062265992164612,0.6331332325935364,-0.0687830001115799,0.9999671578407288,0.5022411346435547,0.6305416226387024,0.06862261891365051,0.9998565316200256,0.4266780912876129,0.6587108373641968,-0.13171614706516266,0.9745017290115356,0.44941458106040955,0.6773794293403625,0.06571450084447861,0.47519558668136597,0.44189199805259705,0.7768920660018921,-0.06927897036075592,0.95417720079422,0.48925384879112244,0.7665373086929321,0.10909074544906616,0.5558086037635803,0.48022422194480896,0.6048723459243774,-0.11557880789041519,0.6680399775505066,0.46989959478378296,0.6048793792724609,0.10174484550952911,0.10014411062002182,169.21113705124944,0.5042338669300079,0.6318374276161194,81.34904385350453,104.9278501026374,0.3052035336272781,-0.004325983564986399,-0.1385626988320997,0.8882863259649705,-1.6704485917974448,53.92215511312627,1.0161068394818211,44,1762115132.4723904
0.5044392347335815,0.47346433997154236,-0.1603737771511078,0.9796057343482971,0.5346378087997437,0.49813684821128845,-0.19132772088050842,0.9998924136161804,0.5183357000350952,0.4819778800010681,-0.05029771476984024,0.9988073706626892,0.5093231797218323,0.63499915599823,-0.06111515313386917,0.9999656081199646,0.5012263655662537,0.6144194602966309,0.061142344027757645,0.9998553395271301,0.4286685585975647,0.6586558818817139,-0.1206902414560318,0.9754887223243713,0.45218294858932495,0.6467021703720093,0.04833146557211876,0.489238440990448,0.4426441788673401,0.7768979668617249,-0.025741498917341232,0.9535074830055237,0.49533796310424805,0.7559494972229004,0.08844004571437836,0.558747410774231,0.4844951033592224,0.6053766012191772,-0.18188819289207458,0.6964321732521057,0.4715019166469574,0.5849098563194275,-0.08657531440258026,0.10036997497081757,171.04765570406923,0.505274772644043,0.6247093081474304,75.28115227908695,96.90200877013702,0.35190837703530137,0.013809286584112223,-0.09456595657193466,0.24059349410082062,0.5836874699080492,-135.25265016608898,0.7425521981722975,45,1762115132.5477676
0.503854513168335,0.4768645763397217,-0.194127157330513,0.9814186096191406,0.539420485496521,0.5043866634368896,-0.20083463191986084,0.9999023079872131,0.5077643394470215,0.48097389936447144,-0.06828191876411438,0.9987684488296509,0.5126916170120239,0.636579692363739,-0.05561705306172371,0.9999634027481079,0.4983919560909271,0.6115426421165466,0.05568578094244003,0.9998355507850647,0.4346678853034973,0.6583096385002136,-0.13229461014270782,0.9764604568481445,0.4416494369506836,0.630203902721405,0.010778321884572506,0.5181971192359924,0.4454786777496338,0.7765008807182312,-0.050170671194791794,0.9551160931587219,0.494353711605072,0.7343611717224121,0.06486794352531433,0.5772124528884888,0.4850911498069763,0.6056325435638428,-0.2078271210193634,0.722497284412384,0.4764482080936432,0.5872461795806885,-0.0693298876285553,0.10182473808526993,172.17702099171896,0.5055417865514755,0.6240611672401428,73.49937660688687,68.80825231684942,0.34546138977580115,0.003604492671528712,-0.00874942872039806,-0.1377572622566821,1.1584604289386473,-143.51351285399883,0.5683708881497315,46,1762115132.6218457
0.4984392523765564,0.443663626909256,-0.19200178980827332,0.9831721782684326,0.53304123878479,0.4970720112323761,-0.21079424023628235,0.999911367893219,0.5015980005264282,0.4642349183559418,-0.06301932036876678,0.9988390803337097,0.507503867149353,0.6358886957168579,-0.05593455955386162,0.9999634027481079,0.4970778524875641,0.6070665121078491,0.05594006925821304,0.9998383522033691,0.43341678380966187,0.6585985422134399,-0.12009314447641373,0.9780498743057251,0.4439179301261902,0.6335245966911316,0.026780519634485245,0.5471343994140625,0.44630807638168335,0.7777082920074463,-0.011646893806755543,0.9564574956893921,0.4913182258605957,0.7350949048995972,0.0922301784157753,0.5988240838050842,0.4847742021083832,0.6062347888946533,-0.21710653603076935,0.748237669467926,0.4729316830635071,0.5937116146087646,-0.03595283254981041,0.10748372226953506,173.90844736293755,0.5022908598184586,0.6214776039123535,71.31759584756985,78.30343216696006,0.39069551229052324,-0.043815049983451315,-0.03482051908239959,-0.6391068769772571,-0.35137861328362663,-133.75779305944502,0.49851933710664825,47,1762115132.6960423
0.4934796690940857,0.4260646402835846,-0.1993032991886139,0.98477703332901,0.5310527682304382,0.4884034991264343,-0.21402087807655334,0.9999192357063293,0.4969286024570465,0.4602362811565399,-0.05569206550717354,0.9988650679588318,0.5089531540870667,0.635572612285614,-0.057333819568157196,0.9999628067016602,0.4970271587371826,0.6062207818031311,0.05741582065820694,0.9998385906219482,0.43333888053894043,0.6584430932998657,-0.1256381720304489,0.9792738556861877,0.438671350479126,0.6179754734039307,0.027365610003471375,0.5740801692008972,0.4474407732486725,0.7779892086982727,-0.02870827354490757,0.9571629762649536,0.4883694648742676,0.7346312403678894,0.09297433495521545,0.6193907856941223,0.4842972755432129,0.606913149356842,-0.22614555060863495,0.7711799740791321,0.47513142228126526,0.5937644839286804,-0.04233390837907791,0.10926228016614914,175.7080214050826,0.5029901564121246,0.6208966970443726,72.13006046639076,68.42925079895787,0.40407793594844915,0.00930017883358647,-0.007725674351648979,0.7063971586013464,0.36034338469059635,-140.4626046172372,0.3448333189122333,48,1762115132.771234
0.4802764356136322,0.35995814204216003,-0.1586311012506485,0.9862430095672607,0.5240045189857483,0.4522685706615448,-0.22321145236492157,0.9999258518218994,0.5039254426956177,0.4299986660480499,-0.018569564446806908,0.9989382028579712,0.5057277083396912,0.631568968296051,-0.06747104972600937,0.9999589323997498,0.5016399621963501,0.6033567786216736,0.06752219796180725,0.9998398423194885,0.43252938985824585,0.6583234071731567,-0.05228632688522339,0.9796703457832336,0.46584439277648926,0.6502232551574707,0.15266594290733337,0.5919604301452637,0.44666680693626404,0.7770559787750244,0.07292589545249939,0.9579188823699951,0.5051273107528687,0.7668657898902893,0.23824159801006317,0.6405718922615051,0.4837050437927246,0.607302725315094,-0.200971320271492,0.7922773361206055,0.4765591621398926,0.5900101065635681,3.446924893069081e-06,0.11037232726812363,176.66306043157735,0.5036838352680206,0.6174628734588623,107.10295703648502,136.9506592638632,0.5181663915076722,0.010386731258724033,-0.05141601545068668,0.016269384517770012,-0.6541929709123624,-132.0385729867895,0.3849006436050959,49,1762115132.8380191
0.4812960624694824,0.3500290811061859,-0.12611353397369385,0.9875797033309937,0.5225338935852051,0.42660027742385864,-0.1963382065296173,0.9999319911003113,0.5055110454559326,0.4095103442668915,0.03778652846813202,0.998980700969696,0.5127741694450378,0.6250167489051819,-0.0742298811674118,0.9999597072601318,0.5014725923538208,0.6001695990562439,0.07425084710121155,0.9998493790626526,0.43201929330825806,0.6593561768531799,-0.07852930575609207,0.9799765944480896,0.4568881392478943,0.6493571996688843,0.11901825666427612,0.618434727191925,0.44653835892677307,0.7766163349151611,0.06360213458538055,0.9569851160049438,0.4987730383872986,0.7623124122619629,0.18880152702331543,0.6628642678260803,0.4833306670188904,0.6086416840553284,-0.1877448856830597,0.8125986456871033,0.47287517786026,0.5313085317611694,0.09608905017375946,0.11838335543870926,177.9689143203719,0.5071233808994293,0.6125931739807129,97.9392097437181,127.66686208882084,0.48955455647932045,0.046005217102913415,-0.06513406296239604,0.47641065121379567,-0.18348404749780806,-134.8873242270051,0.24462266183190864,50,1762115132.9127834
0.4854606091976166,0.3532646596431732,-0.10936938226222992,0.9887570142745972,0.5226814150810242,0.4292476177215576,-0.19478189945220947,0.9999362826347351,0.5074693560600281,0.41037216782569885,0.042829517275094986,0.9990358352661133,0.5149785280227661,0.6253020167350769,-0.07535958290100098,0.9999545812606812,0.5033072233200073,0.6040000915527344,0.07539025694131851,0.9998522996902466,0.4318321645259857,0.6593639254570007,-0.07733391225337982,0.9791894555091858,0.45627522468566895,0.6512209177017212,0.1256236732006073,0.6384946703910828,0.44592785835266113,0.7763235569000244,0.0692577064037323,0.9536209106445312,0.5032306909561157,0.7652023434638977,0.196373850107193,0.679679811000824,0.4829902648925781,0.6109803318977356,-0.188410222530365,0.8306942582130432,0.4698548913002014,0.5356454849243164,0.10641323029994965,0.13040022552013397,178.25600096519483,0.5091428756713867,0.6146510541439056,98.58233870171027,124.54986479958171,0.48278036208946223,0.026543497131110295,0.027048020607120363,-0.25579769525094154,1.2116074301076951,-128.86595544741542,0.1943391591754491,51,1762115132.9888659
0.48773640394210815,0.35491877794265747,-0.10394952446222305,0.9898401498794556,0.5239771604537964,0.4263595640659332,-0.19497014582157135,0.9999402761459351,0.5081371068954468,0.4124622642993927,0.04444582015275955,0.9990771412849426,0.5188767313957214,0.6267178654670715,-0.07723131030797958,0.9999495148658752,0.5049036741256714,0.6061433553695679,0.07726335525512695,0.99985271692276,0.43167442083358765,0.6595426201820374,-0.08372186869382858,0.9785043001174927,0.4543338418006897,0.6556459069252014,0.11802303791046143,0.6571080684661865,0.44447803497314453,0.7784227132797241,0.05958080291748047,0.952122688293457,0.5063697099685669,0.765074610710144,0.18990330398082733,0.6977238059043884,0.48281288146972656,0.6121618747711182,-0.1842031478881836,0.8469132781028748,0.4697631895542145,0.5376905202865601,0.11508941650390625,0.1368904411792755,178.78838527030095,0.5118902027606964,0.6164306104183197,96.1102660572404,119.78236812361857,0.4756033940983394,0.03645497197018589,0.023613378383508597,0.13151784468899602,-0.04557512881396469,-138.7378456090195,0.1285267012918806,52,1762115133.064228
0.48867639899253845,0.35632702708244324,-0.1019037738442421,0.9908345341682434,0.5243228077888489,0.4306870698928833,-0.18822012841701508,0.9999433755874634,0.508802056312561,0.4140546917915344,0.037517063319683075,0.9991256594657898,0.5176846385002136,0.6286364793777466,-0.07399271428585052,0.9999420046806335,0.5059095621109009,0.6073745489120483,0.07399449497461319,0.9998458027839661,0.43158310651779175,0.6601966619491577,-0.08196433633565903,0.9785590171813965,0.4531339108943939,0.651459276676178,0.11255322396755219,0.6720662713050842,0.44346290826797485,0.7794724106788635,0.050457913428545,0.9520300626754761,0.5026960968971252,0.7637254595756531,0.17805442214012146,0.7091609239578247,0.4825986921787262,0.6124548316001892,-0.1807171255350113,0.8615191578865051,0.47006577253341675,0.5395762324333191,0.1080012172460556,0.14697003364562988,178.6046467737526,0.5117971003055573,0.6180055141448975,95.88499588713842,116.29779911987347,0.4684219691193767,-0.0012522768670309653,0.021183281382282766,-0.5071822796471627,-0.03268607959615918,-133.01990796753034,0.15511140859901867,53,1762115133.1385746
0.48897966742515564,0.35577675700187683,-0.08655662089586258,0.991726815700531,0.5268024802207947,0.42965036630630493,-0.18177223205566406,0.9999452829360962,0.5129765868186951,0.4161135256290436,0.05010224133729935,0.9991630911827087,0.5195724368095398,0.6338074207305908,-0.0727069079875946,0.9999330043792725,0.5085669755935669,0.6117106080055237,0.07271668314933777,0.9998347163200378,0.4314221739768982,0.660276472568512,-0.0931515172123909,0.9780676960945129,0.45297497510910034,0.6596733927726746,0.10844216495752335,0.6802700757980347,0.4429587423801422,0.7808985114097595,0.03333967179059982,0.9515173435211182,0.5055989027023315,0.763081431388855,0.17115528881549835,0.7179481983184814,0.4825112819671631,0.6150801181793213,-0.1575135737657547,0.8746793270111084,0.47114062309265137,0.5372971296310425,0.12612734735012054,0.16310591995716095,178.33218808034346,0.5140697062015533,0.6227590143680573,88.57659502971416,113.38435485327604,0.45727075492411634,0.027407343511889358,0.05732661951177435,0.3456314453945974,0.43588414758871463,-135.60523503011615,0.18140900623664147,54,1762115133.2214942
0.49259448051452637,0.35634514689445496,-0.0830688402056694,0.9925347566604614,0.5306894779205322,0.4326542615890503,-0.17706434428691864,0.9999451637268066,0.5166311264038086,0.416995108127594,0.050664328038692474,0.999188244342804,0.5210270881652832,0.6362788081169128,-0.07247084379196167,0.9999196529388428,0.5097813606262207,0.6138178706169128,0.07255043834447861,0.9998164176940918,0.43137025833129883,0.6574292778968811,-0.08852271735668182,0.9775741696357727,0.45405396819114685,0.6580619215965271,0.10766196250915527,0.6912814378738403,0.4411427080631256,0.7804318070411682,0.02705058827996254,0.952340304851532,0.505517840385437,0.7614673972129822,0.16591420769691467,0.7286274433135986,0.48257976770401,0.616651713848114,-0.14664539694786072,0.8863494396209717,0.4717484414577484,0.5384923219680786,0.10914123058319092,0.17286153137683868,177.63878754141356,0.515404224395752,0.6250483393669128,89.52967400309726,111.44094653550577,0.4522240717606353,0.017665024521716078,0.030303807335685568,-0.1289591289260301,-0.3577011102669865,-131.91661073120275,0.26963762254554535,55,1762115133.29704
0.4961608350276947,0.35523083806037903,-0.07247099280357361,0.9932560324668884,0.5303173065185547,0.43198513984680176,-0.17017893493175507,0.9999433755874634,0.5231069326400757,0.41399946808815,0.05525597929954529,0.9992005228996277,0.5199090242385864,0.6370817422866821,-0.07212373614311218,0.9999074339866638,0.5121240019798279,0.6138013005256653,0.07214494794607162,0.9997970461845398,0.4307924807071686,0.6576313972473145,-0.08889885246753693,0.9773569703102112,0.45490384101867676,0.656555712223053,0.10473261773586273,0.6991854310035706,0.4403664469718933,0.7801172733306885,0.02650158666074276,0.9533369541168213,0.5040168166160583,0.7475171685218811,0.16518446803092957,0.738567054271698,0.4827791750431061,0.6172289848327637,-0.13600927591323853,0.8963269591331482,0.47258782386779785,0.5429734587669373,0.10527527332305908,0.17090481519699097,176.97581484585092,0.5160165131092072,0.6254415214061737,89.00559709349874,108.91918114079266,0.44254600251946663,0.0072764608880930256,0.004672589364644015,-0.12345806039270493,-0.3046023076728117,-111.84562444919159,0.36448455640035526,56,1762115133.3811865
0.4989621043205261,0.3552653193473816,-0.06230216100811958,0.9939017295837402,0.530211329460144,0.43405795097351074,-0.15839383006095886,0.9999377131462097,0.5228767395019531,0.4160940945148468,0.06249526888132095,0.9992095828056335,0.5192052125930786,0.6381341218948364,-0.07100165635347366,0.9998906850814819,0.5125751495361328,0.6160759329795837,0.07105248421430588,0.99977707862854,0.4307277798652649,0.6567016839981079,-0.08523435890674591,0.9765630960464478,0.4569360315799713,0.6565978527069092,0.10256095230579376,0.7059119343757629,0.43953555822372437,0.7799916863441467,0.02525164559483528,0.9542799592018127,0.5075705051422119,0.757885754108429,0.16215762495994568,0.7468947768211365,0.48274534940719604,0.6172575950622559,-0.13050343096256256,0.9048839807510376,0.4729457497596741,0.5396242141723633,0.10440148413181305,0.17186668515205383,176.98134463944905,0.5158901810646057,0.6271050274372101,89.76358372248625,109.06784301945436,0.4428424370521524,-0.0017509235822434292,0.023055685896122606,-0.1251167936445318,0.2547841074936284,-112.2100498539122,0.3584485655789005,57,1762115133.4533381
0.49974220991134644,0.3563341498374939,-0.06937944144010544,0.994489312171936,0.5321553349494934,0.43551504611968994,-0.1605350822210312,0.9999363422393799,0.5221467614173889,0.4175119996070862,0.05812450125813484,0.9992212653160095,0.5190989971160889,0.6391444802284241,-0.0704965591430664,0.9998824000358582,0.5117338299751282,0.6173964738845825,0.0705573633313179,0.9997673034667969,0.43070992827415466,0.6577438116073608,-0.08542889356613159,0.9759816527366638,0.4561976492404938,0.6570048928260803,0.1013091430068016,0.7129055857658386,0.4395061135292053,0.780002772808075,0.02872299775481224,0.9546146392822266,0.5070071816444397,0.7617525458335876,0.16245776414871216,0.7539758086204529,0.48271194100379944,0.6182535886764526,-0.13380655646324158,0.9133270382881165,0.4731348156929016,0.5398114919662476,0.10250306129455566,0.17794182896614075,176.67129973148386,0.5154164135456085,0.6282704770565033,89.2224597128479,109.02310111183422,0.4469483734911812,-0.006979887106462049,0.017170250058835306,-0.07703688754371991,-0.08670851434379304,-119.07133573666438,0.39372870154043,58,1762115133.5212142
0.5010066032409668,0.3546120524406433,-0.0711289495229721,0.9950151443481445,0.5332344770431519,0.436068058013916,-0.16160592436790466,0.9999361038208008,0.5218265056610107,0.41851285099983215,0.05751875787973404,0.9992247819900513,0.518592357635498,0.6405887603759766,-0.06996477395296097,0.9998778104782104,0.5112336874008179,0.6185247898101807,0.07003951072692871,0.9997578859329224,0.43048763275146484,0.658778190612793,-0.08425353467464447,0.975192129611969,0.4557446539402008,0.6565282940864563,0.10529156774282455,0.7144744992256165,0.4392603933811188,0.7807555198669434,0.028597477823495865,0.9540745615959167,0.5066303014755249,0.7610768675804138,0.166774183511734,0.752659022808075,0.4825107157230377,0.6192528009414673,-0.13832888007164001,0.9211181402206421,0.4732980728149414,0.5377385020256042,0.10659690946340561,0.1871013343334198,176.43048739728758,0.514913022518158,0.6295567750930786,89.3698234958694,109.39512044666164,0.45010554555346716,-0.009331879215395087,0.023845434776843723,-0.04360130610051657,0.1237447910909048,-123.01718312845306,0.4229762826641227,59,1762115133.5751574
0.5005935430526733,0.3544812798500061,-0.07137732207775116,0.9954947829246521,0.5327972769737244,0.43662530183792114,-0.1623002141714096,0.9999377131462097,0.5215957164764404,0.41896629333496094,0.05464409664273262,0.9992464780807495,0.5183533430099487,0.6411217451095581,-0.06788848340511322,0.9998807311058044,0.5107030272483826,0.6189533472061157,0.06796614825725555,0.9997628927230835,0.43002375960350037,0.6607087850570679,-0.07866372168064117,0.9755420684814453,0.4539790749549866,0.6485435962677002,0.10514775663614273,0.7196496725082397,0.4387377202510834,0.7817035913467407,0.03693758696317673,0.9544151425361633,0.5025787353515625,0.7604934573173523,0.16741885244846344,0.7518779039382935,0.4812528192996979,0.6200116276741028,-0.13958705961704254,0.9284003973007202,0.47342056035995483,0.5328370332717896,0.11906448751688004,0.20124684274196625,176.41570697190738,0.5145281851291656,0.6300375461578369,91.33072391472318,106.44930290949844,0.4523135832393218,-0.004891480573477137,0.0061108467909341884,0.05643974394564339,-0.2254157082783634,-122.38800062035047,0.44205441257127515,60,1762115133.6538324
0.5010284781455994,0.3538157641887665,-0.07148932665586472,0.9959336519241333,0.5329692363739014,0.43698549270629883,-0.16065077483654022,0.9999397397041321,0.5216149091720581,0.4183216094970703,0.053164124488830566,0.999261736869812,0.5176799893379211,0.6408563256263733,-0.06529802829027176,0.9998825192451477,0.5104390978813171,0.6184958815574646,0.06538835912942886,0.9997631907463074,0.4297066628932953,0.6619567275047302,-0.07836570590734482,0.9763131141662598,0.4524001479148865,0.6463626027107239,0.10469596087932587,0.7265329957008362,0.43819642066955566,0.7819764614105225,0.035677701234817505,0.955062210559845,0.5005022287368774,0.7589169144630432,0.1654547154903412,0.7535354495048523,0.48093312978744507,0.6197640895843506,-0.13853862881660461,0.9350001215934753,0.4734981954097748,0.5343292951583862,0.11083340644836426,0.20916952192783356,176.252464912983,0.5140595436096191,0.629676103591919,91.1165771581651,105.37321610010113,0.451871665980989,-0.007392096544306511,-0.005701198530324284,-0.03944335682099338,-0.186316781075991,-121.31458498286072,0.4676314415530548,61,1762115133.71723
0.5015615224838257,0.35515594482421875,-0.0861152783036232,0.9963328242301941,0.5337022542953491,0.4368096590042114,-0.16129402816295624,0.9999419450759888,0.5212170481681824,0.41875380277633667,0.04430808499455452,0.9992927312850952,0.5165759325027466,0.6406964659690857,-0.06379096210002899,0.9998846650123596,0.5098239779472351,0.6179694533348083,0.06386490166187286,0.99976646900177,0.4279541075229645,0.6619842648506165,-0.07980121672153473,0.9772518873214722,0.45045170187950134,0.6464264988899231,0.1024201363325119,0.7365671396255493,0.43789738416671753,0.782061755657196,0.03323300555348396,0.955946147441864,0.5009622573852539,0.7563990354537964,0.15895798802375793,0.7594512701034546,0.4801003336906433,0.619542121887207,-0.13660824298858643,0.9408886432647705,0.4732424318790436,0.5356540083885193,0.09547694772481918,0.22203266620635986,175.95308211439675,0.5131999552249908,0.629332959651947,89.49516282161514,103.10164370267947,0.4535315463810286,-0.008907438976183417,-0.0035558108508745925,-0.015702655458521182,0.02223146586981559,-124.66295988643715,0.47173930123105623,62,1762115133.8137324
0.5018896460533142,0.35645121335983276,-0.09391114115715027,0.9966905117034912,0.5335466265678406,0.4370100200176239,-0.16267359256744385,0.999943733215332,0.5211194753646851,0.4190317690372467,0.0415424108505249,0.9993122816085815,0.5155662298202515,0.6405353546142578,-0.06333687901496887,0.9998852610588074,0.5086435675621033,0.6179593801498413,0.06340591609477997,0.9997642040252686,0.42705589532852173,0.6623538136482239,-0.08041618764400482,0.9780049920082092,0.44724369049072266,0.6436794400215149,0.10200204700231552,0.743667721748352,0.4378145635128021,0.7831858396530151,0.031988151371479034,0.9565938711166382,0.4982779622077942,0.7523960471153259,0.1583886444568634,0.7609097957611084,0.4792852997779846,0.6194136142730713,-0.1378103792667389,0.9460307359695435,0.4727838933467865,0.5386825799942017,0.07695798575878143,0.2286110669374466,175.67229433149856,0.5121048986911774,0.6292473673820496,89.11968001643585,100.3762576368458,0.45398720660325953,-0.017077904693913976,-0.0013348503777738116,-0.12742212892550178,0.03463688870608193,-124.65348792009493,0.4928608167398604,63,1762115133.8778536
0.5021144151687622,0.3553639352321625,-0.09270910173654556,0.997009813785553,0.5333737730979919,0.435224711894989,-0.16856993734836578,0.9999462962150574,0.5209980607032776,0.4182123839855194,0.03859824314713478,0.9993298053741455,0.5136431455612183,0.6385278701782227,-0.06344512850046158,0.9998867511749268,0.5069260001182556,0.614967405796051,0.06351101398468018,0.999762773513794,0.4263555407524109,0.6629031896591187,-0.07959607243537903,0.9788232445716858,0.4448038935661316,0.6405200362205505,0.10191287845373154,0.750504195690155,0.4376261234283447,0.7839230895042419,0.030407119542360306,0.9574934244155884,0.493931382894516,0.750367283821106,0.15816232562065125,0.7625285387039185,0.4792088568210602,0.6193051338195801,-0.1466393917798996,0.9508301019668579,0.4728768765926361,0.5371387600898743,0.08311286568641663,0.2308655083179474,175.17029751493484,0.5102845728397369,0.6267476379871368,90.71930869169134,100.73778278710552,0.45370780211087336,-0.02513075563425946,-0.034510353476338906,-0.11117472675609118,-0.45800891129130933,-126.03422407125146,0.5596464871660909,64,1762115133.9502878
0.5020245313644409,0.35524311661720276,-0.09765173494815826,0.9973030686378479,0.5337863564491272,0.43509700894355774,-0.17320919036865234,0.9999492168426514,0.5206149220466614,0.4176578223705292,0.029347017407417297,0.9993575811386108,0.5136435627937317,0.6366493105888367,-0.06295756250619888,0.9998906254768372,0.5061328411102295,0.611961305141449,0.06302385032176971,0.9997681975364685,0.42640575766563416,0.6629132032394409,-0.07445968687534332,0.9798324704170227,0.44338783621788025,0.634823739528656,0.10184776782989502,0.7595002055168152,0.4375377595424652,0.7855515480041504,0.02998979389667511,0.9589160680770874,0.4920310974121094,0.7465322613716125,0.15763267874717712,0.7662478685379028,0.4791823923587799,0.6183490753173828,-0.14882344007492065,0.9551313519477844,0.472924143075943,0.5372284650802612,0.07894293963909149,0.23445987701416016,175.0011518384896,0.5098882019519806,0.6243053078651428,94.05431754262155,99.26993609311738,0.4547532725676126,-0.005520229774376172,-0.03401416167217306,0.27311442915415773,0.0069104287316919975,-127.06294932347583,0.5792315140067068,65,1762115134.0220912
0.5019590258598328,0.35419151186943054,-0.10002332925796509,0.9975671172142029,0.534054160118103,0.4353226125240326,-0.17488616704940796,0.9999518990516663,0.5205057263374329,0.4174625873565674,0.025482434779405594,0.9993791580200195,0.5135015249252319,0.6363367438316345,-0.06271612644195557,0.9998946189880371,0.5055575370788574,0.6110618114471436,0.06277912110090256,0.9997735023498535,0.426500141620636,0.6627325415611267,-0.0749775841832161,0.980729877948761,0.4417787492275238,0.6365209221839905,0.09972096979618073,0.7681396007537842,0.43747392296791077,0.7870116233825684,0.027700815349817276,0.9604524374008179,0.4931097626686096,0.7469927668571472,0.1548646241426468,0.7711058855056763,0.47909650206565857,0.6180014610290527,-0.14876984059810638,0.9590389728546143,0.4729629158973694,0.5366051197052002,0.07962130010128021,0.23883222043514252,174.85930621784266,0.5095295310020447,0.623699277639389,94.12637214379005,98.69147710247883,0.45645935953103756,-0.004327094551060794,-0.007311297689723411,0.014394276772091971,0.3221499183494538,-127.18358483765381,0.5697745257484882,66,1762115134.1049807
0.5016762614250183,0.353964626789093,-0.09797313064336777,0.9978053569793701,0.5344766974449158,0.4354810118675232,-0.17365603148937225,0.9999549388885498,0.5194923877716064,0.41768696904182434,0.027799159288406372,0.9993941783905029,0.5130603313446045,0.6364848613739014,-0.06206582859158516,0.9998987317085266,0.5047472715377808,0.6111465692520142,0.062136661261320114,0.999776303768158,0.42655515670776367,0.6625539660453796,-0.06978031247854233,0.9814285635948181,0.4389691948890686,0.6360878944396973,0.09968529641628265,0.7735847234725952,0.4372968077659607,0.7873892784118652,0.028084779158234596,0.961470365524292,0.48980778455734253,0.7450838088989258,0.1550498753786087,0.7709373235702515,0.4791167676448822,0.6179572343826294,-0.14846578240394592,0.9627237915992737,0.47269362211227417,0.5364483594894409,0.08972356468439102,0.24352867901325226,174.76218792119198,0.5089038014411926,0.6238157153129578,96.25232261472965,97.91122019519317,0.4553538792515428,-0.007996550925643806,0.0014880226932030079,-0.04689405232641596,0.1124514773719693,-130.1006297692828,0.5872063424056776,67,1762115134.1832306
