nose_x,nose_y,nose_z,nose_visibility,left_shoulder_x,left_shoulder_y,left_shoulder_z,left_shoulder_visibility,right_shoulder_x,right_shoulder_y,right_shoulder_z,right_shoulder_visibility,left_hip_x,left_hip_y,left_hip_z,left_hip_visibility,right_hip_x,right_hip_y,right_hip_z,right_hip_visibility,left_knee_x,left_knee_y,left_knee_z,left_knee_visibility,right_knee_x,right_knee_y,right_knee_z,right_knee_visibility,left_ankle_x,left_ankle_y,left_ankle_z,left_ankle_visibility,right_ankle_x,right_ankle_y,right_ankle_z,right_ankle_visibility,left_wrist_x,left_wrist_y,left_wrist_z,left_wrist_visibility,right_wrist_x,right_wrist_y,right_wrist_z,right_wrist_visibility,trunk_lateral_inclination,center_mass_x,center_mass_y,left_knee_angle,right_knee_angle,person_height,center_mass_velocity_x,center_mass_velocity_y,center_mass_acceleration_x,center_mass_acceleration_y,body_orientation,torso_leg_ratio,frame,timestamp
0.5663847923278809,0.10811439156532288,-0.2820887565612793,0.999994158744812,0.5507441759109497,0.21999895572662354,-0.019555602222681046,0.9984166622161865,0.5156249403953552,0.2263643443584442,-0.23430626094341278,0.9999797344207764,0.5630844235420227,0.530126690864563,0.06757640838623047,0.9992355108261108,0.5368030667304993,0.5400815606117249,-0.06766916066408157,0.999714195728302,0.5658736228942871,0.7010356783866882,0.18434041738510132,0.8523035645484924,0.5497932434082031,0.7258211970329285,0.0372823141515255,0.9923238754272461,0.5497986078262329,0.8437973260879517,0.3032066226005554,0.867710530757904,0.5517673492431641,0.8903999924659729,0.15038378536701202,0.9673609733581543,0.567732036113739,0.5051990747451782,0.012412218376994133,0.12102067470550537,0.5455447435379028,0.5579734444618225,-0.20277562737464905,0.9894077181816101,-176.92452976332228,0.549943745136261,0.5351041257381439,172.10071471176957,174.17567419675518,0.9139274700584504,0.0,0.0,0.0,0.0,169.72662640249368,2.3766992619908742,0,1761939697.3277097
0.566374659538269,0.10949844866991043,-0.24933528900146484,0.9999924302101135,0.5499906539916992,0.21984678506851196,0.015139761380851269,0.9980701208114624,0.5153985619544983,0.22604846954345703,-0.22022640705108643,0.9999803304672241,0.563725471496582,0.5289720892906189,0.07110036909580231,0.9991127252578735,0.5377678871154785,0.5400413274765015,-0.07118094712495804,0.9997005462646484,0.5672620534896851,0.6938483119010925,0.18713539838790894,0.8425312042236328,0.5498491525650024,0.7238876223564148,0.03228657692670822,0.9917188882827759,0.5498694777488708,0.8405771851539612,0.30588123202323914,0.8585373759269714,0.5528053045272827,0.8858174681663513,0.13812662661075592,0.9673460125923157,0.5660221576690674,0.5043705105781555,0.04653197154402733,0.12031238526105881,0.5450863242149353,0.5557605028152466,-0.23608455061912537,0.9899132251739502,-176.68392790010014,0.5507466793060303,0.5345067083835602,172.6356791670207,175.49000434457824,0.8890718625902824,0.022042412540498085,-0.016400497431030534,0.6051155485699596,-0.45023184198030625,169.8359667897329,2.5005598408560505,1,1761939697.3630748
0.5663663148880005,0.11130508780479431,-0.24700668454170227,0.9999905824661255,0.5481230020523071,0.21981383860111237,0.016100089997053146,0.9978660941123962,0.5153903961181641,0.22604882717132568,-0.22160044312477112,0.9999810457229614,0.5637406706809998,0.528755247592926,0.07310082763433456,0.9990690350532532,0.5378509163856506,0.5403302907943726,-0.07317601889371872,0.9996960163116455,0.5673244595527649,0.6942881345748901,0.19496846199035645,0.8324246406555176,0.5497769713401794,0.7257929444313049,0.035447899252176285,0.9911969900131226,0.5497483015060425,0.8444085121154785,0.32152360677719116,0.8505029082298279,0.5527936220169067,0.8858031630516052,0.15240180492401123,0.9672349691390991,0.5644156336784363,0.5043063163757324,0.040547098964452744,0.11742064356803894,0.544802725315094,0.5551844239234924,-0.2412676066160202,0.9902395606040955,-176.5036412485954,0.5507957935333252,0.5345427691936493,172.80770400925098,173.7445928956676,0.895918417541304,0.0016480263684218947,0.001210019360309765,-0.684332993320564,0.5909203428853724,169.21535334748242,2.6149895013370426,2,1761939697.3928766
0.5663120746612549,0.11279764026403427,-0.23540940880775452,0.999988853931427,0.5464678406715393,0.21938985586166382,0.02176007628440857,0.9976392388343811,0.515354335308075,0.22608345746994019,-0.21270661056041718,0.9999815821647644,0.5637062788009644,0.5281721949577332,0.07319294661283493,0.9990209341049194,0.53835529088974,0.5403388738632202,-0.07327117025852203,0.9996898770332336,0.567047655582428,0.694610595703125,0.1938144862651825,0.8256580829620361,0.5496839284896851,0.7259361147880554,0.03468185290694237,0.9907156825065613,0.5487886667251587,0.846824586391449,0.313829243183136,0.8451672196388245,0.552681565284729,0.8862414956092834,0.14506156742572784,0.9672568440437317,0.5616359114646912,0.5050366520881653,0.05194321274757385,0.11478336900472641,0.5442184209823608,0.5548833012580872,-0.23128452897071838,0.9906042814254761,-176.30463855673605,0.5510307848453522,0.5342555344104767,173.26255627988007,175.12581403664467,0.8856916473397582,0.0065766646426498165,-0.008038794397699294,0.1379370190111717,-0.2588450862462879,167.85873102199727,2.6363405329997565,3,1761939697.4286077
0.5661969184875488,0.11334288865327835,-0.23916664719581604,0.9999873638153076,0.5463066697120667,0.21888823807239532,0.01577376388013363,0.9974908232688904,0.5143268704414368,0.2260991781949997,-0.21644647419452667,0.9999821782112122,0.5638623833656311,0.5274225473403931,0.0734267383813858,0.9990049004554749,0.5383241772651672,0.5401031374931335,-0.07350604981184006,0.9996933937072754,0.5680488348007202,0.692663848400116,0.19464942812919617,0.8229001760482788,0.5490490198135376,0.7236045598983765,0.035628072917461395,0.9905948042869568,0.548798680305481,0.8420476317405701,0.3157573938369751,0.8445516228675842,0.5525690317153931,0.8839855790138245,0.14699247479438782,0.9684009552001953,0.5618116855621338,0.5046758055686951,0.05171148106455803,0.11438038945198059,0.5428537130355835,0.5537847876548767,-0.2399248629808426,0.9909886717796326,-176.18130076902486,0.5510932803153992,0.5337628424167633,172.5682756074866,175.5497639397474,0.8852461333354779,0.0017662219526986052,-0.01392426386362105,-0.13595080531118608,-0.1663327816373121,167.29321228747304,2.641281709127796,4,1761939697.4639914
0.5660296678543091,0.11337145417928696,-0.2416004240512848,0.9999863505363464,0.5452290773391724,0.21819235384464264,0.012347392737865448,0.997417688369751,0.5140212774276733,0.2265230417251587,-0.21830780804157257,0.9999826550483704,0.5640274882316589,0.5268687009811401,0.07329083979129791,0.9990057349205017,0.5382170081138611,0.5401161909103394,-0.07337066531181335,0.9996975660324097,0.5686448812484741,0.692630410194397,0.1955510675907135,0.8228464126586914,0.5486705899238586,0.7236343622207642,0.03794708475470543,0.9905895590782166,0.5494665503501892,0.8405657410621643,0.3160605728626251,0.8454997539520264,0.5523335337638855,0.8838203549385071,0.15000557899475098,0.9693981409072876,0.5618827939033508,0.5047075152397156,0.052929628640413284,0.11454354971647263,0.5419007539749146,0.5537398457527161,-0.23450899124145508,0.991324245929718,-176.04757394447583,0.55112224817276,0.5334924459457397,172.44550942382136,175.87344321185617,0.8867015530902718,0.0007964915040906231,-0.007434740140549612,-0.02666341710928161,0.178433994845903,165.0538294073627,2.770707556449954,5,1761939697.5003607
0.5657310485839844,0.1134723350405693,-0.24393144249916077,0.9999855756759644,0.5448459386825562,0.21756643056869507,0.01365911215543747,0.9972716569900513,0.5139821171760559,0.2266661822795868,-0.2169274389743805,0.9999828338623047,0.564049243927002,0.5260100364685059,0.07325288653373718,0.9989808797836304,0.5380144119262695,0.5400675535202026,-0.07333599776029587,0.9996948838233948,0.5689256191253662,0.6919666528701782,0.19475093483924866,0.8218708634376526,0.5486475229263306,0.7226331830024719,0.03697076067328453,0.9904184937477112,0.5497157573699951,0.8394423723220825,0.31538093090057373,0.8448313474655151,0.5521460771560669,0.8832349181175232,0.14537206292152405,0.969926655292511,0.5617949962615967,0.5046695470809937,0.05359044671058655,0.11481976509094238,0.5411959886550903,0.5535271167755127,-0.2319413125514984,0.9916501641273499,-176.02274312810226,0.5510318279266357,0.5330387949943542,172.23992225380957,176.57372807887776,0.8857150123915581,-0.002218523869971395,-0.011130642830818908,-0.07397550728289948,-0.09068155298079093,163.5726092570956,2.7515276414036105,6,1761939697.5411177
0.5657259821891785,0.11349788308143616,-0.24370141327381134,0.9999846816062927,0.5449790358543396,0.2175261378288269,0.0144877340644598,0.9970932602882385,0.5140233635902405,0.2269158959388733,-0.2147691249847412,0.9999829530715942,0.5643625855445862,0.5258103609085083,0.07321295142173767,0.9989612102508545,0.5379698872566223,0.540151059627533,-0.0732952207326889,0.9996933937072754,0.5698792934417725,0.6912100315093994,0.19416716694831848,0.8218567371368408,0.548650324344635,0.7221392393112183,0.036573655903339386,0.9902647733688354,0.5501067638397217,0.8377493023872375,0.3104742467403412,0.8448042273521423,0.5520814061164856,0.8819154500961304,0.1435367614030838,0.9702178239822388,0.5618244409561157,0.5043246746063232,0.05482448264956474,0.11475402861833572,0.5408718585968018,0.5531463623046875,-0.2303735315799713,0.9920109510421753,-176.01199913906387,0.5511662364006042,0.5329807102680206,172.08473438484828,176.71766798379525,0.8824932125142296,0.0026428795784519173,-0.00114212246084319,0.09558998415132833,0.19640470370153454,163.12591935236728,2.651219853167155,7,1761939697.5919745
0.5657008290290833,0.11402607709169388,-0.24497386813163757,0.9999843835830688,0.5439364314079285,0.21743518114089966,0.014537135139107704,0.9969512820243835,0.5147494673728943,0.2289160043001175,-0.21512079238891602,0.9999829530715942,0.5636222958564758,0.5254788994789124,0.07313822209835052,0.9989337921142578,0.5382764935493469,0.5401923060417175,-0.07322026789188385,0.9996873736381531,0.5679146647453308,0.6918338537216187,0.19323758780956268,0.8214892745018005,0.5489662289619446,0.722760021686554,0.0365690216422081,0.9902085661888123,0.5496388673782349,0.8407458662986755,0.3070804178714752,0.8457047343254089,0.5521020889282227,0.8829928040504456,0.1426125317811966,0.9706906080245972,0.5607088804244995,0.5045335292816162,0.05218393728137016,0.11202450841665268,0.5409222841262817,0.553744912147522,-0.21538153290748596,0.9922734498977661,-176.00867102812768,0.5509493947029114,0.5328356027603149,173.0412225164434,176.83192821275358,0.8833009864277555,-0.0056650783269488305,-0.003790993179482388,-0.21704880920896932,-0.06920283441197958,158.52758223675036,2.8538547928923492,8,1761939697.6302514
0.565857470035553,0.11474661529064178,-0.2398252785205841,0.9999845623970032,0.5440727472305298,0.21938319504261017,0.01682351343333721,0.9969196319580078,0.5150396823883057,0.23083186149597168,-0.21371421217918396,0.9999832510948181,0.5636109709739685,0.5260199904441833,0.07310686260461807,0.9989434480667114,0.5391021966934204,0.5414746999740601,-0.0731903687119484,0.9996926784515381,0.5671957731246948,0.6926451921463013,0.1930164247751236,0.8183732628822327,0.5493096709251404,0.7227805256843567,0.03863275423645973,0.9901842474937439,0.5491396188735962,0.8413448929786682,0.307131290435791,0.8456057906150818,0.5521633625030518,0.883310079574585,0.14567433297634125,0.9717018604278564,0.5602731108665466,0.5068209171295166,0.05191494897007942,0.11182934790849686,0.5405600070953369,0.5547500848770142,-0.22391529381275177,0.9925616979598999,-175.95969796038847,0.5513565838336945,0.5337473452091217,173.2505226434453,177.19401019991986,0.8811793305499519,0.010763624102703078,0.02410096993149347,0.4342757801709116,0.7372952363331577,158.47909567517067,2.8676276818017667,9,1761939697.6680815
0.5662607550621033,0.11605832725763321,-0.24178484082221985,0.9999845027923584,0.5441094636917114,0.22039593756198883,0.015954796224832535,0.9967754483222961,0.5159386992454529,0.2326693832874298,-0.2142518311738968,0.9999833703041077,0.5635999441146851,0.5275269150733948,0.07360780984163284,0.9989049434661865,0.5389620065689087,0.5426867008209229,-0.07369564473628998,0.9996892213821411,0.5674452781677246,0.6951321363449097,0.1927884966135025,0.8172047138214111,0.5494717955589294,0.7255550026893616,0.03551262617111206,0.990227460861206,0.5499605536460876,0.8430298566818237,0.3079957664012909,0.8451879620552063,0.5523855686187744,0.8874751329421997,0.14113333821296692,0.9724096655845642,0.5600051879882812,0.5072407126426697,0.050955064594745636,0.1122402474284172,0.5405843257904053,0.5556796789169312,-0.23621301352977753,0.992767333984375,-176.0592641190047,0.5512809753417969,0.5351068079471588,173.11785399479254,176.97388134410014,0.8826105005480761,-0.0016395752227030436,0.029480040740568404,-0.26896421004838306,0.1166455116135759,156.45819405639287,2.9173079906218016,10,1761939697.7141962
0.567440390586853,0.11956633627414703,-0.25452226400375366,0.9999839663505554,0.5462926030158997,0.22089838981628418,0.013379844836890697,0.996564507484436,0.5166515111923218,0.2347269505262375,-0.22429533302783966,0.9999836683273315,0.5643362402915955,0.52754807472229,0.0747789740562439,0.9988252520561218,0.5389395952224731,0.5426759719848633,-0.07487313449382782,0.9996798038482666,0.5690206289291382,0.6959541440010071,0.191324383020401,0.8156567811965942,0.5495902299880981,0.7261592149734497,0.02498767338693142,0.9902293086051941,0.5503525733947754,0.8470162153244019,0.3031817674636841,0.8452153205871582,0.5535483360290527,0.8933250308036804,0.1226748377084732,0.9731016159057617,0.5621658563613892,0.5051798224449158,0.04056531935930252,0.11285942792892456,0.5410394072532654,0.556502640247345,-0.2556726336479187,0.9930579662322998,-176.24547068936062,0.5516379177570343,0.5351120233535767,172.77010816365046,177.4996070287848,0.8843962718521209,0.008035019455252918,0.00011740238830001341,0.21778178535424342,-0.660973200007904,154.9893748042102,2.741426030854585,11,1761939697.7586195
0.5680783987045288,0.12182039767503738,-0.25775963068008423,0.999984085559845,0.5497406125068665,0.22300076484680176,0.013237761333584785,0.9962641596794128,0.517673671245575,0.23853804171085358,-0.22396691143512726,0.9999839067459106,0.565177857875824,0.5285906791687012,0.07534711807966232,0.9987071752548218,0.5391417741775513,0.5433327555656433,-0.07544630765914917,0.9996702671051025,0.5708044767379761,0.6967189908027649,0.19149015843868256,0.8147508502006531,0.5506636500358582,0.7279373407363892,0.024461012333631516,0.9902647733688354,0.5514863729476929,0.8475106358528137,0.3037160038948059,0.8442204594612122,0.5553464293479919,0.8982150554656982,0.12278749793767929,0.973696231842041,0.5633090734481812,0.5021750926971436,0.04076213017106056,0.11248401552438736,0.5419784784317017,0.5580516457557678,-0.24779117107391357,0.993248701095581,-176.53996914578815,0.5521598160266876,0.5359617173671722,172.27517100004673,177.58804985448057,0.8866405440987687,0.012542543804361529,0.02042030986787069,0.10832728308426047,0.4879305436049254,154.14859071487854,2.5213179058800064,12,1761939697.8002298
0.5686801671981812,0.12298551946878433,-0.25656944513320923,0.9999843239784241,0.550633430480957,0.22425240278244019,0.014780918136239052,0.996015191078186,0.5186159014701843,0.2402164191007614,-0.21996895968914032,0.9999841451644897,0.5654690861701965,0.5303153395652771,0.07527866214513779,0.9986143708229065,0.5394992828369141,0.5444706678390503,-0.07537779957056046,0.9996644258499146,0.571308970451355,0.6991291642189026,0.19056831300258636,0.8137190341949463,0.5516512393951416,0.7306371927261353,0.02525303326547146,0.9903595447540283,0.5521954894065857,0.8490371108055115,0.30254608392715454,0.8434131145477295,0.5564526319503784,0.9016812443733215,0.12250758707523346,0.9743468165397644,0.5634116530418396,0.5022494196891785,0.04384903609752655,0.11175663024187088,0.542833149433136,0.5597778558731079,-0.24367110431194305,0.993439257144928,-176.65056419293407,0.5524841845035553,0.5373930037021637,172.13662237602392,177.71257338977875,0.8867488594485237,0.009089390700160342,0.04010722875467664,-0.0967635881718563,0.5516630320323741,153.49904659433398,2.4953762918323203,13,1761939697.8359163
0.5689976215362549,0.12612347304821014,-0.25147169828414917,0.9999837279319763,0.5505237579345703,0.22470678389072418,0.01443430781364441,0.9959303736686707,0.5185583829879761,0.2445824146270752,-0.2199254333972931,0.9999843835830688,0.5654622316360474,0.5321816205978394,0.0751616358757019,0.9985761046409607,0.539472222328186,0.546806812286377,-0.07525578141212463,0.999660313129425,0.5712882280349731,0.7015299201011658,0.1924649178981781,0.8116962313652039,0.551531195640564,0.7342289686203003,0.031322233378887177,0.9902785420417786,0.5520750284194946,0.8490879535675049,0.30853018164634705,0.8420689105987549,0.5555201768875122,0.9016897678375244,0.13756251335144043,0.9745265245437622,0.5631321668624878,0.5036771893501282,0.04724548012018204,0.10898305475711823,0.5425025820732117,0.5606914758682251,-0.23556813597679138,0.9936160445213318,-176.63469570719053,0.5524672269821167,0.5394942164421082,171.75778537241249,176.53651961610623,0.8870158045291804,-0.000572632782371364,0.07095513940438139,-0.3262735895793044,1.0416926182075021,148.12721912124357,2.354643298416565,14,1761939697.8655295
0.5690644979476929,0.12774014472961426,-0.2413439303636551,0.9999832510948181,0.5505093932151794,0.22828322649002075,0.01891343668103218,0.9958524703979492,0.5187000632286072,0.24531830847263336,-0.2109571248292923,0.9999842047691345,0.565072774887085,0.5371198058128357,0.07465828955173492,0.9985038638114929,0.5391678810119629,0.5500885844230652,-0.07475079596042633,0.999642550945282,0.5702313184738159,0.7083415985107422,0.18229280412197113,0.8031845092773438,0.5508238673210144,0.7386422157287598,0.025748316198587418,0.989546000957489,0.551880955696106,0.8540146946907043,0.29229936003685,0.8318478465080261,0.5525410175323486,0.9034957885742188,0.1255868822336197,0.9726558327674866,0.5619357824325562,0.5139992833137512,0.0504634752869606,0.10979357361793518,0.5423070192337036,0.5625906586647034,-0.23503215610980988,0.9937490224838257,-176.73249497251194,0.5521203279495239,0.5436041951179504,171.2808984163306,175.8958235570486,0.875823124476526,-0.009468279636366003,0.11217796461271157,-0.2427982324726014,1.1251378637647969,151.82929073445925,2.105846217202464,15,1761939697.9021676
0.5692189931869507,0.12959712743759155,-0.23963436484336853,0.999982476234436,0.5507510900497437,0.23024985194206238,0.018955234438180923,0.9957340359687805,0.5188044309616089,0.24591286480426788,-0.20809538662433624,0.9999842047691345,0.5650705099105835,0.5393014550209045,0.07406893372535706,0.9984031319618225,0.5390961170196533,0.5519184470176697,-0.07415896654129028,0.999622106552124,0.5706216096878052,0.709132194519043,0.17607566714286804,0.7963014841079712,0.5499740242958069,0.7393048405647278,0.019127413630485535,0.9888622164726257,0.5518547296524048,0.8535510301589966,0.27974990010261536,0.8220585584640503,0.5516465902328491,0.9029788374900818,0.11116685718297958,0.9702829718589783,0.5617183446884155,0.5172827243804932,0.05104798078536987,0.11025096476078033,0.5421571135520935,0.5637195110321045,-0.23469579219818115,0.9939013719558716,-176.7791921148139,0.5520833134651184,0.5456099510192871,171.0400428517545,176.1849059447143,0.8660914053498612,-0.001068354012262846,0.0578924007514606,0.24244817636531424,-1.5668514877509196,153.8819145208111,2.0244776575676133,16,1761939697.9368138
0.5693587064743042,0.13193224370479584,-0.23229463398456573,0.9999812841415405,0.5506846308708191,0.23144803941249847,0.01831934228539467,0.9957516193389893,0.5187686681747437,0.24790695309638977,-0.2075222283601761,0.9999841451644897,0.5648175477981567,0.539754331111908,0.07313023507595062,0.998357892036438,0.5387575030326843,0.5530818104743958,-0.07321249693632126,0.9996098875999451,0.5703418254852295,0.7097663283348083,0.17827560007572174,0.7898592948913574,0.5487920045852661,0.7401034832000732,0.019711408764123917,0.9880822896957397,0.5513488054275513,0.855550229549408,0.28637272119522095,0.8143941164016724,0.5501667261123657,0.9033917784690857,0.11547006666660309,0.968527615070343,0.5608217716217041,0.5171860456466675,0.05067267268896103,0.11156423389911652,0.5413880944252014,0.5648260116577148,-0.23014971613883972,0.9940134882926941,-176.81649535179506,0.5517875254154205,0.5464180707931519,171.02948552643574,175.37961553807077,0.8641969220006895,-0.008462422580557146,0.02312010586341437,-0.21154246386368078,-0.9948267137193518,152.7200523404332,1.9365024790052656,17,1761939697.971767
0.5694153308868408,0.13374918699264526,-0.23110918700695038,0.9999793767929077,0.5503742694854736,0.23199979960918427,0.01815066859126091,0.9955770373344421,0.5187414884567261,0.24791903793811798,-0.2085651159286499,0.9999838471412659,0.564045786857605,0.5404841303825378,0.07301302999258041,0.9982807040214539,0.5381234884262085,0.5537748336791992,-0.07309329509735107,0.9995970726013184,0.5694646835327148,0.7109037637710571,0.17834731936454773,0.785452127456665,0.5473427772521973,0.7400761246681213,0.01984284445643425,0.9878743290901184,0.5504903197288513,0.8559574484825134,0.29343855381011963,0.8094968795776367,0.5466339588165283,0.9040178656578064,0.12127907574176788,0.9681054949760437,0.5590990781784058,0.5195169448852539,0.05142848938703537,0.11200030148029327,0.5404905676841736,0.5663632750511169,-0.23018646240234375,0.9940518140792847,-176.92026824432986,0.5510846376419067,0.5471294820308685,170.00819980208107,174.07676373498987,0.8657718512469726,-0.018316682509800997,0.01853879704012973,-0.2567939823319056,-0.11938517407403443,153.28611388431668,1.679106494388177,18,1761939698.0101411
0.5693295001983643,0.1361602395772934,-0.23152956366539001,0.9999778270721436,0.5493526458740234,0.23236434161663055,0.01822088100016117,0.99537593126297,0.5184957385063171,0.24760355055332184,-0.20681913197040558,0.9999833703041077,0.5607531666755676,0.5401409268379211,0.07295139133930206,0.998231828212738,0.5350319147109985,0.5535261034965515,-0.07303383201360703,0.9995808601379395,0.5666188597679138,0.7120431661605835,0.17690825462341309,0.7855278849601746,0.5455294251441956,0.7413151860237122,0.020280513912439346,0.9878617525100708,0.546565055847168,0.859310507774353,0.2859852910041809,0.8100336194038391,0.5412454605102539,0.9068171381950378,0.11848233640193939,0.9682005047798157,0.5567582249641418,0.5187274813652039,0.05668769031763077,0.11062770336866379,0.5396161675453186,0.5669048428535461,-0.22413627803325653,0.9941279888153076,-177.39359164670927,0.5478925406932831,0.5468335151672363,170.4328361761625,174.046387379117,0.8640960725146113,-0.06920330493931813,-0.006416435792999359,-1.1032003432227213,-0.5410188397715625,153.71675289915,1.1477798954191523,19,1761939698.0562675
0.5692030191421509,0.13742738962173462,-0.2338896095752716,0.9999772310256958,0.5484738349914551,0.2323751449584961,0.016519492492079735,0.9953492879867554,0.5178913474082947,0.24747373163700104,-0.2079615294933319,0.9999833106994629,0.5582910776138306,0.5399082899093628,0.07296707481145859,0.9982019066810608,0.5329173803329468,0.553320586681366,-0.07305224239826202,0.9995696544647217,0.564701497554779,0.7131674289703369,0.17804308235645294,0.7832971811294556,0.5437808632850647,0.7420349717140198,0.021411288529634476,0.9876806139945984,0.5446656942367554,0.8607194423675537,0.28845101594924927,0.80804443359375,0.539583683013916,0.9074373841285706,0.12067583948373795,0.9679206013679504,0.5557174682617188,0.5182035565376282,0.054562605917453766,0.1120254248380661,0.5392835140228271,0.5669956803321838,-0.2248777449131012,0.9941979646682739,-177.6806591925905,0.5456042289733887,0.5466144382953644,170.23371947522062,173.92508829070007,0.8662921291205379,-0.04838101935165162,-0.004631869987549211,0.4402387110131111,0.03773048576256182,153.7244277111764,1.0250997470502516,20,1761939698.1035652
0.5691643953323364,0.13694964349269867,-0.2359638661146164,0.9999769330024719,0.5477805137634277,0.2322290688753128,0.0161513090133667,0.9953808784484863,0.5168702006340027,0.24737760424613953,-0.21033653616905212,0.999983549118042,0.5571016669273376,0.5397772192955017,0.07356803864240646,0.9982132315635681,0.5315788984298706,0.5529928803443909,-0.07366081327199936,0.9995684623718262,0.5637465119361877,0.7131195664405823,0.18345430493354797,0.7831186056137085,0.5424352288246155,0.7417410016059875,0.02191314287483692,0.9877302050590515,0.5418471097946167,0.8592538833618164,0.29398638010025024,0.8085806369781494,0.5393664240837097,0.9073219895362854,0.12172837555408478,0.9680697321891785,0.5547513365745544,0.5162554383277893,0.05230514332652092,0.11366584151983261,0.5377064347267151,0.5668889880180359,-0.23497898876667023,0.9943081140518188,-177.7557291044504,0.5443402826786041,0.5463850498199463,170.11868753193735,174.2719750530415,0.8688001394143977,-0.03418720053653535,-0.006204496063042904,0.38391419968863816,-0.04253636664289766,153.8914362842723,0.9623408837930422,21,1761939698.1405365
0.5689881443977356,0.13574029505252838,-0.235569566488266,0.9999760985374451,0.5477672815322876,0.23158563673496246,0.016926590353250504,0.9952327609062195,0.5163258910179138,0.24621400237083435,-0.20892974734306335,0.9999834299087524,0.5573458671569824,0.5395979285240173,0.07350651919841766,0.9981775879859924,0.5316417217254639,0.552941620349884,-0.07359848916530609,0.9995596408843994,0.5633887052536011,0.7127870917320251,0.18099907040596008,0.7838962078094482,0.5426396131515503,0.7416088581085205,0.021686747670173645,0.9878224730491638,0.5416105389595032,0.8579472303390503,0.28760287165641785,0.809704601764679,0.5396980047225952,0.9051288962364197,0.11796532571315765,0.968286395072937,0.5550686120986938,0.5136194229125977,0.05217225104570389,0.11217895150184631,0.5371852517127991,0.5657855272293091,-0.2265247106552124,0.9944218993186951,-177.6810256849651,0.5444937944412231,0.5462697744369507,170.31045823484357,174.63857103675633,0.8655466799712902,0.0029684380863688126,-0.002229065913041073,0.7184740174295962,0.07687240420951504,155.04940854880505,1.0069833825089793,22,1761939698.1922512
0.5683233141899109,0.13541491329669952,-0.2341330498456955,0.9999757409095764,0.5472499132156372,0.23150277137756348,0.01690717600286007,0.9952108263969421,0.515620768070221,0.24618925154209137,-0.20641009509563446,0.9999832510948181,0.5566518902778625,0.5390840172767639,0.0725124180316925,0.9981686472892761,0.531478762626648,0.552873969078064,-0.07259982079267502,0.9995529651641846,0.5625523328781128,0.7127326130867004,0.17795442044734955,0.7838279008865356,0.5425130128860474,0.7408011555671692,0.022080590948462486,0.9877850413322449,0.5420244336128235,0.8577362895011902,0.28259873390197754,0.8093403577804565,0.5394579172134399,0.9041514992713928,0.11850887537002563,0.9679819941520691,0.5552881956100464,0.5119396448135376,0.05379244685173035,0.1116764098405838,0.5367168188095093,0.5655179023742676,-0.2171982228755951,0.9945365786552429,-177.64519789322753,0.5440653264522552,0.5459789931774139,170.60588701166006,174.51333139024692,0.8634389946505652,-0.00667341884023528,-0.004528938417206346,-0.15017259474586794,-0.03582067481028467,155.09296617914276,1.0710187424320468,23,1761939698.2564564
0.5683146715164185,0.135552778840065,-0.2311229407787323,0.9999743700027466,0.5463222861289978,0.2317650467157364,0.01470981352031231,0.9951989054679871,0.5147756338119507,0.24660427868366241,-0.20691852271556854,0.9999828338623047,0.5556197762489319,0.5391002297401428,0.07183529436588287,0.9981704354286194,0.5297125577926636,0.5528201460838318,-0.07191985845565796,0.9995476007461548,0.5627714395523071,0.7123932838439941,0.17840763926506042,0.7816669940948486,0.5411667823791504,0.740986704826355,0.026032451540231705,0.9873925447463989,0.5421684980392456,0.8586604595184326,0.2828262150287628,0.8062728047370911,0.5373923182487488,0.9052768349647522,0.12903480231761932,0.9670222401618958,0.5543164610862732,0.512690544128418,0.055077023804187775,0.11081619560718536,0.5364692807197571,0.5655730962753296,-0.2158857136964798,0.9943433403968811,-177.7380721280755,0.5426661670207977,0.5459601879119873,170.57970671808684,173.76591719294316,0.8654285472906691,-0.02268799703086279,-0.0003049358040060156,-0.2596835601936965,0.06849409480577512,154.80817261258278,0.994052703952812,24,1761939698.318126
0.5682446956634521,0.13627123832702637,-0.23120780289173126,0.9999743103981018,0.5461403131484985,0.23224033415317535,0.012107370421290398,0.9953345656394958,0.5144529938697815,0.24824278056621552,-0.20884385704994202,0.9999828338623047,0.5554784536361694,0.5391896367073059,0.07166586816310883,0.9982174038887024,0.5288525223731995,0.5528253316879272,-0.07175386697053909,0.9995541572570801,0.5626527667045593,0.7121132612228394,0.17877009510993958,0.7820537090301514,0.5397906303405762,0.7408466935157776,0.027029767632484436,0.9872651100158691,0.5421947240829468,0.8592996597290039,0.283814013004303,0.8072555065155029,0.5380741357803345,0.9049793481826782,0.1319347620010376,0.9669607877731323,0.5543497204780579,0.5129533410072327,0.054962001740932465,0.11357861757278442,0.5362802743911743,0.5659599900245667,-0.21781858801841736,0.994332492351532,-177.77708100048253,0.5421654880046844,0.5460074841976166,170.72894262839944,174.02014923985536,0.8659692988975964,-0.006781938084134786,0.000640650936876304,0.21545521874817386,0.012808427202772445,153.20571986001133,1.0703956526861191,25,1761939698.3919513
0.5682505369186401,0.1379459947347641,-0.23159992694854736,0.9999749064445496,0.5463287830352783,0.23735637962818146,0.013104262761771679,0.9954714775085449,0.5143265724182129,0.24948929250240326,-0.20665717124938965,0.9999831318855286,0.5553768277168274,0.5446264147758484,0.07158958166837692,0.9982261061668396,0.528988242149353,0.5561360716819763,-0.07167772948741913,0.9995557069778442,0.5623141527175903,0.7177981734275818,0.1790221482515335,0.7828627824783325,0.5400650501251221,0.7500600814819336,0.026995370164513588,0.9873148798942566,0.5427635312080383,0.86089026927948,0.28530919551849365,0.8071825504302979,0.5390772819519043,0.9096938371658325,0.13115012645721436,0.9670830965042114,0.5543999075889587,0.5163847804069519,0.05330207943916321,0.11794279515743256,0.536311149597168,0.5669571757316589,-0.2184390127658844,0.9943711161613464,-177.78831310522187,0.5421825349330902,0.5503812432289124,170.49021666587367,173.0486540275207,0.8675961811730277,0.00023419817423689065,0.06008861862383188,0.09639075514346147,0.8167222365803415,159.23691260219056,1.1542972055967375,26,1761939698.4647398
0.5687444806098938,0.13911700248718262,-0.24376872181892395,0.9999753832817078,0.5465660691261292,0.24234098196029663,0.013570023700594902,0.9954918622970581,0.5150083303451538,0.25235414505004883,-0.21560005843639374,0.9999831914901733,0.5550974607467651,0.5495996475219727,0.07253125309944153,0.998193085193634,0.5293334722518921,0.5596531629562378,-0.07262488454580307,0.999546468257904,0.5620249509811401,0.7202740907669067,0.18592780828475952,0.7799039483070374,0.5421050786972046,0.7533770203590393,0.027310237288475037,0.9873039722442627,0.5428782105445862,0.8618153929710388,0.3046247363090515,0.8061227798461914,0.5406173467636108,0.9123159646987915,0.13610559701919556,0.9670781493186951,0.55449378490448,0.5252006649971008,0.04130985960364342,0.1157410591840744,0.5385898351669312,0.5722304582595825,-0.2330382615327835,0.9942906498908997,-177.87004601565624,0.5422154664993286,0.5546264052391052,169.87650025314454,171.93868109753853,0.880668104796131,0.0005858215285435576,0.07551743150394435,0.0062550481018825614,0.2744640409632169,162.39594428490057,1.107579489236642,27,1761939698.5209541
0.5703467130661011,0.14238561689853668,-0.2486097812652588,0.9999753832817078,0.5469918251037598,0.24413326382637024,0.011632765643298626,0.9954802393913269,0.5162869095802307,0.25573834776878357,-0.22184467315673828,0.9999828338623047,0.5551271438598633,0.5513787865638733,0.07291813939809799,0.9981264472007751,0.5311275124549866,0.5614693760871887,-0.07300789654254913,0.9995301961898804,0.5620962381362915,0.720655083656311,0.18979358673095703,0.7765986323356628,0.5457797050476074,0.7536951899528503,0.02982674539089203,0.9873217940330505,0.5432895421981812,0.8645354509353638,0.31097492575645447,0.8048556447029114,0.5425137281417847,0.9136836528778076,0.14151909947395325,0.9673528671264648,0.5547612905502319,0.5255427360534668,0.0341932475566864,0.11253046244382858,0.5425487756729126,0.5748506188392639,-0.23379305005073547,0.9940096735954285,-177.85341322171996,0.5431273281574249,0.556424081325531,170.58384498116033,171.68910352137152,0.885346735527421,0.029090794998174515,0.057350614579530244,0.9093839315106411,-0.57956943602697,159.29565146279623,1.0408272771831346,28,1761939698.5522995
0.5716484785079956,0.14318621158599854,-0.2627955973148346,0.9999758005142212,0.5490065813064575,0.24343977868556976,0.007446969859302044,0.9954604506492615,0.5171387195587158,0.25678548216819763,-0.22907349467277527,0.9999827742576599,0.5557711124420166,0.5504403710365295,0.07327023148536682,0.9981113076210022,0.5312155485153198,0.5610503554344177,-0.07336839288473129,0.9995207786560059,0.5645599961280823,0.7200198769569397,0.18902002274990082,0.7817651033401489,0.5467580556869507,0.7527437806129456,0.02521851286292076,0.9875243902206421,0.5477923154830933,0.8659324049949646,0.30755501985549927,0.8086344599723816,0.5446507930755615,0.9135431051254272,0.13487282395362854,0.9673604965209961,0.556670606136322,0.5251480340957642,0.023040860891342163,0.11186924576759338,0.5440500378608704,0.5743708610534668,-0.23510649800300598,0.9938951134681702,-178.0472321101786,0.5434933304786682,0.5557453632354736,171.06251629863354,171.47697127325793,0.89008479946263,0.011384789380005932,-0.021112058736280036,-0.5507591974807695,-2.440643017941236,157.27691653701828,1.1040643503084735,29,1761939698.5844479
0.5728071928024292,0.14344139397144318,-0.2574264407157898,0.9999755024909973,0.5492398738861084,0.24305598437786102,0.0062818871811032295,0.9953567981719971,0.5172110795974731,0.2565515637397766,-0.2296220064163208,0.9999827742576599,0.5558429956436157,0.5500510931015015,0.07331962138414383,0.9980639219284058,0.5312682390213013,0.5607324242591858,-0.073418989777565,0.9995130896568298,0.5647344589233398,0.7199568748474121,0.18852365016937256,0.7807198166847229,0.5475355982780457,0.7524266839027405,0.025360355153679848,0.9873839616775513,0.5497050285339355,0.8655657172203064,0.305719792842865,0.807453453540802,0.5482951402664185,0.9131423234939575,0.13440556824207306,0.9673169255256653,0.556693434715271,0.524506688117981,0.027765339240431786,0.10765185207128525,0.5459656119346619,0.5741879940032959,-0.223902627825737,0.9933901429176331,-178.0639024004417,0.5435556173324585,0.5553917586803436,171.50163909379035,171.97956967099648,0.8859730726901676,0.00172168365833888,-0.009774055792435796,-0.26709988059134315,0.3133960570931895,157.151500055811,1.4476207072809115,30,1761939698.6206257
0.5727206468582153,0.1433478146791458,-0.25726789236068726,0.999975323677063,0.5486534237861633,0.2426716685295105,0.006566006690263748,0.9953808784484863,0.5172016024589539,0.25578412413597107,-0.2274337261915207,0.9999826550483704,0.5558430552482605,0.5486992001533508,0.07315373420715332,0.9980879426002502,0.5313049554824829,0.5582760572433472,-0.07326077669858932,0.9995110630989075,0.5645855665206909,0.7193700075149536,0.1823025643825531,0.7818790674209595,0.547921895980835,0.7507728338241577,0.02294311858713627,0.9873180389404297,0.549848198890686,0.8676455020904541,0.2966356873512268,0.8100398778915405,0.5482480525970459,0.912834107875824,0.1299896389245987,0.9673640131950378,0.556700587272644,0.5244238376617432,0.03081505000591278,0.10733941197395325,0.5461832284927368,0.573417603969574,-0.22344276309013367,0.9931599497795105,-177.9959546775629,0.5435740053653717,0.553487628698349,171.39263065932215,171.8631388734072,0.8830934789984244,0.0005106330857135291,-0.05287742157602723,-0.033630703935200415,-1.1969744006116387,157.36844776358473,1.477324134451934,31,1761939698.656636
0.5730164051055908,0.14343596994876862,-0.2590710520744324,0.9999741315841675,0.5481377243995667,0.24240101873874664,0.00168771599419415,0.9954119324684143,0.5170642733573914,0.25461092591285706,-0.23301303386688232,0.999982476234436,0.5546102523803711,0.5462928414344788,0.07340811938047409,0.9981110095977783,0.5308955907821655,0.555126428604126,-0.07352674752473831,0.9995025396347046,0.5643131136894226,0.7189881205558777,0.18138524889945984,0.7840368151664734,0.5480169057846069,0.7483733892440796,0.021641336381435394,0.9873727560043335,0.5501796007156372,0.867783784866333,0.2954199016094208,0.8138905763626099,0.5485984086990356,0.9100470542907715,0.1296030580997467,0.9677276611328125,0.5566670894622803,0.5242233872413635,0.020816180855035782,0.10615649819374084,0.548011839389801,0.5711516737937927,-0.22350755333900452,0.992709219455719,-178.07598733946182,0.5427529215812683,0.5507096350193024,171.0903982185701,171.3032020965339,0.8824329709901404,-0.02054315471752137,-0.0695041785720677,-0.5267564998911922,-0.41599413851933914,158.54830238115676,1.4979954505465587,32,1761939698.6966047
0.5731918811798096,0.14489692449569702,-0.25878041982650757,0.9999719262123108,0.5474187135696411,0.2422107458114624,0.0018107465002685785,0.9953201413154602,0.5168749690055847,0.25360262393951416,-0.23040297627449036,0.999981701374054,0.5522300004959106,0.5431252717971802,0.07360734045505524,0.9980533719062805,0.5305629372596741,0.5526413917541504,-0.07372870296239853,0.9994773268699646,0.5629289746284485,0.7168562412261963,0.17321078479290009,0.7831344604492188,0.5485743880271912,0.7443102598190308,0.013178365305066109,0.9873171448707581,0.5502278208732605,0.8677085041999817,0.27729251980781555,0.8153063654899597,0.5496140718460083,0.9074251055717468,0.10697098076343536,0.9681513905525208,0.5566650032997131,0.5239676833152771,0.022906305268406868,0.1051146611571312,0.5489485263824463,0.5682740807533264,-0.22359593212604523,0.9923775792121887,-178.23387331388957,0.5413964688777924,0.5478833317756653,171.49779961936935,172.83320186850216,0.8691500864645779,-0.03598752000404825,-0.07498355398404737,-0.4097484588105788,-0.14537118157013887,159.54603025667586,1.5860850399821091,33,1761939698.734297
0.5742402076721191,0.14476445317268372,-0.283133327960968,0.999970555305481,0.5471640825271606,0.24176360666751862,0.0017130773048847914,0.9951965808868408,0.517749011516571,0.25065600872039795,-0.2613646388053894,0.9999815821647644,0.5518062114715576,0.5427606701850891,0.08521066606044769,0.9979469776153564,0.5309818387031555,0.5516431927680969,-0.08533395826816559,0.99945467710495,0.562217116355896,0.7167124152183533,0.22221562266349792,0.7830061316490173,0.5496894717216492,0.7433103919029236,0.025436576455831528,0.9879734516143799,0.5504909753799438,0.8668921589851379,0.36218103766441345,0.8191140294075012,0.5503013134002686,0.9099849462509155,0.15076833963394165,0.9700923562049866,0.5563274025917053,0.5207188725471497,-0.014317193999886513,0.10048799961805344,0.553458571434021,0.5626786351203918,-0.25409430265426636,0.9908831715583801,-178.29919352731952,0.5413940250873566,0.547201931476593,172.36380715587393,171.65740779223515,0.9191281287881324,-6.169235676840389e-05,-0.0172016346969852,0.906930866066173,1.4586777684424155,163.17952957378967,1.6079952197104255,34,1761939698.7739096
0.5793228149414062,0.1440204232931137,-0.2765858769416809,0.9999687075614929,0.5526925921440125,0.24131783843040466,0.0018669532146304846,0.9950478076934814,0.5209563374519348,0.2490968108177185,-0.256018728017807,0.9999814033508301,0.5549696087837219,0.5408427119255066,0.08490633219480515,0.9978087544441223,0.5373659133911133,0.5488942265510559,-0.08501677215099335,0.999410092830658,0.5665175914764404,0.7147074341773987,0.20935742557048798,0.7762209177017212,0.5611816644668579,0.7405969500541687,0.020557748153805733,0.9880107045173645,0.5573979616165161,0.8642712235450745,0.33619919419288635,0.8157795071601868,0.5600348711013794,0.9099627733230591,0.14150851964950562,0.9700330495834351,0.5623461604118347,0.5203241109848022,-0.018397245556116104,0.09595885872840881,0.5626219511032104,0.5594348907470703,-0.2555268108844757,0.9897881746292114,-178.21412259055424,0.5461677610874176,0.5448684692382812,172.55762260579422,170.65553850542716,0.9045967404835077,0.11547733708597431,-0.05644677574701971,2.794905174767797,-0.949345414569113,166.22758521558694,1.8198112961159976,35,1761939698.8152487
0.5838136672973633,0.1441873162984848,-0.2790621817111969,0.999970555305481,0.5611706972122192,0.242280051112175,0.0021128803491592407,0.995280385017395,0.5236276984214783,0.24936842918395996,-0.25048965215682983,0.9999819397926331,0.5573897957801819,0.5408275127410889,0.0836406722664833,0.9978625774383545,0.5383008122444153,0.5489901900291443,-0.08375392109155655,0.9994108080863953,0.5747007727622986,0.7099564671516418,0.20475426316261292,0.7753352522850037,0.5684340000152588,0.7399666905403137,0.01719181053340435,0.9881770014762878,0.5633001327514648,0.8614451289176941,0.33532077074050903,0.8165169358253479,0.5682529211044312,0.9090003371238708,0.12804855406284332,0.970159649848938,0.573560893535614,0.5203072428703308,-0.007327108643949032,0.09896021336317062,0.5658143758773804,0.5547049045562744,-0.2550041675567627,0.989772379398346,-178.95680216689613,0.5478453040122986,0.5449088513851166,170.46282457741444,170.35724134875323,0.9001784078952099,0.05339539666398531,0.0012853446051573148,-1.976038756049829,1.8375860436931222,169.30802385943278,0.940303581652986,36,1761939698.846666
0.5859601497650146,0.153286874294281,-0.26821368932724,0.9999682307243347,0.5589667558670044,0.251593679189682,-0.007036040537059307,0.9955459237098694,0.5238800048828125,0.25411418080329895,-0.2553665041923523,0.9999817609786987,0.5526313781738281,0.5455440282821655,0.08297575265169144,0.9978624582290649,0.5374736785888672,0.5548672080039978,-0.08308263123035431,0.9994011521339417,0.5740544199943542,0.7104538679122925,0.20194745063781738,0.766089141368866,0.5698078274726868,0.7447963356971741,0.017631877213716507,0.9877397418022156,0.5631383657455444,0.861415684223175,0.3262021243572235,0.8098571300506592,0.5658702850341797,0.9104682207107544,0.1280236542224884,0.9695435166358948,0.5708848237991333,0.5294334292411804,-0.017892736941576004,0.10302948206663132,0.5665361881256104,0.5549092888832092,-0.2578411400318146,0.9883674383163452,-179.30074538475478,0.5450525283813477,0.5502056181430817,170.08736621479412,168.74308664866373,0.8846424336738301,-0.09598523398641395,0.1820451994067373,-5.134080456414794,6.2125567002932405,175.89114258118332,0.4885900018459209,37,1761939698.875762
0.5853414535522461,0.16457019746303558,-0.27190378308296204,0.9999677538871765,0.5577312707901001,0.26422908902168274,-0.007141026668250561,0.9957621693611145,0.523478627204895,0.263537734746933,-0.2590492367744446,0.9999812841415405,0.5495883226394653,0.5539993643760681,0.08290234953165054,0.9978947043418884,0.5284370183944702,0.5614923238754272,-0.08300592005252838,0.9993970990180969,0.5741757154464722,0.7121965289115906,0.19166621565818787,0.7662981152534485,0.5674909353256226,0.746026337146759,0.004193802364170551,0.9876806139945984,0.5625868439674377,0.8623090386390686,0.30222246050834656,0.8100330233573914,0.5635637044906616,0.9113560914993286,0.10759816318750381,0.9696740508079529,0.5694361925125122,0.5306998491287231,-0.018048632889986038,0.1123141348361969,0.5642058253288269,0.5603200793266296,-0.2708262503147125,0.9874796271324158,179.68954880271508,0.5390126705169678,0.5577458441257477,168.97861729512965,166.26522492742345,0.8657426820519328,-0.19485574075640918,0.24326008199432347,-3.1897250346315875,1.974892714324724,-178.843700804027,0.2052156182903565,38,1761939698.9067585
0.5846158266067505,0.17606377601623535,-0.2573762834072113,0.9999688267707825,0.5576119422912598,0.270818293094635,-0.006632313132286072,0.9959778189659119,0.5234365463256836,0.2755947709083557,-0.24732081592082977,0.9999807476997375,0.5455387830734253,0.5592864751815796,0.08065299689769745,0.9979769587516785,0.5224513411521912,0.5686525106430054,-0.08074644207954407,0.9994137287139893,0.5736514329910278,0.7134272456169128,0.1821185201406479,0.7772522568702698,0.5680769085884094,0.7465856075286865,0.00684192543849349,0.9882286787033081,0.5620476007461548,0.8622826337814331,0.2859596908092499,0.8179663419723511,0.5628751516342163,0.9110724329948425,0.10593478381633759,0.9709119200706482,0.5684651732444763,0.5365803837776184,0.004644809756428003,0.1195494756102562,0.5640159249305725,0.5670214891433716,-0.2269458770751953,0.9870133996009827,178.71361977053553,0.5339950621128082,0.5639694929122925,167.5764943276677,164.70735514976914,0.8431873731724485,-0.1460054738068974,0.1810995830471552,1.4214752920224298,-1.8087846579120699,172.0436720142324,0.7769326247010151,39,1761939698.9411244
0.584156334400177,0.18509182333946228,-0.26230382919311523,0.9999708533287048,0.5574640035629272,0.28027355670928955,-0.006760210730135441,0.9962636828422546,0.5222999453544617,0.28529229760169983,-0.24755969643592834,0.9999808073043823,0.5421000123023987,0.5655832290649414,0.07952450215816498,0.9981171488761902,0.5177770256996155,0.5752476453781128,-0.07962144166231155,0.9994438886642456,0.573165774345398,0.7203212976455688,0.18140912055969238,0.790273129940033,0.5672783255577087,0.7525153160095215,0.007241305895149708,0.9890046119689941,0.5616410970687866,0.8710201978683472,0.28823786973953247,0.8291397094726562,0.5623919367790222,0.912068784236908,0.10776712000370026,0.9726511240005493,0.5680335760116577,0.5460218191146851,0.0044840178452432156,0.12886914610862732,0.5635030269622803,0.5753098130226135,-0.22843770682811737,0.98686283826828,178.02007346046148,0.5299385190010071,0.5704154372215271,166.75778777499949,163.29842716545184,0.843473446654319,-0.10373100887674974,0.16483106130810124,1.0810122747547801,-0.4160069612020253,171.87739633611955,1.2116511837808397,40,1761939698.9802308
0.5838509202003479,0.1955522745847702,-0.26905637979507446,0.9999710917472839,0.5561599135398865,0.2898438274860382,-0.012194176204502583,0.9964660406112671,0.5218697786331177,0.29381063580513,-0.2617228627204895,0.9999799132347107,0.5384126305580139,0.570343017578125,0.08064166456460953,0.9982179403305054,0.5139439702033997,0.5796489119529724,-0.08074355870485306,0.9994573593139648,0.574944257736206,0.7246419191360474,0.18081265687942505,0.7996871471405029,0.5692660808563232,0.7530901432037354,0.002783900359645486,0.9896240234375,0.5615087151527405,0.8740866780281067,0.28851181268692017,0.8365625143051147,0.5617293119430542,0.9135926961898804,0.10815812647342682,0.9741050004959106,0.5675697922706604,0.5556092858314514,0.0008256070432253182,0.13157707452774048,0.5633970499038696,0.5837160348892212,-0.23128652572631836,0.9858993291854858,177.40445667161592,0.5261783003807068,0.5749959647655487,164.34308458966393,160.2423369529964,0.8405678090636074,-0.10703064029045502,0.1303798649519867,-0.0939205132980197,-0.9806168143682715,173.401147026458,1.2240254663704926,41,1761939699.015363
0.5836364030838013,0.2096591740846634,-0.2725449204444885,0.9999722838401794,0.5533568859100342,0.3000631332397461,-0.013915772549808025,0.996687114238739,0.5217590928077698,0.30360957980155945,-0.26491525769233704,0.9999796152114868,0.5330823659896851,0.5774636268615723,0.08172179758548737,0.9982955455780029,0.5089865922927856,0.5890876054763794,-0.08182202279567719,0.9994644522666931,0.577336847782135,0.724554717540741,0.17973774671554565,0.8104252815246582,0.5700914859771729,0.7541881799697876,-0.00630347291007638,0.990327775478363,0.5607151389122009,0.8775539994239807,0.2860327959060669,0.8440299034118652,0.5609520673751831,0.9180677533149719,0.09890762716531754,0.9755694270133972,0.5670089721679688,0.5651020407676697,0.001264828024432063,0.13698573410511017,0.5647428035736084,0.5949426293373108,-0.23311039805412292,0.9853865504264832,176.63997883996902,0.5210344791412354,0.5832756161689758,160.80883088315372,157.2566526022529,0.8308500502576499,-0.15419897795089876,0.24820337347675375,-1.41398954595683,3.5320559847011728,173.59608510700392,1.2827254948510143,42,1761939699.0487213
0.583479642868042,0.22444719076156616,-0.25828319787979126,0.999973714351654,0.5484139919281006,0.3134460747241974,-0.01425604335963726,0.9969380497932434,0.5213114023208618,0.316252201795578,-0.2616029381752014,0.9999789595603943,0.5263049602508545,0.5867595076560974,0.08032862842082977,0.998394250869751,0.5047059059143066,0.5996463894844055,-0.08042342960834503,0.9994795918464661,0.5768738389015198,0.7253282070159912,0.17830371856689453,0.8214549422264099,0.570791482925415,0.755515456199646,-0.0017978379037231207,0.9909691214561462,0.5593540668487549,0.8774492144584656,0.286670446395874,0.8524472713470459,0.5606406927108765,0.9192706346511841,0.10446599870920181,0.9768314957618713,0.5655879378318787,0.5778475403785706,0.0024654967710375786,0.14349034428596497,0.564656138420105,0.6011316776275635,-0.1960589438676834,0.983866274356842,176.02194480901366,0.5155054330825806,0.5932029485702515,158.04310595595317,155.51618997964584,0.8128289495809626,-0.15560125605550262,0.2793800909835076,-0.03946363117629322,0.8773912085873912,174.0888161636498,1.3990221689570266,43,1761939699.0842547
0.5831888318061829,0.23959816992282867,-0.25045639276504517,0.9999752044677734,0.5468567609786987,0.326464980840683,-0.014105317182838917,0.9971654415130615,0.5204741358757019,0.3291768729686737,-0.25046923756599426,0.9999784231185913,0.5209152698516846,0.590944230556488,0.07927719503641129,0.9984633922576904,0.5008991360664368,0.6077112555503845,-0.07936354726552963,0.999480128288269,0.5768518447875977,0.7250816226005554,0.1647961437702179,0.8287212252616882,0.5754340887069702,0.7551032900810242,-0.011914336122572422,0.9914292097091675,0.5578681230545044,0.8726763129234314,0.264498770236969,0.8550882339477539,0.5604153275489807,0.922328770160675,0.0921970084309578,0.9770193696022034,0.5650091171264648,0.5864380598068237,0.015078790485858917,0.14658169448375702,0.5647680759429932,0.6104099750518799,-0.18259268999099731,0.9830663800239563,175.2085537559414,0.5109072029590607,0.5993277430534363,154.4953301545396,150.08421760985348,0.7856777570183394,-0.11405240063630612,0.1519166060520044,1.0305588404572272,-3.1615460860795825,174.13113099399155,1.3385438350016905,44,1761939699.1245716
0.5828069448471069,0.254108190536499,-0.23394432663917542,0.9999757409095764,0.5459743738174438,0.3355366289615631,-0.0004523605457507074,0.9973584413528442,0.5198003649711609,0.34118399024009705,-0.23559649288654327,0.9999775886535645,0.5177772641181946,0.591543436050415,0.07794597744941711,0.998497486114502,0.4983709752559662,0.6113696694374084,-0.07801277935504913,0.9994637966156006,0.5765728950500488,0.7249816656112671,0.15664349496364594,0.82861328125,0.5760748982429504,0.7545262575149536,-0.017690714448690414,0.9914499521255493,0.5563082098960876,0.8718337416648865,0.2510966956615448,0.8477147817611694,0.5593552589416504,0.9221474528312683,0.0837714746594429,0.9753822684288025,0.5649505853652954,0.5890906453132629,0.03296244889497757,0.14529573917388916,0.5647925138473511,0.6211496591567993,-0.16890577971935272,0.9819196462631226,174.61223172646172,0.5080741196870804,0.6014565527439117,152.50627160834694,147.5264938451242,0.7583048064294666,-0.08684425450745091,0.06525572064401552,0.834028138339401,-2.6564697418695555,167.82438597194493,1.3417526652174463,45,1761939699.1571941
0.5822082757949829,0.26820144057273865,-0.21146941184997559,0.9999768137931824,0.5450419187545776,0.35181355476379395,0.0024941805750131607,0.9975892305374146,0.5194793343544006,0.35758471488952637,-0.22092875838279724,0.9999769330024719,0.5154439806938171,0.600977897644043,0.07641514390707016,0.9985758662223816,0.4969044327735901,0.6226271390914917,-0.07645191252231598,0.999469518661499,0.5767241716384888,0.7255710959434509,0.15146052837371826,0.8270620703697205,0.576108455657959,0.7535179257392883,-0.02389051765203476,0.9916819334030151,0.5564223527908325,0.8751903176307678,0.23932090401649475,0.8437227010726929,0.5592970848083496,0.9224462509155273,0.07613398134708405,0.9752357006072998,0.5654700398445129,0.6092666387557983,0.034221865236759186,0.15362794697284698,0.5664619207382202,0.6375319361686707,-0.1485077291727066,0.9794491529464722,174.20643856063276,0.5061742067337036,0.6118025183677673,150.46942976097577,144.76991460256892,0.7311475727803335,-0.06080463694909047,0.33111131882554024,0.8333694915417946,8.508417767024492,167.27785451086547,1.4057004710773378,46,1761939699.1884403
0.582013726234436,0.28168314695358276,-0.19825540482997894,0.9999755620956421,0.5437932014465332,0.36414283514022827,0.0015594547148793936,0.9977872967720032,0.5188726186752319,0.36804690957069397,-0.22461386024951935,0.9999752044677734,0.5130120515823364,0.611602246761322,0.07564551383256912,0.9986084699630737,0.4954563081264496,0.6305856704711914,-0.07566281408071518,0.9994521141052246,0.5766397714614868,0.7312866449356079,0.14909407496452332,0.8178166151046753,0.5792009234428406,0.7534348368644714,-0.02750462293624878,0.9914536476135254,0.5559008121490479,0.8768517971038818,0.24185171723365784,0.8319258093833923,0.5590295195579529,0.9270026087760925,0.07787962257862091,0.9735375642776489,0.5661587715148926,0.6231641173362732,0.02839665114879608,0.1597537398338318,0.5680423974990845,0.64702308177948,-0.15568043291568756,0.976849377155304,173.93394947463239,0.504234179854393,0.6210939586162567,148.75511071198144,140.78449256083704,0.7166282334470188,-0.052179388113681835,0.24990461319448007,0.23198658294868524,-2.184153351556829,171.0963751084182,1.3247208466442377,47,1761939699.2256203
0.5812481045722961,0.294769823551178,-0.17677035927772522,0.9999745488166809,0.5419414043426514,0.37616080045700073,0.01784045621752739,0.9979658722877502,0.5185760259628296,0.3776102364063263,-0.2066282331943512,0.9999735355377197,0.5085439085960388,0.6231517195701599,0.07566379010677338,0.9986405372619629,0.4942505955696106,0.6416432857513428,-0.07567989081144333,0.9994322657585144,0.5767244100570679,0.730505108833313,0.14725834131240845,0.8015481233596802,0.5846920013427734,0.7508396506309509,-0.041751161217689514,0.9915525317192078,0.5556358098983765,0.8778887391090393,0.23148784041404724,0.820227324962616,0.5589725971221924,0.9262914657592773,0.06613471359014511,0.9726915955543518,0.566556453704834,0.6235582232475281,0.0312533974647522,0.16020195186138153,0.5677692890167236,0.6493850946426392,-0.13396421074867249,0.971207320690155,173.55544714525706,0.5013972520828247,0.6323975026607513,144.8559105533116,132.62388502659704,0.6895031786897101,-0.08529459728753297,0.33985047023741255,-0.9956363566544365,2.7042971382799053,176.4502914872951,1.2331322525018036,48,1761939699.2588806
0.5791446566581726,0.30696091055870056,-0.17494609951972961,0.9999744296073914,0.5400978326797485,0.38830292224884033,0.03012808784842491,0.9981246590614319,0.5176482796669006,0.3923453390598297,-0.20363900065422058,0.9999719262123108,0.5052953958511353,0.6326215267181396,0.07622453570365906,0.9986728429794312,0.4916343092918396,0.6506792306900024,-0.07622884213924408,0.9994118213653564,0.5792949199676514,0.7297406792640686,0.14876845479011536,0.7833163142204285,0.5868077874183655,0.7490457892417908,-0.05636627599596977,0.991551399230957,0.5531071424484253,0.8774744868278503,0.23261430859565735,0.803525984287262,0.5589383840560913,0.9259976744651794,0.05181758850812912,0.971095860004425,0.567581295967102,0.6288368105888367,0.04246969148516655,0.16152000427246094,0.5675064325332642,0.6581699252128601,-0.13697822391986847,0.9675840735435486,173.10126142953897,0.4984648525714874,0.641650378704071,139.24714741837616,125.73085622995008,0.6744508059485504,-0.09256767944366255,0.29208750724397714,-0.22959093227000224,-1.507743617662646,169.79232491571682,1.124996831472274,49,1761939699.290559
0.5761157274246216,0.3177473545074463,-0.18517355620861053,0.9999757409095764,0.5368533730506897,0.39452505111694336,0.03420119732618332,0.9982600808143616,0.5160247087478638,0.40349459648132324,-0.20117846131324768,0.9999711513519287,0.5042133331298828,0.6371980905532837,0.07655750960111618,0.9987155795097351,0.4891353249549866,0.658626914024353,-0.07654890418052673,0.9994075894355774,0.5816724896430969,0.7244094014167786,0.15176545083522797,0.7756040692329407,0.5901527404785156,0.7486134767532349,-0.07103172689676285,0.9918577075004578,0.5531623959541321,0.871367871761322,0.23612388968467712,0.7953234314918518,0.5578547716140747,0.9256651401519775,0.04377235472202301,0.9701694846153259,0.5674751996994019,0.632664680480957,0.036450427025556564,0.15942764282226562,0.5672834515571594,0.6640300154685974,-0.13400322198867798,0.966731607913971,173.1807394237179,0.4966743290424347,0.6479125022888184,135.3021347449069,117.40243107590722,0.6658990669894794,-0.04400768816070131,0.1539111759604341,1.193512913286041,-3.396113371117184,156.70161192874514,0.9789403466145595,50,1761939699.3312457
0.5721489787101746,0.3262914717197418,-0.1945577710866928,0.9999775290489197,0.5345281362533569,0.4021587669849396,0.028382888063788414,0.9983991980552673,0.5128297209739685,0.4157524108886719,-0.20909550786018372,0.9999710321426392,0.5024811029434204,0.6411734223365784,0.07786537706851959,0.99878990650177,0.48538050055503845,0.6638263463973999,-0.07785864919424057,0.9994246363639832,0.5849315524101257,0.7228545546531677,0.15334996581077576,0.7803196907043457,0.5887807011604309,0.7488222122192383,-0.07303279638290405,0.9923900961875916,0.5514365434646606,0.8660838603973389,0.23645170032978058,0.7982903718948364,0.5563565492630005,0.9255152940750122,0.04936086758971214,0.9711980223655701,0.5676699876785278,0.635333776473999,0.033664725720882416,0.16666357219219208,0.5663785338401794,0.6714701652526855,-0.14354553818702698,0.96745765209198,173.03600790215623,0.49393080174922943,0.6524998843669891,130.56141981528603,114.89445755544605,0.6622345671919139,-0.08895407039215839,0.14873783443232505,-1.4573077726589105,-0.16773654397162915,147.93363993633585,0.902536499177542,51,1761939699.3620877
0.5691722631454468,0.3351783752441406,-0.18382683396339417,0.9999788999557495,0.5315134525299072,0.4121266305446625,0.029583841562271118,0.9985319972038269,0.5091493129730225,0.42561620473861694,-0.2000216245651245,0.999970018863678,0.49628376960754395,0.6497712731361389,0.07730390876531601,0.9988600015640259,0.4804707169532776,0.6719763875007629,-0.07729030400514603,0.9994446635246277,0.5850321054458618,0.7180737853050232,0.15422210097312927,0.780941367149353,0.5872400403022766,0.7487248182296753,-0.07331916689872742,0.9927863478660583,0.5495834350585938,0.8610901832580566,0.23773321509361267,0.7982308268547058,0.5543592572212219,0.925325870513916,0.029420986771583557,0.9721055030822754,0.5676652193069458,0.6414251327514648,0.03375265747308731,0.17697985470294952,0.565515398979187,0.6780037879943848,-0.12554427981376648,0.9669091105461121,172.47814431659944,0.48837724328041077,0.6608738303184509,124.53744980744457,112.57488336269083,0.6422135326702564,-0.19154424462206435,0.28882043122163015,-3.5383722956811354,4.831499539863903,148.90251205358723,0.9352688359209993,52,1761939699.3910813
0.5647580027580261,0.34551507234573364,-0.19033099710941315,0.9999797940254211,0.527471661567688,0.418535441160202,0.02728772535920143,0.9986270666122437,0.5054331421852112,0.43610844016075134,-0.19866874814033508,0.9999691843986511,0.49171191453933716,0.6568084955215454,0.07391124218702316,0.9989176392555237,0.47731199860572815,0.6784743070602417,-0.07388441264629364,0.9994623064994812,0.5776862502098083,0.7227214574813843,0.15372779965400696,0.7771161794662476,0.586399257183075,0.7516395449638367,-0.06719459593296051,0.9931202530860901,0.5478624105453491,0.8631581664085388,0.2332991063594818,0.7943243384361267,0.5537159442901611,0.9223088622093201,0.04486481845378876,0.9712972044944763,0.5632336139678955,0.6522537469863892,0.027553647756576538,0.16815172135829926,0.5654579997062683,0.6871304512023926,-0.11934665590524673,0.9661508798599243,172.42928653260253,0.48451195657253265,0.6676414012908936,126.19353590294537,110.83161907592893,0.6388709174810951,-0.08774443079354427,0.1536281025729842,2.3563208292662994,-3.068950590586635,141.4319624300764,1.0219445952207045,53,1761939699.435133
0.5615381002426147,0.3515712320804596,-0.18693307042121887,0.9999809861183167,0.5268452763557434,0.4229646325111389,0.02557913400232792,0.9987389445304871,0.503159761428833,0.4409966766834259,-0.19366219639778137,0.9999679327011108,0.4889276921749115,0.6613472700119019,0.07305394858121872,0.9989818930625916,0.4737090468406677,0.6830103993415833,-0.0730305165052414,0.9994682669639587,0.5745885968208313,0.7289590835571289,0.14598901569843292,0.77242112159729,0.5863445401191711,0.7523515224456787,-0.06804336607456207,0.9933843612670898,0.5466617941856384,0.8827183246612549,0.2127690315246582,0.7866263389587402,0.5523462295532227,0.921787679195404,0.051051218062639236,0.9693543314933777,0.5632989406585693,0.6514140963554382,0.027498256415128708,0.17078253626823425,0.5643237829208374,0.6860830783843994,-0.10689864307641983,0.9663211703300476,172.0171942736893,0.4813183695077896,0.6721788346767426,125.24856085717369,107.84545513702606,0.6364402674725902,-0.10088933327307785,0.14334308718968425,-0.4152635955163715,-0.32491625363217447,142.7175810538532,1.0878643503077994,54,1761939699.4667873
0.5590320229530334,0.35618388652801514,-0.1876736730337143,0.9999809861183167,0.5272570848464966,0.4274452328681946,0.025845607742667198,0.9987936019897461,0.5006879568099976,0.4424186646938324,-0.1967354118824005,0.9999633431434631,0.4892917275428772,0.6646442413330078,0.07319974899291992,0.9990013241767883,0.47099488973617554,0.6845948100090027,-0.07317718118429184,0.9994477033615112,0.5756642818450928,0.7287363409996033,0.13616691529750824,0.7650856971740723,0.5858326554298401,0.752368688583374,-0.08477949351072311,0.9934197068214417,0.5471932888031006,0.8852193355560303,0.19247493147850037,0.7750993371009827,0.5524493455886841,0.9213610291481018,0.04180244728922844,0.9662995934486389,0.5634182095527649,0.6569008231163025,0.027135342359542847,0.16382218897342682,0.5644228458404541,0.688691258430481,-0.1143157109618187,0.9650839567184448,171.9664066111872,0.48014330863952637,0.6746195256710052,121.90978422597234,102.41363448627352,0.6263551008121861,-0.03789336403616681,0.0787074055849428,2.031494077948186,-2.084371523999673,150.59591213883698,1.0938000045889247,55,1761939699.497797
0.5560057759284973,0.3603861927986145,-0.18568064272403717,0.9999813437461853,0.5257693529129028,0.42822152376174927,0.025413041934370995,0.9988588690757751,0.49712687730789185,0.4466131329536438,-0.1952311247587204,0.9999609589576721,0.489501416683197,0.6649754047393799,0.07292608916759491,0.9990288019180298,0.47040095925331116,0.6876739263534546,-0.07288361340761185,0.9994524717330933,0.5758804678916931,0.7270011305809021,0.1372896283864975,0.7682629227638245,0.5845619440078735,0.7523032426834106,-0.08254988491535187,0.9937766194343567,0.5474960207939148,0.8823152184486389,0.2093832939863205,0.7741216421127319,0.552600622177124,0.9200407266616821,0.041626740247011185,0.9667879939079285,0.5621262788772583,0.6553378701210022,0.01909034512937069,0.15873077511787415,0.562848687171936,0.6860044598579407,-0.10693089663982391,0.9641156196594238,172.48958544381838,0.4799511879682541,0.6763246655464172,123.22434685523497,102.45850598151115,0.6239613411151259,-0.00598609728557208,0.05312876075296775,0.9941668515985446,-0.7969796034092462,147.2950895774663,1.0438472772521636,56,1761939699.5298915
0.5526719689369202,0.363629013299942,-0.18143466114997864,0.9999814629554749,0.5215480923652649,0.4331973195075989,0.026026904582977295,0.9989190697669983,0.4924909472465515,0.4496365785598755,-0.19619503617286682,0.9999582767486572,0.48792681097984314,0.6683617234230042,0.07292195409536362,0.9990330934524536,0.4686282277107239,0.6927474141120911,-0.07286679744720459,0.9994539022445679,0.575999915599823,0.7221440076828003,0.14888644218444824,0.7741113305091858,0.5830694437026978,0.7523851990699768,-0.09414664655923843,0.9941199421882629,0.5472016930580139,0.8770639300346375,0.21930590271949768,0.7756074070930481,0.552315354347229,0.918174684047699,0.02457534149289131,0.9675750136375427,0.5610581636428833,0.6553674936294556,0.01443837583065033,0.15952353179454803,0.5610694885253906,0.6844440698623657,-0.10425565391778946,0.9632978439331055,173.14648337048163,0.4782775193452835,0.6805545687675476,120.25872343005251,98.18776072528436,0.6141585173745762,-0.05063420105453732,0.12796904190018682,-1.350757869218517,2.264174514941002,150.5007209657093,0.9652365897602945,57,1761939699.5629456
0.5481758713722229,0.3663412630558014,-0.18123891949653625,0.9999817609786987,0.5163179636001587,0.43831104040145874,0.02540266513824463,0.9989596009254456,0.4896518588066101,0.4528351128101349,-0.19672761857509613,0.9999557733535767,0.4858366847038269,0.6740259528160095,0.07282004505395889,0.9990503191947937,0.46731358766555786,0.6963446736335754,-0.07275386154651642,0.9994632601737976,0.5745794177055359,0.7205284237861633,0.15515904128551483,0.7788215279579163,0.5821155309677124,0.7524816989898682,-0.08809404075145721,0.9944617748260498,0.5469819903373718,0.8757856488227844,0.22841611504554749,0.7775761485099792,0.5524120926856995,0.9179091453552246,0.034505218267440796,0.968411922454834,0.555063009262085,0.6587536931037903,0.009099656715989113,0.15287186205387115,0.5607890486717224,0.6861684918403625,-0.10320975631475449,0.9616582989692688,173.7103149314169,0.4765751361846924,0.6851853132247925,118.62414343846808,98.58214203658684,0.6158084957076543,-0.0427090498549511,0.11617519514310494,0.19882461570732593,-0.2958816797476781,151.42445229380263,0.9217610574632907,58,1761939699.6028056
0.5433851480484009,0.36478865146636963,-0.18517552316188812,0.9999828338623047,0.5143738389015198,0.4376574754714966,0.02311636321246624,0.999021589756012,0.48813396692276,0.4549205005168915,-0.19601640105247498,0.9999550580978394,0.4865523874759674,0.6729859113693237,0.0723610669374466,0.9990682005882263,0.46789154410362244,0.6986936330795288,-0.07228701561689377,0.9994661808013916,0.5746790170669556,0.7148615717887878,0.1545732468366623,0.7840580940246582,0.5820672512054443,0.7523787617683411,-0.08740265667438507,0.9947447776794434,0.5459394454956055,0.8697162866592407,0.22582654654979706,0.7787044048309326,0.5526002645492554,0.9173692464828491,0.0339629128575325,0.9692085981369019,0.556004524230957,0.6572020053863525,0.009349562227725983,0.15325428545475006,0.5605865716934204,0.6862342953681946,-0.09973113238811493,0.9626020789146423,174.27120638082476,0.4772219657897949,0.6858397722244263,116.40753977708746,97.9977729532448,0.6155361957326814,0.017566237600683744,0.017773432441532205,1.6369226339405807,-2.6723401809475105,146.65936675488558,0.8257183429420595,59,1761939699.639628
0.5376005172729492,0.3657272756099701,-0.19240950047969818,0.9999838471412659,0.5094369649887085,0.43948471546173096,0.01808309741318226,0.9990893602371216,0.4841614365577698,0.4565223753452301,-0.1969538778066635,0.99995356798172,0.4862385392189026,0.6720669865608215,0.07222582399845123,0.999060869216919,0.4671311378479004,0.7011460065841675,-0.07214938849210739,0.9994481205940247,0.5755844712257385,0.7106297612190247,0.14453543722629547,0.7892929911613464,0.5820308923721313,0.7523185014724731,-0.08810312300920486,0.9948795437812805,0.5459668040275574,0.8671561479568481,0.20830395817756653,0.7798829674720764,0.5526700615882874,0.9173991680145264,0.022349227219820023,0.9702465534210205,0.5560588240623474,0.6554715037345886,0.006938415113836527,0.1640034019947052,0.5598753690719604,0.6866576671600342,-0.10320670902729034,0.9635009765625,175.18132695704523,0.4766848385334015,0.6866064965724945,112.61759295733094,97.47506917647942,0.609995178480288,-0.015205792425704818,0.02170556631726726,-0.9277590738854992,0.11131665874858121,146.01698465268646,0.6820682404535711,60,1761939699.6749518
0.5323387384414673,0.36475470662117004,-0.18918476998806,0.9999850392341614,0.5041240453720093,0.44156816601753235,0.018226277083158493,0.9991579651832581,0.48143115639686584,0.4569917917251587,-0.18963725864887238,0.9999525547027588,0.4830775260925293,0.6751633882522583,0.07112286239862442,0.9990745186805725,0.46598657965660095,0.7055248618125916,-0.07103391736745834,0.9994394779205322,0.5753347873687744,0.7099007368087769,0.14044557511806488,0.7949997782707214,0.5818043947219849,0.7520210146903992,-0.08480504900217056,0.9950087070465088,0.5453341007232666,0.8658860921859741,0.20441880822181702,0.7801980376243591,0.5528278946876526,0.9173873066902161,0.029050519689917564,0.9709073305130005,0.5553112626075745,0.6553305983543396,0.008951934054493904,0.1772737205028534,0.5592118501663208,0.6869182586669922,-0.08294115960597992,0.9643966555595398,175.6716768840062,0.4745320528745651,0.6903441250324249,110.0793494768015,96.23196558035627,0.6094847312809156,-0.05371180305635034,0.09325348434646569,-0.9607214034475196,1.7851139366811952,145.79731561110725,0.6187114145508901,61,1761939699.715032
0.5263782739639282,0.3660098612308502,-0.19579321146011353,0.9999861717224121,0.5015511512756348,0.44267863035202026,0.008158950135111809,0.9992272853851318,0.4772520959377289,0.46036872267723083,-0.19181248545646667,0.9999510049819946,0.4811626970767975,0.6745803356170654,0.07021306455135345,0.9990906715393066,0.4645722508430481,0.7079599499702454,-0.07012100517749786,0.9994307160377502,0.5752941966056824,0.7087282538414001,0.14171728491783142,0.7964151501655579,0.5815309286117554,0.7514070868492126,-0.0810360461473465,0.9949361085891724,0.5454835295677185,0.8659839034080505,0.2097444236278534,0.7748543620109558,0.5528878569602966,0.9164344072341919,0.03334987908601761,0.9710267186164856,0.5551233291625977,0.6536740064620972,0.008525200188159943,0.20418627560138702,0.5585928559303284,0.6885233521461487,-0.08452476561069489,0.9652354121208191,176.0548350367308,0.4728674739599228,0.6912701427936554,110.3105408060111,95.80943644867705,0.6140516124568886,-0.04833467178045775,0.02688894119601789,0.1561367100439016,-1.9270389543088473,143.94479613851587,0.5656980825990602,62,1761939699.7494707
0.5207532644271851,0.3654342591762543,-0.19608788192272186,0.9999871850013733,0.4980439245700836,0.44281187653541565,0.009446537122130394,0.9992818236351013,0.47287923097610474,0.4621993601322174,-0.1929236352443695,0.9999499320983887,0.47913414239883423,0.6781617403030396,0.06963171809911728,0.9990715980529785,0.46414437890052795,0.7116273045539856,-0.06952283531427383,0.9994083046913147,0.5742661952972412,0.7094950079917908,0.13972924649715424,0.802107036113739,0.5809706449508667,0.7515522241592407,-0.07647021859884262,0.9949609041213989,0.5455043911933899,0.866994321346283,0.2118995487689972,0.775997519493103,0.5529028177261353,0.918816864490509,0.03345169499516487,0.971885085105896,0.5523756742477417,0.649437665939331,0.002755795605480671,0.21256394684314728,0.5575926303863525,0.6884248852729797,-0.06667040288448334,0.9654563665390015,176.73622168695238,0.4716392606496811,0.6948945224285126,109.75694915857997,96.05263294022723,0.6169648297314829,-0.039614124667415145,0.1168987711662386,0.28126778762571364,2.9031281423187636,142.38848134977118,0.48643041912686824,63,1761939699.7804751
0.5154991149902344,0.3654797375202179,-0.18934616446495056,0.9999879002571106,0.49315863847732544,0.4415948987007141,0.010276361368596554,0.9993305802345276,0.4698270261287689,0.4597022235393524,-0.1891537606716156,0.9999478459358215,0.47773775458335876,0.6784956455230713,0.06854726374149323,0.9990198612213135,0.463564395904541,0.7121889591217041,-0.06843443214893341,0.9993612766265869,0.5732027292251587,0.7095935940742493,0.1365775465965271,0.8033472895622253,0.5803254842758179,0.7515324354171753,-0.07411864399909973,0.9948180913925171,0.5472897887229919,0.8673722743988037,0.2075241059064865,0.7731877565383911,0.5534306764602661,0.9206884503364563,0.033125609159469604,0.9723983407020569,0.5503278374671936,0.6465076208114624,0.004472758155316114,0.22234414517879486,0.5553407073020935,0.6876875758171082,-0.05600593239068985,0.9644045829772949,177.4630290804276,0.4706510752439499,0.6953423023223877,110.00877095449852,96.69329833091378,0.6135773809490125,-0.035272967107782646,0.015983362410110207,0.15495625307005512,-3.602143760754558,142.18548151852076,0.410596808523691,64,1761939699.8084905
0.5119465589523315,0.36663955450057983,-0.19576892256736755,0.9999887943267822,0.4938279688358307,0.44254985451698303,0.005268967244774103,0.9993869066238403,0.4655666947364807,0.4602939486503601,-0.19003698229789734,0.9999473690986633,0.47886237502098083,0.6783204078674316,0.06826578080654144,0.9990333914756775,0.46290865540504456,0.7132092118263245,-0.06816722452640533,0.9993396997451782,0.5742642879486084,0.7079353332519531,0.13227397203445435,0.8042250871658325,0.5800024271011353,0.7505356073379517,-0.07231159508228302,0.9945884943008423,0.5481175184249878,0.8704338073730469,0.20420129597187042,0.7702059745788574,0.5534394979476929,0.9206486940383911,0.0343414768576622,0.9725433588027954,0.5502768754959106,0.6460344791412354,0.0037981464993208647,0.253909170627594,0.5537267923355103,0.6872879266738892,-0.06751497089862823,0.9657186269760132,177.93461902512703,0.4708855152130127,0.695764809846878,108.95350638866064,96.44882495447366,0.6168430276930625,0.00761549333952912,0.013724635997521686,1.3931787578067034,-0.07337194259003783,147.87697483920783,0.3343400722912914,65,1761939699.8392751
0.5087244510650635,0.36831074953079224,-0.2098313570022583,0.9999895691871643,0.49003657698631287,0.4450182318687439,0.0037652873434126377,0.9994369149208069,0.4617660939693451,0.46368607878685,-0.20205847918987274,0.9999468326568604,0.47727593779563904,0.6788502335548401,0.06994161009788513,0.9990425705909729,0.46118226647377014,0.7139386534690857,-0.06985172629356384,0.9993071556091309,0.5735167264938354,0.7016401290893555,0.13441339135169983,0.8041805028915405,0.5777060389518738,0.7492932677268982,-0.073606476187706,0.9944191575050354,0.5469481348991394,0.8703612685203552,0.20626088976860046,0.7675995826721191,0.5532346963882446,0.9206171035766602,0.03219158202409744,0.9729820489883423,0.5458777546882629,0.6414995193481445,0.004795670974999666,0.2842460870742798,0.5488486886024475,0.6865425705909729,-0.07418949902057648,0.9668858051300049,178.42096179788382,0.4692291021347046,0.6963944435119629,105.70085342929899,96.52527412642621,0.6228219883176396,-0.05034894591519491,0.01913857827186619,-1.7619085814159743,0.1645641961710324,146.56202188769174,0.2614412425057413,66,1761939699.8721738
0.5034653544425964,0.3681850731372833,-0.2060176581144333,0.9999902844429016,0.48500290513038635,0.44791924953460693,0.004992451053112745,0.9994747638702393,0.4580046534538269,0.466804176568985,-0.19946983456611633,0.9999461770057678,0.47367802262306213,0.6814835667610168,0.07015228271484375,0.9990016222000122,0.46076878905296326,0.717142641544342,-0.07005373388528824,0.999258279800415,0.5725203156471252,0.6954672336578369,0.1338890939950943,0.8039541244506836,0.5771031379699707,0.7453014850616455,-0.07634390145540237,0.9942307472229004,0.5501638650894165,0.8621504902839661,0.20137560367584229,0.7644284963607788,0.5527361631393433,0.9197706580162048,0.02591668628156185,0.9731847047805786,0.5412752032279968,0.6409400105476379,0.005025444086641073,0.2926797866821289,0.54593425989151,0.6860905289649963,-0.06880053877830505,0.9666762948036194,178.986483392096,0.4672234058380127,0.6993131041526794,101.89073977784935,93.36923642209825,0.6146394870417698,-0.05268910141986559,0.07667242880316667,-0.06147525471688643,1.5113987549954326,145.02770985024105,0.18321388916289758,67,1761939699.9102404
0.4992589056491852,0.36753201484680176,-0.20528283715248108,0.9999908208847046,0.4818812310695648,0.4466586112976074,0.0042643784545362,0.9995073080062866,0.4535880982875824,0.4654122292995453,-0.19619464874267578,0.9999436736106873,0.47389522194862366,0.6806240677833557,0.0695650577545166,0.99889075756073,0.4604153633117676,0.7149513959884644,-0.0694660171866417,0.9991361498832703,0.5707095861434937,0.6960947513580322,0.12543927133083344,0.8022388219833374,0.5747779011726379,0.7432616949081421,-0.07677460461854935,0.9938225746154785,0.5488719344139099,0.8624269366264343,0.1915028989315033,0.7589437365531921,0.5519020557403564,0.9187163710594177,0.023035956546664238,0.9725098609924316,0.5386019945144653,0.6374342441558838,0.005567881744354963,0.31011712551116943,0.5421737432479858,0.6812933087348938,-0.07312989979982376,0.9672204256057739,179.8626879330764,0.4671552926301956,0.69778773188591,101.76960469374147,93.87721693022695,0.6114519308814023,-0.0018006498254106316,-0.04032494421964225,1.345293877878385,-3.092958121614161,146.4622748033022,0.025913702637845083,68,1761939699.9480674
0.49609097838401794,0.367316871881485,-0.20596957206726074,0.9999907612800598,0.4790193438529968,0.4458600878715515,0.00444402638822794,0.999525785446167,0.4498768448829651,0.4667735695838928,-0.1984424889087677,0.999937891960144,0.47491106390953064,0.6787887811660767,0.06957758963108063,0.9987617135047913,0.459846556186676,0.7136847376823425,-0.0694795623421669,0.9990190267562866,0.5709408521652222,0.6939752697944641,0.11892756074666977,0.7999591827392578,0.573140025138855,0.7399804592132568,-0.08731596171855927,0.9932130575180054,0.5488088726997375,0.8566934466362,0.1772097498178482,0.7537864446640015,0.5505141615867615,0.9137999415397644,0.0076840706169605255,0.9716036319732666,0.5370681881904602,0.635578989982605,-0.003409651340916753,0.3254062831401825,0.5412209033966064,0.6788429617881775,-0.11632508039474487,0.9679137468338013,-179.3001444786288,0.46737881004810333,0.6962367594242096,99.7634278861437,90.76416883610068,0.6001445661279972,0.007011075629875034,-0.048649386390660875,0.2763975808910347,-0.26111295568754983,144.33570826623918,0.1309529025368307,69,1761939699.979948
0.4944143295288086,0.3668667674064636,-0.20484086871147156,0.9999908804893494,0.4761311113834381,0.4455627501010895,0.0015035371761769056,0.9995463490486145,0.4481469690799713,0.46722903847694397,-0.20083868503570557,0.9999353885650635,0.4744272828102112,0.6785619258880615,0.06956904381513596,0.9986954927444458,0.4601851999759674,0.7129142880439758,-0.06947080790996552,0.9989462494850159,0.5703092813491821,0.6953715682029724,0.12161668390035629,0.8011894226074219,0.5734856724739075,0.7394885420799255,-0.08534088730812073,0.9931751489639282,0.5480809807777405,0.857889711856842,0.18674659729003906,0.7506128549575806,0.5505644679069519,0.9134492874145508,0.01546613872051239,0.9712792038917542,0.5366637706756592,0.6337141990661621,-0.009495217353105545,0.3358367681503296,0.5410863757133484,0.6788778901100159,-0.11299313604831696,0.9686962366104126,-178.76322345708752,0.4673062413930893,0.6957381069660187,101.8189344721977,91.0271398543586,0.6047932857134988,-0.002194658552588886,-0.015080503861156978,-0.2784045432907091,1.0152073940184752,142.2517276596792,0.2288827867662977,70,1761939700.013014
0.4926512837409973,0.3665928244590759,-0.20410048961639404,0.9999913573265076,0.4740750789642334,0.44547826051712036,0.0037842481397092342,0.9995775818824768,0.4465583264827728,0.46924471855163574,-0.20066459476947784,0.9999357461929321,0.4733649790287018,0.6760215163230896,0.0700857862830162,0.9986647367477417,0.45992523431777954,0.7125219702720642,-0.06998716294765472,0.9988939762115479,0.5704444646835327,0.6896634697914124,0.11841871589422226,0.7999235391616821,0.5737794637680054,0.7350339293479919,-0.08985267579555511,0.9930586218833923,0.5471283793449402,0.8539183139801025,0.177892804145813,0.7458462119102478,0.5505134463310242,0.912674605846405,-0.0015464185271412134,0.9714300036430359,0.5369726419448853,0.631358802318573,-0.002723658923059702,0.36329972743988037,0.5401483774185181,0.6778794527053833,-0.12160152196884155,0.9701536297798157,-178.46986516188628,0.46664510667324066,0.6942717432975769,98.51318793611782,89.01541779735174,0.5962898452624807,-0.02016873954469416,-0.04473325332751473,-0.5483217674122562,-0.9045941210105621,139.18254285159279,0.27169800737498945,71,1761939700.0457942
0.4906230866909027,0.3656357526779175,-0.2049068659543991,0.9999918937683105,0.47258996963500977,0.4453434348106384,0.007340515963733196,0.9996047616004944,0.44461435079574585,0.4690858721733093,-0.20225700736045837,0.9999368190765381,0.4730845093727112,0.6751366257667542,0.07168479263782501,0.9986523389816284,0.4597185254096985,0.7121465802192688,-0.071586474776268,0.9988676905632019,0.5705273747444153,0.6866298913955688,0.12033462524414062,0.7982476949691772,0.5739814639091492,0.7315455675125122,-0.09408055245876312,0.9929493069648743,0.5464128851890564,0.8518008589744568,0.18154902756214142,0.7390279769897461,0.5504662394523621,0.9115296006202698,-0.0037797316908836365,0.9714322686195374,0.5368677377700806,0.6296797394752502,-0.001221800921484828,0.3860740661621094,0.5400132536888123,0.6773982048034668,-0.127327099442482,0.9715433120727539,-178.11058656603484,0.46640151739120483,0.6936416029930115,97.45545606027719,87.06248863327292,0.5966092689057179,-0.006354054591928753,-0.016437282717531237,0.3603576546001614,0.7381036656653972,139.6792932410023,0.32748589201884293,72,1761939700.0841303
0.4891842007637024,0.36501243710517883,-0.2030499428510666,0.9999922513961792,0.4717113971710205,0.445043683052063,0.008552104234695435,0.9996287822723389,0.443138986825943,0.4692854881286621,-0.20186159014701843,0.9999366998672485,0.472738116979599,0.6750763058662415,0.07174581289291382,0.998650312423706,0.459186315536499,0.7119277715682983,-0.07165052741765976,0.998836874961853,0.5701314806938171,0.6873863339424133,0.11847293376922607,0.7944287061691284,0.573606550693512,0.7308263778686523,-0.09229789674282074,0.992732048034668,0.5479124784469604,0.8523344397544861,0.17829814553260803,0.731772243976593,0.5504992604255676,0.9105264544487,0.0012027015909552574,0.9707246422767639,0.5373163819313049,0.6293147802352905,-0.00046003880561329424,0.40265899896621704,0.5400327444076538,0.6761882305145264,-0.12299096584320068,0.9723021388053894,-177.93125094504444,0.465962216258049,0.6935020387172699,97.95700249066758,87.18766594294027,0.5966759726437738,-0.012532818887354696,-0.003981628224923309,-0.17627392241385273,0.3553472779774274,139.6875930032387,0.3766753074486391,73,1761939700.1191823
0.48747649788856506,0.3649629056453705,-0.20239916443824768,0.9999926090240479,0.47160273790359497,0.4446786642074585,0.016702933236956596,0.9996492862701416,0.44180893898010254,0.46923327445983887,-0.2014356553554535,0.9999367594718933,0.47305694222450256,0.6745225787162781,0.07224775105714798,0.9986329674720764,0.4588949680328369,0.7117154598236084,-0.07215271145105362,0.9988049864768982,0.5699493885040283,0.6870809197425842,0.11663167178630829,0.7942051291465759,0.5733951330184937,0.729809045791626,-0.09601013362407684,0.9926547408103943,0.5479058027267456,0.8521648645401001,0.17486290633678436,0.728479266166687,0.5504778623580933,0.9094748497009277,-0.0026106685400009155,0.9705684781074524,0.5370997786521912,0.6279332637786865,0.006567656993865967,0.4193044900894165,0.5393964648246765,0.6754748225212097,-0.12754473090171814,0.9731767177581787,-177.7521207449938,0.46597595512866974,0.6931190192699432,97.65383464689758,86.19277096595677,0.5942760436372594,0.00035044029287990467,-0.00976975844705539,0.3286160300219825,-0.14763906774191463,140.50630072146086,0.41234554124331624,74,1761939700.158387
0.4859529137611389,0.36318689584732056,-0.20597679913043976,0.9999930262565613,0.47228527069091797,0.4424215853214264,0.015989547595381737,0.9996695518493652,0.44101566076278687,0.46576446294784546,-0.20130380988121033,0.9999361634254456,0.47409600019454956,0.6698076128959656,0.07309311628341675,0.99860018491745,0.45904263854026794,0.7072427868843079,-0.07300639152526855,0.9987584948539734,0.569968581199646,0.6869958639144897,0.11687237024307251,0.789895236492157,0.5733717679977417,0.7289526462554932,-0.0957179069519043,0.9924559593200684,0.5479010343551636,0.8521576523780823,0.17709045112133026,0.7211082577705383,0.5504852533340454,0.9088138937950134,-0.006601060274988413,0.9706792831420898,0.536296010017395,0.625186562538147,0.008510715328156948,0.4449027478694916,0.5373924970626831,0.674418568611145,-0.14524734020233154,0.9742061495780945,-177.57725365669708,0.46656931936740875,0.6885251998901367,100.22707328072204,88.23980887272299,0.5969986716769256,0.018117524587419102,-0.14026567516215685,0.5424923942789966,-3.9845053430723314,143.25852674531694,0.44126879925866414,75,1761939700.1911378
0.4854907989501953,0.36237919330596924,-0.20546016097068787,0.9999933838844299,0.4717426896095276,0.4419279396533966,0.01539989560842514,0.9996897578239441,0.44101929664611816,0.46552640199661255,-0.20115390419960022,0.9999369978904724,0.47468242049217224,0.6696475744247437,0.0730510801076889,0.9986128807067871,0.459087997674942,0.7072432041168213,-0.07296561449766159,0.9987564086914062,0.5700041055679321,0.6860598921775818,0.11639890819787979,0.7872259616851807,0.5734422206878662,0.7265086770057678,-0.09715544432401657,0.9923503994941711,0.5488860607147217,0.8511711359024048,0.17451252043247223,0.7145859599113464,0.5505244731903076,0.9076248407363892,-0.007250512484461069,0.9704937934875488,0.5364373922348022,0.6253238916397095,0.010860387235879898,0.4630542993545532,0.5381908416748047,0.6747068166732788,-0.13812875747680664,0.9750000238418579,-177.43758308214035,0.46688520908355713,0.6884453892707825,99.90881592361875,86.89399284400615,0.5958234922752188,0.010013585108151821,-0.002529966594615838,-0.2568918313530592,4.366170120982447,142.47233984024672,0.47705461127870613,76,1761939700.222684
0.4854993224143982,0.36186060309410095,-0.20831803977489471,0.9999938011169434,0.4707965850830078,0.440928190946579,0.013936581090092659,0.9997084736824036,0.4411422610282898,0.46549513936042786,-0.20366163551807404,0.9999384880065918,0.4747936725616455,0.6689985990524292,0.07321372628211975,0.9986217021942139,0.4591429829597473,0.7070443630218506,-0.07312639057636261,0.9987568855285645,0.5700284242630005,0.6839790940284729,0.11736451089382172,0.787638247013092,0.5741628408432007,0.725581169128418,-0.09587301313877106,0.9924216866493225,0.5488740801811218,0.8497990369796753,0.17688478529453278,0.7110699415206909,0.5506271123886108,0.907690167427063,-0.006689820438623428,0.971022367477417,0.5369051098823547,0.6257449388504028,0.010568157769739628,0.4791018068790436,0.5386261343955994,0.6747521162033081,-0.13851197063922882,0.9760633707046509,-177.31812526151316,0.4669683277606964,0.6880214810371399,99.47445982192944,86.78278223642012,0.5978210128447633,0.0022656965900007147,-0.01155513384588389,-0.2111963905039628,-0.2460131870376003,140.36015258348118,0.4922083081321662,77,1761939700.2593696
0.485086590051651,0.36086714267730713,-0.20752473175525665,0.9999942183494568,0.47119683027267456,0.4397560954093933,0.013361958786845207,0.9997265338897705,0.44093623757362366,0.46534791588783264,-0.20323392748832703,0.9999387860298157,0.4751420021057129,0.6684161424636841,0.07308288663625717,0.9986355304718018,0.4591873586177826,0.7068743705749512,-0.07299281656742096,0.9987543821334839,0.5701999068260193,0.6830681562423706,0.11672693490982056,0.7911174297332764,0.5741705298423767,0.7256230711936951,-0.09535922110080719,0.9925464987754822,0.5488460063934326,0.8481425046920776,0.17572155594825745,0.7127804160118103,0.5506428480148315,0.9074082374572754,-0.0070424266159534454,0.9718233942985535,0.5380262732505798,0.6258696913719177,0.00934034213423729,0.49638569355010986,0.5384590029716492,0.6750369071960449,-0.13658961653709412,0.9768895506858826,-177.29722048436506,0.46716468036174774,0.6876452565193176,99.14190449308467,86.9784132089896,0.597126050357634,0.005071197660098522,-0.009716748768472906,0.07245766231721376,0.04747996233820935,139.77831617196176,0.494530332907792,78,1761939700.2980888
0.4853138327598572,0.35962849855422974,-0.21010859310626984,0.9999945759773254,0.4712367057800293,0.4382481873035431,0.012791645713150501,0.9997432231903076,0.4410938322544098,0.46456828713417053,-0.20518632233142853,0.999940037727356,0.47588497400283813,0.6678041815757751,0.07341067492961884,0.9986547231674194,0.45962899923324585,0.7068348526954651,-0.07332319766283035,0.9987663626670837,0.5713233351707458,0.6822355389595032,0.11730595678091049,0.7947158813476562,0.5747396945953369,0.7250673770904541,-0.09528020024299622,0.9926295876502991,0.5488922595977783,0.8475797176361084,0.17692360281944275,0.7133530378341675,0.5508244037628174,0.9075218439102173,-0.006508353166282177,0.9724849462509155,0.5384584665298462,0.6259893774986267,0.008603723719716072,0.5160486102104187,0.5386025309562683,0.6753904819488525,-0.14058175683021545,0.9778260588645935,-177.18698160822305,0.467756986618042,0.6873195171356201,98.7622920742693,86.74590119295893,0.599684209675327,0.019365421791933648,-0.010650031959839733,0.4673489036453907,-0.03051364468985429,138.87324716848644,0.5001996186622938,79,1761939700.3286746
0.4852510392665863,0.3589763939380646,-0.20946545898914337,0.9999948740005493,0.47141313552856445,0.438161164522171,0.012702112086117268,0.9997574090957642,0.4411848485469818,0.4641789197921753,-0.20506474375724792,0.9999414086341858,0.476825475692749,0.6678571701049805,0.07343675196170807,0.9986700415611267,0.46011024713516235,0.7070580124855042,-0.0733511745929718,0.9987764358520508,0.5723451972007751,0.6816538572311401,0.11742009222507477,0.7974740862846375,0.5752130746841431,0.7251088619232178,-0.09596295654773712,0.9927144050598145,0.5487319827079773,0.8480437397956848,0.17777574062347412,0.7133949398994446,0.5509500503540039,0.9076122641563416,-0.005946254823356867,0.972856879234314,0.5392662882804871,0.6261013150215149,0.010176116600632668,0.531936526298523,0.5387579798698425,0.6764231324195862,-0.141093447804451,0.9788271188735962,-177.05185725058743,0.4684678614139557,0.6874575912952423,98.17972355719976,86.38455414215343,0.6005233717305989,0.01989487485737544,0.0038642080750522123,0.014817521369961608,0.40620231692549774,139.28112908260405,0.5083256893047127,80,1761939700.364406
0.4850715100765228,0.35832828283309937,-0.2071589231491089,0.9999951720237732,0.4714302122592926,0.43797942996025085,0.0074648307636380196,0.9997724294662476,0.4411020874977112,0.4630785584449768,-0.20333831012248993,0.99994295835495,0.47721949219703674,0.6678827404975891,0.0719977468252182,0.9986944198608398,0.46057477593421936,0.7070876359939575,-0.07192221283912659,0.9987973570823669,0.5723432302474976,0.6821046471595764,0.11751220375299454,0.8007067441940308,0.575417697429657,0.7254014015197754,-0.09546459466218948,0.9928248524665833,0.5485605001449585,0.8477437496185303,0.17805661261081696,0.7138497829437256,0.5510103702545166,0.9073057174682617,-0.00030339541262947023,0.9727482199668884,0.5402958989143372,0.6274286508560181,0.007049044128507376,0.5497632622718811,0.5388455986976624,0.6783148646354675,-0.139408677816391,0.9797652363777161,-176.94872800210317,0.46889713406562805,0.6874851882457733,98.65318498576424,85.99818281339886,0.6011571197220105,0.01035133006398795,0.0006654631796204416,-0.23012968972504344,-0.07713341177015538,140.38932213043063,0.5241936078531474,81,1761939700.4058764
0.48506516218185425,0.35778647661209106,-0.2030116766691208,0.9999953508377075,0.4716014266014099,0.4371081590652466,0.0029512690380215645,0.9997870326042175,0.4408731460571289,0.4623725116252899,-0.2006087601184845,0.9999436140060425,0.47755488753318787,0.6672240495681763,0.0708240270614624,0.9987082481384277,0.46102970838546753,0.7063088417053223,-0.07074584066867828,0.9987974762916565,0.5723233222961426,0.6826452016830444,0.11720782518386841,0.8018758296966553,0.5755060315132141,0.725659966468811,-0.09288151562213898,0.9927955269813538,0.5481051206588745,0.847890317440033,0.1783246099948883,0.7102517485618591,0.5511102080345154,0.9073347449302673,0.001958418870344758,0.9722812175750732,0.5405253171920776,0.6276628971099854,0.0038692778907716274,0.5670793652534485,0.5387853980064392,0.6786358952522278,-0.13387373089790344,0.9804501533508301,-176.847427233055,0.4692922979593277,0.6867664456367493,99.37111873272474,86.76528359502811,0.6002696519497077,0.011514460484632913,-0.02094304034902462,0.033891809146840805,-0.6296381425013207,140.5734466607643,0.5370661874934187,82,1761939700.4401953
0.4850620627403259,0.35727885365486145,-0.20303742587566376,0.9999955892562866,0.47176021337509155,0.4366086423397064,0.002548196818679571,0.9997991323471069,0.4408976435661316,0.4620800018310547,-0.20016229152679443,0.9999436736106873,0.4779663681983948,0.6666122674942017,0.07018222659826279,0.9987407922744751,0.461254358291626,0.7055410146713257,-0.0701119527220726,0.9988131523132324,0.5723621845245361,0.6855491399765015,0.11572291702032089,0.8042528629302979,0.575467050075531,0.7277828454971313,-0.09246670454740524,0.9928499460220337,0.5483027696609497,0.8504922389984131,0.1756800264120102,0.7109288573265076,0.5508617758750916,0.9085873961448669,0.005450916476547718,0.9720843434333801,0.5405727624893188,0.6278353333473206,0.0013951759319752455,0.5791351795196533,0.5383161306381226,0.6786536574363708,-0.13348035514354706,0.9810017347335815,-176.78889107846655,0.4696103632450104,0.6860766410827637,100.94675919013014,87.71635944653688,0.6025960780223891,0.009562897838054822,-0.020739548686776008,-0.058675357085051824,0.006118146382440714,140.46661189135722,0.5458121367954887,83,1761939700.4734557
0.48489993810653687,0.3569435179233551,-0.20461611449718475,0.999995768070221,0.4718140959739685,0.43635979294776917,0.0026344747748225927,0.9998078346252441,0.44085294008255005,0.4621273875236511,-0.20210795104503632,0.9999427795410156,0.4782707691192627,0.6660735011100769,0.07015839219093323,0.9987391233444214,0.4612608850002289,0.7047133445739746,-0.07008476555347443,0.9987953305244446,0.5730955004692078,0.6858794093132019,0.11358439922332764,0.807232141494751,0.57548987865448,0.729353666305542,-0.09226169437170029,0.9928935766220093,0.5485566854476929,0.8513370156288147,0.17415152490139008,0.710783064365387,0.5505008101463318,0.9119242429733276,0.005138459615409374,0.9721750020980835,0.5406525135040283,0.6279698014259338,0.0017200494185090065,0.5877427458763123,0.5380165576934814,0.679347574710846,-0.13668277859687805,0.9814296364784241,-176.7444981197172,0.4697658270597458,0.6853934228420258,100.92790978116072,88.80761218821355,0.6050314428498085,0.00439824963744899,-0.019329027688779466,-0.146113821499402,0.039905256915320805,140.23089147034085,0.542392110550472,84,1761939700.5088024
0.4848448634147644,0.35694462060928345,-0.21153339743614197,0.9999958872795105,0.47192391753196716,0.4362013638019562,0.0036813870538026094,0.9998155236244202,0.44076091051101685,0.46253809332847595,-0.2034841775894165,0.9999414086341858,0.4787844717502594,0.6652562618255615,0.07078158855438232,0.9987350702285767,0.46131712198257446,0.704528272151947,-0.07070530951023102,0.9987687468528748,0.5740868449211121,0.6849772334098816,0.1126134842634201,0.8086856603622437,0.5756615996360779,0.7293745875358582,-0.09468840062618256,0.9928551316261292,0.548540472984314,0.8513758182525635,0.17398793995380402,0.7076925039291382,0.5503948330879211,0.9119575619697571,0.0018384435679763556,0.97212153673172,0.5406658053398132,0.6281867623329163,0.00882317591458559,0.5995153784751892,0.5375085473060608,0.6798502802848816,-0.14425337314605713,0.981898844242096,-176.66890760040926,0.47005079686641693,0.6848922669887543,100.36203817780194,88.4607564236679,0.6075998806307604,0.00816293776976452,-0.014355570125116101,0.107839196389414,0.14246430197989063,139.79791191519604,0.5395393283827675,85,1761939700.5437126
0.4849211275577545,0.35694918036460876,-0.21835832297801971,0.9999960064888,0.47271499037742615,0.43575868010520935,0.0011283823987469077,0.9998224377632141,0.44078701734542847,0.46307727694511414,-0.2059554159641266,0.9999407529830933,0.4793243408203125,0.6630480289459229,0.0709272176027298,0.9987193942070007,0.46161141991615295,0.7041317224502563,-0.07085080444812775,0.998741090297699,0.5745574235916138,0.6850153207778931,0.11062806844711304,0.8085585236549377,0.575779914855957,0.7293344140052795,-0.09592664241790771,0.9927880167961121,0.5481389760971069,0.8511137962341309,0.17501571774482727,0.7044606804847717,0.5501341819763184,0.912386417388916,-0.0009036263218149543,0.9723424315452576,0.5407393574714661,0.6282532811164856,0.008519313298165798,0.6099590063095093,0.5375632643699646,0.6798678636550903,-0.1453779637813568,0.982435941696167,-176.6476673072344,0.4704678803682327,0.6835898756980896,101.19656392675375,88.39221196333247,0.6105878914703501,0.013445457270442475,-0.04198498950879647,0.17029177590921113,-0.8906853810162871,139.4486437565631,0.526901585952205,86,1761939700.574733
0.4850192070007324,0.3571433126926422,-0.21796295046806335,0.9999961256980896,0.47273892164230347,0.43582016229629517,0.00048155998229049146,0.9998292922973633,0.44100770354270935,0.463422954082489,-0.2087431401014328,0.9999409914016724,0.47936639189720154,0.6631096601486206,0.07093863189220428,0.9987227320671082,0.4618391990661621,0.7041425704956055,-0.07086074352264404,0.9987296462059021,0.5744746923446655,0.6870393753051758,0.110681913793087,0.809644877910614,0.5757235288619995,0.730835497379303,-0.09569492191076279,0.9928587079048157,0.549174427986145,0.8565757870674133,0.17719927430152893,0.7033847570419312,0.549630343914032,0.9156915545463562,0.0026393369771540165,0.9719775915145874,0.5407480001449585,0.6291323900222778,0.007212013006210327,0.61456698179245,0.5376077890396118,0.6808385848999023,-0.14413711428642273,0.9830021262168884,-176.64219939830932,0.4706027954816818,0.683626115322113,102.75010663043622,88.91155895605065,0.61544087964259,0.00327498596537934,0.0008796958104487027,-0.2468822797821105,1.0405153228729667,138.98019258920957,0.534268425490435,87,1761939700.6159286
0.48509112000465393,0.3572706878185272,-0.21839258074760437,0.9999962449073792,0.4727659821510315,0.43585145473480225,-6.31010188953951e-05,0.9998354315757751,0.44115597009658813,0.4636211097240448,-0.21045562624931335,0.9999414086341858,0.47938069701194763,0.6631686687469482,0.07098708301782608,0.9987185001373291,0.462005615234375,0.7041504383087158,-0.07090655714273453,0.9987167716026306,0.5743456482887268,0.6879626512527466,0.1113877072930336,0.8109136819839478,0.575684130191803,0.7316344976425171,-0.09559760987758636,0.9929236769676208,0.5493949055671692,0.8581329584121704,0.17997810244560242,0.7024692296981812,0.5493375062942505,0.9175876379013062,0.003988537937402725,0.9717273116111755,0.5407310128211975,0.6295586228370667,0.006486766040325165,0.6197014451026917,0.5376389622688293,0.6813926100730896,-0.14415282011032104,0.9835668802261353,-176.6403769237862,0.4706931561231613,0.683659553527832,103.59824877319424,89.22617646074184,0.618053251066135,0.0021009567945718816,0.0007774648824240274,-0.027297112139175395,-0.0023769503993348335,138.7004287935374,0.5353742513552193,88,1761939700.658938
0.48514190316200256,0.3573393225669861,-0.2223706990480423,0.9999963641166687,0.4730951189994812,0.43566179275512695,-0.0006009741919115186,0.9998407363891602,0.44120222330093384,0.4636506736278534,-0.21431700885295868,0.999941885471344,0.47989335656166077,0.6628453731536865,0.07145626842975616,0.9987198710441589,0.46219688653945923,0.7039444446563721,-0.07137762010097504,0.998711109161377,0.5743719339370728,0.6882802248001099,0.11139194667339325,0.811511218547821,0.5756845474243164,0.7320610284805298,-0.09773584455251694,0.9929314255714417,0.5496888160705566,0.8589654564857483,0.18071721494197845,0.7010494470596313,0.5491493344306946,0.9192126989364624,0.003939447458833456,0.9717137813568115,0.5411430597305298,0.630166232585907,0.0076911053620278835,0.6249421834945679,0.5377337336540222,0.6822021007537842,-0.15182127058506012,0.9840513467788696,-176.59760271016802,0.47104512155056,0.6833949089050293,104.07700970775251,89.04374530830077,0.6212284898383645,0.010057637672964116,-0.007562389715149987,0.22736725577203867,-0.23831669038502157,138.7301408477334,0.5426146284879759,89,1761939700.6939328
0.48516401648521423,0.3573440611362457,-0.22049343585968018,0.9999964833259583,0.4731292724609375,0.43598976731300354,0.0015537638682872057,0.9998447895050049,0.44142746925354004,0.4636079967021942,-0.21296823024749756,0.9999427199363708,0.48004740476608276,0.6646558046340942,0.07162020355463028,0.9987198114395142,0.46262699365615845,0.7047811150550842,-0.07154163718223572,0.9987131357192993,0.5745338201522827,0.6883042454719543,0.11609908193349838,0.8153774738311768,0.5759998559951782,0.7321624755859375,-0.09678198397159576,0.9930747747421265,0.5489053726196289,0.8565866947174072,0.18489570915699005,0.7035112380981445,0.5493961572647095,0.9202742576599121,0.005893380381166935,0.9718366265296936,0.5414880514144897,0.6302921772003174,0.010141732171177864,0.6278957724571228,0.538892924785614,0.6822648644447327,-0.14962539076805115,0.9844380617141724,-176.57520261626374,0.4713371992111206,0.6847184598445892,103.58545908168121,88.98405266084882,0.621234497220682,0.010018748415482878,0.045399993457477694,-0.0013339660623877465,1.8166976258044027,138.93801204288525,0.5383003019925839,90,1761939700.7230859
0.48522815108299255,0.3572466969490051,-0.21998849511146545,0.9999966025352478,0.473640501499176,0.43592092394828796,0.0032672651577740908,0.9998511672019958,0.4422624111175537,0.46356043219566345,-0.2120513916015625,0.999943196773529,0.48044902086257935,0.6645424962043762,0.07207648456096649,0.998723566532135,0.4630948603153229,0.7047639489173889,-0.07198815792798996,0.9987072348594666,0.575462818145752,0.6860430240631104,0.11616440862417221,0.8186873197555542,0.5775511264801025,0.7320998907089233,-0.09706709533929825,0.9931927919387817,0.5474588871002197,0.8536333441734314,0.18476103246212006,0.7053895592689514,0.5496205687522888,0.9201593995094299,-0.0015041197184473276,0.9724788069725037,0.5424152612686157,0.6303595900535583,0.014208868145942688,0.6381570100784302,0.5396457314491272,0.6833098530769348,-0.1484391987323761,0.9850041270256042,-176.6330290751308,0.4717719405889511,0.6846532225608826,101.68006020010104,88.98696717465948,0.617772011609282,0.01277274796861866,-0.001916678341272065,0.0809128000960747,-1.3901688553669327,138.62466701084432,0.49414915321505776,91,1761939700.7571225
0.48524802923202515,0.3569706678390503,-0.21999144554138184,0.9999967217445374,0.47464242577552795,0.4354937672615051,0.0009617082541808486,0.9998581409454346,0.44269466400146484,0.463320255279541,-0.2115117758512497,0.9999436140060425,0.48108068108558655,0.6620678901672363,0.07214571535587311,0.9987195730209351,0.46353936195373535,0.7032139897346497,-0.07205633074045181,0.9987015724182129,0.5760529637336731,0.6842821836471558,0.11084103584289551,0.8198727369308472,0.5782366394996643,0.7320767045021057,-0.0982452780008316,0.9931957125663757,0.5462607741355896,0.85001540184021,0.18404214084148407,0.7043330073356628,0.5500926375389099,0.919474184513092,-0.007447573356330395,0.9732464551925659,0.5427799820899963,0.6301982402801514,0.012233050540089607,0.6536163091659546,0.5397464036941528,0.6832562685012817,-0.15098252892494202,0.9856141805648804,-176.6526756574714,0.47231002151966095,0.682640939950943,101.02518993827694,89.55627712862234,0.6144489289751203,0.01785841457238716,-0.06678582167500158,0.16878862900275876,-2.15294761158159,138.94414799228497,0.4708975639086436,92,1761939700.787253
0.4853004813194275,0.35591208934783936,-0.2188541144132614,0.9999967813491821,0.47547149658203125,0.43357494473457336,0.000701728044077754,0.9998650550842285,0.44311314821243286,0.46269237995147705,-0.21002885699272156,0.9999440312385559,0.4816442131996155,0.6585660576820374,0.07210719585418701,0.9987154603004456,0.463809072971344,0.6999047994613647,-0.07201474159955978,0.9986886978149414,0.5766083598136902,0.6824357509613037,0.10694911330938339,0.8210392594337463,0.5789127945899963,0.730635404586792,-0.09802716970443726,0.9932066202163696,0.5461472272872925,0.8491767644882202,0.17964637279510498,0.702897846698761,0.5504151582717896,0.918393611907959,-0.009611116722226143,0.9738574624061584,0.5433169007301331,0.6298241019248962,0.0117989182472229,0.6676710247993469,0.5398596525192261,0.6831325888633728,-0.15241150557994843,0.9862338900566101,-176.67304756390237,0.47272664308547974,0.679235428571701,100.885974213759,90.42575373670257,0.6123353773588501,0.013230244777746652,-0.10814550382725491,-0.14697227479266095,-1.3134190922851077,138.01775584409964,0.45570371457179726,93,1761939700.818743
0.4856460988521576,0.3546091318130493,-0.2154523879289627,0.9999969005584717,0.4754489064216614,0.43329718708992004,0.004524470306932926,0.9998690485954285,0.44333529472351074,0.46153610944747925,-0.2084345817565918,0.9999446868896484,0.48164230585098267,0.6587998867034912,0.07230351120233536,0.9987007975578308,0.464031845331192,0.7001155614852905,-0.07220665365457535,0.9986810088157654,0.576637327671051,0.6802524328231812,0.1120668277144432,0.8241285085678101,0.5791939496994019,0.7293722629547119,-0.09689806401729584,0.993344783782959,0.54579758644104,0.8482125401496887,0.18133936822414398,0.7046313881874084,0.5503388047218323,0.9175360798835754,-0.00828322023153305,0.9743446707725525,0.5433992147445679,0.6286637783050537,0.01195864100009203,0.676548182964325,0.5398707389831543,0.6817783117294312,-0.151083305478096,0.9866507649421692,-176.68386312281444,0.47283707559108734,0.6794577240943909,100.18517114479,89.98652783205945,0.6116803217753051,0.0023625506238077265,0.004755705060850582,-0.23249927601906947,2.415365113918698,138.67340140455553,0.45044141738816457,94,1761939700.865486
0.4856407642364502,0.35425102710723877,-0.2232547551393509,0.9999969601631165,0.4754915237426758,0.4324343800544739,0.002036183839663863,0.999873161315918,0.44323450326919556,0.4613678455352783,-0.21299104392528534,0.9999443888664246,0.4818961024284363,0.657289445400238,0.07256008684635162,0.9986976385116577,0.464053213596344,0.6990861296653748,-0.07246974855661392,0.9986717104911804,0.5769074559211731,0.6803537011146545,0.1103067621588707,0.8238205909729004,0.5791304111480713,0.7280203104019165,-0.09781424701213837,0.9932994842529297,0.5467206239700317,0.8477718830108643,0.18132846057415009,0.703852653503418,0.5503392219543457,0.916782021522522,-0.007573381997644901,0.9748963117599487,0.5433849096298218,0.6273947954177856,0.011747561395168304,0.6857200264930725,0.539940595626831,0.6807414293289185,-0.16011187434196472,0.9868616461753845,-176.63192331689137,0.47297465801239014,0.6781877875328064,100.96197155035841,89.68999630843443,0.6155879010934657,0.003477013225680113,-0.03209411622932546,0.028164944107997223,-0.9312767923156722,138.10895955605335,0.4615679764855118,95,1761939700.905055
0.48511752486228943,0.3539206385612488,-0.22230200469493866,0.999997079372406,0.4754917025566101,0.43248555064201355,0.0022117593325674534,0.9998767971992493,0.442922979593277,0.46136054396629333,-0.21241220831871033,0.9999445676803589,0.48188456892967224,0.6575607657432556,0.07268925756216049,0.9987293481826782,0.46387481689453125,0.6992066502571106,-0.072606161236763,0.9987002015113831,0.576713502407074,0.6810528039932251,0.10377848148345947,0.8253066539764404,0.5778810381889343,0.7280474901199341,-0.1051783561706543,0.993294894695282,0.5466959476470947,0.8450130224227905,0.17947740852832794,0.7061680555343628,0.5498777031898499,0.9152414798736572,-0.007333540823310614,0.975250244140625,0.5435876846313477,0.6276640892028809,0.011579280719161034,0.6930376291275024,0.5398502945899963,0.6803134083747864,-0.15736421942710876,0.987176775932312,-176.61947376124627,0.47287969291210175,0.6783837080001831,100.30797067150178,87.83832959147638,0.6131706496875736,-0.002583609545369043,0.005330189597130421,-0.16488460281316322,1.018161339991355,138.4402334514002,0.4712744192483951,96,1761939700.9418118
0.4849533140659332,0.3532314598560333,-0.22181539237499237,0.9999970197677612,0.47554951906204224,0.43079257011413574,-0.000726005993783474,0.999876081943512,0.4423348307609558,0.45981961488723755,-0.21205607056617737,0.9999432563781738,0.4816461205482483,0.6571606397628784,0.07265900075435638,0.9987192749977112,0.46333974599838257,0.698330283164978,-0.0725792646408081,0.9986924529075623,0.5758906006813049,0.6812718510627747,0.10482184588909149,0.8233643174171448,0.5774604082107544,0.7274026870727539,-0.10421550273895264,0.9931486248970032,0.5475374460220337,0.8451285362243652,0.17949548363685608,0.7045866847038269,0.5499932169914246,0.9140143394470215,-0.0055915797129273415,0.9751192331314087,0.5431492924690247,0.6276382207870483,0.00732281431555748,0.6940590143203735,0.5398574471473694,0.6793869137763977,-0.156134694814682,0.9868722558021545,-176.66354507318852,0.47249293327331543,0.6777454614639282,101.36406123953755,88.16882890839591,0.6135495244219412,-0.010059204162119258,-0.016600109137811292,-0.194432213038334,-0.5703835927743387,138.84907740162345,0.485495840367789,97,1761939700.9802601
