nose_x,nose_y,nose_z,nose_visibility,left_shoulder_x,left_shoulder_y,left_shoulder_z,left_shoulder_visibility,right_shoulder_x,right_shoulder_y,right_shoulder_z,right_shoulder_visibility,left_hip_x,left_hip_y,left_hip_z,left_hip_visibility,right_hip_x,right_hip_y,right_hip_z,right_hip_visibility,left_knee_x,left_knee_y,left_knee_z,left_knee_visibility,right_knee_x,right_knee_y,right_knee_z,right_knee_visibility,left_ankle_x,left_ankle_y,left_ankle_z,left_ankle_visibility,right_ankle_x,right_ankle_y,right_ankle_z,right_ankle_visibility,left_wrist_x,left_wrist_y,left_wrist_z,left_wrist_visibility,right_wrist_x,right_wrist_y,right_wrist_z,right_wrist_visibility,trunk_lateral_inclination,center_mass_x,center_mass_y,left_knee_angle,right_knee_angle,person_height,center_mass_velocity_x,center_mass_velocity_y,center_mass_acceleration_x,center_mass_acceleration_y,body_orientation,torso_leg_ratio,frame,timestamp
0.5324438214302063,0.5635092258453369,-0.3851112723350525,0.9978796243667603,0.5409201383590698,0.5121755599975586,-0.27466610074043274,0.99680495262146,0.4948391914367676,0.5717229247093201,-0.31700870394706726,0.9988648891448975,0.5338974595069885,0.46833980083465576,0.006683840416371822,0.9999030828475952,0.527304470539093,0.487001895904541,-0.006621508859097958,0.9999198913574219,0.522140383720398,0.37859106063842773,0.05720897763967514,0.5470073819160461,0.5252237915992737,0.4318099021911621,-0.023953361436724663,0.47583749890327454,0.5506300330162048,0.29109740257263184,0.2269403040409088,0.5636950731277466,0.5475966930389404,0.3484318256378174,0.13714325428009033,0.6484352946281433,0.582551896572113,0.5261572003364563,-0.18038468062877655,0.5784500241279602,0.45875996351242065,0.6750268936157227,-0.20044688880443573,0.7605147957801819,-11.19471226199223,0.5306009650230408,0.4776708483695984,143.5195008196418,99.5922141798576,0.6175369569427572,0.0,0.0,0.0,0.0,127.73462775567658,0.5002029877853639,0,1762115115.2781367
0.5467295050621033,0.573559045791626,-0.26769134402275085,0.9980820417404175,0.5153425335884094,0.5150046944618225,-0.2692733407020569,0.9971187710762024,0.5133903622627258,0.5910431146621704,-0.2505277693271637,0.9989767074584961,0.5221521258354187,0.48098212480545044,0.0009342211997136474,0.9999107122421265,0.5229700803756714,0.522114634513855,-0.0010675180237740278,0.9999264478683472,0.5191254019737244,0.4620841443538666,0.05521432310342789,0.5270320773124695,0.523478627204895,0.5447182655334473,-0.012567582540214062,0.48464515805244446,0.5235825181007385,0.5116693377494812,0.17021380364894867,0.534569263458252,0.5297980904579163,0.5917133688926697,0.05670113116502762,0.614136278629303,0.5929471850395203,0.5325409173965454,-0.2014775276184082,0.6041286587715149,0.5584560036659241,0.6119928359985352,-0.18166030943393707,0.7619589567184448,-9.045309220321926,0.522561103105545,0.5015483796596527,137.1871606505699,97.2509133363563,0.38230116661645397,-0.04644928704055715,0.13794942202901425,-0.26835489075763924,0.7969853669950228,91.47065933937147,1.520544571050977,1,1762115115.4512258
0.549502968788147,0.568305253982544,-0.1731467992067337,0.9979298114776611,0.5368409752845764,0.5070791244506836,-0.22469452023506165,0.9973328113555908,0.5137773752212524,0.5656375288963318,-0.17475469410419464,0.9990521669387817,0.5338824987411499,0.467134565114975,-0.007180596701800823,0.9999175071716309,0.5293523073196411,0.5040148496627808,0.007226277142763138,0.9999305009841919,0.5122295022010803,0.39479905366897583,0.014895777218043804,0.5546808838844299,0.523938000202179,0.5424444675445557,0.021162960678339005,0.47893765568733215,0.5172732472419739,0.39194455742836,0.1133342981338501,0.524284303188324,0.5212850570678711,0.5913624167442322,0.06537940353155136,0.574286162853241,0.5864640474319458,0.5281920433044434,-0.15836741030216217,0.618011474609375,0.5339156985282898,0.5667712092399597,-0.08552338182926178,0.7029719352722168,-7.080882965514498,0.5316174030303955,0.48557470738887787,107.01628334562491,157.25052523141727,0.275131130089311,0.12377882669603783,-0.21832342436872101,2.3266274708037917,-4.869431807328039,111.4973158706822,5.272670303478934,2,1762115115.524391
0.578834056854248,0.2175472527742386,-0.08717959374189377,0.9979680180549622,0.5370283126831055,0.2858714759349823,0.036412373185157776,0.9974363446235657,0.5523285865783691,0.301186203956604,-0.19177031517028809,0.9991392493247986,0.5277178287506104,0.532201886177063,0.07082996517419815,0.9997318387031555,0.5358337759971619,0.5514349937438965,-0.07091327011585236,0.9998496770858765,0.5343250036239624,0.6632484197616577,0.2023472785949707,0.5106796026229858,0.538906455039978,0.6818526983261108,0.05414090305566788,0.510812520980835,0.5189180970191956,0.7710399031639099,0.3357250392436981,0.4926297664642334,0.5220451354980469,0.8025970458984375,0.20769667625427246,0.590752899646759,0.547099232673645,0.4770338833332062,0.05248267576098442,0.558495044708252,0.5849953293800354,0.5482032299041748,-0.11555846780538559,0.7140132784843445,177.02523645670595,0.5317758023738861,0.5418184399604797,170.6721400319856,170.03339482391823,0.6754828550121955,0.0009165095179039229,0.3254301128298227,-0.7108898345413428,3.1461954402984156,45.02705080266137,0.7996626486716728,3,1762115115.6972198
0.5790365934371948,0.21811088919639587,-0.08752326667308807,0.998081386089325,0.5360547304153442,0.28654715418815613,0.034903399646282196,0.9975550174713135,0.551578164100647,0.30094802379608154,-0.18853597342967987,0.9992188811302185,0.525175154209137,0.5282881259918213,0.06918078660964966,0.999553918838501,0.5357707142829895,0.5464608073234558,-0.06923808157444,0.9997861981391907,0.5328964591026306,0.6620161533355713,0.1858171671628952,0.4711674749851227,0.5389078855514526,0.6794992089271545,0.0498763732612133,0.5425904989242554,0.5190358757972717,0.7711054682731628,0.30619797110557556,0.4632996618747711,0.525147557258606,0.8032404780387878,0.18565018475055695,0.6078494787216187,0.5475978255271912,0.5077889561653137,0.04693518951535225,0.5044315457344055,0.5849219560623169,0.5520812273025513,-0.11816997826099396,0.7292078137397766,176.86502619134708,0.5304729342460632,0.5373744666576385,170.0188498003968,172.12907769569554,0.6620132219436337,-0.0174511159580889,-0.059524284742558414,-0.24602302812635476,-5.156227009588165,42.851644601561105,0.9661192278368796,4,1762115115.771878
0.5793241262435913,0.21941901743412018,-0.08650334179401398,0.9981800317764282,0.5360125303268433,0.2866358160972595,0.03491344302892685,0.9976798295974731,0.5513558387756348,0.3001369535923004,-0.1832406222820282,0.9992906451225281,0.5243580937385559,0.5235439538955688,0.06697656959295273,0.9994020462036133,0.5357192754745483,0.5416398644447327,-0.06702175736427307,0.9997270703315735,0.5320820808410645,0.6600273847579956,0.18087542057037354,0.4399420917034149,0.5392760038375854,0.677348256111145,0.04809286445379257,0.5732032060623169,0.5190098285675049,0.7697641253471375,0.2983330190181732,0.4430832862854004,0.5279580354690552,0.8028464317321777,0.18070200085639954,0.6247424483299255,0.5478626489639282,0.5129238367080688,0.04740210622549057,0.45576906204223633,0.5837485790252686,0.5525432825088501,-0.10908833891153336,0.7438508868217468,176.7350956926464,0.5300386846065521,0.5325919091701508,169.92524900598207,172.15691940631055,0.6563289998811104,-0.006129191288312178,-0.0675031295850103,0.15980264746114328,-0.11261694161498469,41.34572748375421,1.1188403175675594,5,1762115115.8427274
0.58022540807724,0.22094596922397614,-0.08717741817235947,0.9982509613037109,0.5371690988540649,0.28618332743644714,0.03493108972907066,0.997804582118988,0.5517222881317139,0.2984643578529358,-0.18370148539543152,0.9993553161621094,0.5240193605422974,0.5186647772789001,0.06627654284238815,0.9993377923965454,0.5356699228286743,0.5359221696853638,-0.06633497774600983,0.9996957182884216,0.5317625403404236,0.6593824028968811,0.17621615529060364,0.41148778796195984,0.5394397377967834,0.6754790544509888,0.04548794776201248,0.6012760996818542,0.5201653838157654,0.770249605178833,0.2900956869125366,0.42669180035591125,0.5279979705810547,0.7988006472587585,0.17780554294586182,0.641071081161499,0.556073009967804,0.515504002571106,0.048579517751932144,0.41236254572868347,0.5814838409423828,0.5524949431419373,-0.10987739264965057,0.7563847899436951,176.44420284609245,0.5298446416854858,0.527293473482132,169.76295447497722,170.3819247642913,0.6510735736916848,-0.0018678724786160015,-0.05100316026466356,0.04101979130957951,0.15883000741344297,40.1600859683158,1.2674016000331023,6,1762115115.946612
0.5823841691017151,0.22126606106758118,-0.09963040053844452,0.998292088508606,0.5420141816139221,0.28522780537605286,0.033921923488378525,0.997879683971405,0.5517243146896362,0.29504677653312683,-0.1995992362499237,0.999413251876831,0.5235505700111389,0.5135195255279541,0.06656248867511749,0.9992759823799133,0.5344546437263489,0.5289582014083862,-0.06663588434457779,0.9996618628501892,0.5312434434890747,0.6589765548706055,0.17657199501991272,0.391698956489563,0.5394875407218933,0.6736837029457092,0.036255624145269394,0.6295714378356934,0.5200549364089966,0.7726994752883911,0.29158836603164673,0.42248645424842834,0.5277383327484131,0.7962871789932251,0.1681472361087799,0.6615667939186096,0.5588788390159607,0.5141528248786926,0.0488051101565361,0.373714804649353,0.5786232352256775,0.550957441329956,-0.12782403826713562,0.7669732570648193,175.57921260121478,0.5290026068687439,0.5212388634681702,169.58968483277158,167.14858041480676,0.6551448769594719,-0.010579454873873307,-0.07607105092097498,-0.10945366034537624,-0.3149568316044034,45.31931306611597,1.5577038547620365,7,1762115116.0262034
0.5843254327774048,0.22124788165092468,-0.09788832068443298,0.9982349872589111,0.5442286729812622,0.28241467475891113,0.03830065578222275,0.9979164004325867,0.5529516935348511,0.2882019579410553,-0.1991908997297287,0.9994652271270752,0.5227667093276978,0.5075223445892334,0.06808602064847946,0.999151885509491,0.5335061550140381,0.5206730961799622,-0.06816253066062927,0.9995920658111572,0.5291635394096375,0.6552606225013733,0.170683354139328,0.36755844950675964,0.5395669341087341,0.6697654724121094,0.023045768961310387,0.6485710144042969,0.5198370218276978,0.7720450758934021,0.27821439504623413,0.405881404876709,0.5275700092315674,0.7964299321174622,0.14648863673210144,0.6706370711326599,0.5592675805091858,0.5117294788360596,0.05147695541381836,0.33859941363334656,0.5755786895751953,0.5436035990715027,-0.13764072954654694,0.7749655842781067,174.89134388718674,0.5281364321708679,0.5140977203845978,170.45555185553403,165.9139778785784,0.6456632929994404,-0.012481876713552439,-0.10290633954277782,-0.027414556114688758,-0.38670578229924263,33.56226282481024,1.9182486953235063,8,1762115116.095598
0.5858461260795593,0.2212153822183609,-0.10394622385501862,0.9983017444610596,0.5455355644226074,0.2815873324871063,0.03300017863512039,0.998004674911499,0.5532594919204712,0.2886257469654083,-0.2042740136384964,0.999514102935791,0.5228253602981567,0.505088210105896,0.06892917305231094,0.9991148114204407,0.5333446264266968,0.5197131037712097,-0.06901300698518753,0.9995788931846619,0.5293864011764526,0.6505186557769775,0.17403605580329895,0.34902819991111755,0.5399354100227356,0.6663825511932373,0.029480531811714172,0.6738238334655762,0.5203280448913574,0.7675656676292419,0.2886594235897064,0.4004356563091278,0.5283185243606567,0.7954437136650085,0.16065727174282074,0.6907370686531067,0.5579972863197327,0.5086387991905212,0.051233112812042236,0.3071094751358032,0.5750715136528015,0.5418823957443237,-0.14049233496189117,0.7854713201522827,174.6432475682976,0.5280849933624268,0.5124006569385529,169.95925486769565,167.06645149360526,0.6524493341132225,-0.0006735914679454757,-0.022223054780235906,0.1546295575957086,1.0565480396776397,42.341288557431156,2.061448510740602,9,1762115116.171963
0.5880899429321289,0.2211795449256897,-0.10113227367401123,0.9983280301094055,0.5477906465530396,0.2784329652786255,0.03317809849977493,0.99807208776474,0.5546764135360718,0.28607749938964844,-0.20192667841911316,0.9995579719543457,0.5227025151252747,0.499717116355896,0.0689232125878334,0.9990740418434143,0.5323783159255981,0.5156737565994263,-0.0690070241689682,0.9995633363723755,0.5295307040214539,0.6476132273674011,0.16630110144615173,0.33398905396461487,0.540248692035675,0.6648038029670715,0.026417408138513565,0.6959177255630493,0.5205541253089905,0.7651063799858093,0.27380165457725525,0.3976967930793762,0.5285615921020508,0.7902916073799133,0.151188462972641,0.7085578441619873,0.5589753985404968,0.5071945190429688,0.0564848892390728,0.2786407172679901,0.5736734867095947,0.5386199355125427,-0.134919211268425,0.7933341264724731,174.0004036400937,0.5275404155254364,0.5076954364776611,169.39724522044006,166.23777295660898,0.6419597543695501,-0.00817107155377802,-0.07059907776402492,-0.11249529836347039,-0.7258538971624544,47.98924997404858,2.2929916723160466,10,1762115116.23861
0.5892757177352905,0.2216029018163681,-0.10308308899402618,0.9983451962471008,0.5514019727706909,0.27801305055618286,0.030499065294861794,0.9980894327163696,0.5550187230110168,0.28632086515426636,-0.20043547451496124,0.999596893787384,0.5231101512908936,0.5004103183746338,0.06884480267763138,0.9989936351776123,0.5281211137771606,0.5135037899017334,-0.06892679631710052,0.999539852142334,0.5295631289482117,0.6457794904708862,0.16446933150291443,0.3188270032405853,0.5402594804763794,0.6630939841270447,0.025313138961791992,0.7157325744628906,0.5190269947052002,0.7607186436653137,0.2700843811035156,0.39352262020111084,0.5284199118614197,0.7895031571388245,0.14849357306957245,0.7253443002700806,0.5588434934616089,0.495228111743927,0.0594930537045002,0.25324779748916626,0.5710502862930298,0.5386850833892822,-0.13999219238758087,0.8029571771621704,173.00151612485632,0.5256156325340271,0.5069570541381836,168.98263740509145,165.66665726673844,0.6389401470721455,-0.023105218269811423,-0.008863588880589112,-0.1792704533900173,0.7410767613864357,66.47442882745962,2.46626881516547,11,1762115116.3219151
0.5914120674133301,0.22467096149921417,-0.11501134932041168,0.9984097480773926,0.5549196600914001,0.27825304865837097,0.017495837062597275,0.9981183409690857,0.5549519062042236,0.28709349036216736,-0.20075693726539612,0.9996325373649597,0.5231547951698303,0.5001579523086548,0.06758939474821091,0.998904824256897,0.5234255194664001,0.5127193331718445,-0.0676543265581131,0.9995171427726746,0.5324215888977051,0.6407322287559509,0.1615816056728363,0.30568554997444153,0.5402892231941223,0.6622603535652161,0.026653731241822243,0.7314746975898743,0.5205718278884888,0.7566884160041809,0.2668423056602478,0.3831947147846222,0.5281111598014832,0.7916520237922668,0.1499079167842865,0.7355206608772278,0.5588746070861816,0.49341168999671936,0.05860146880149841,0.23134158551692963,0.5683647394180298,0.5391947627067566,-0.14594045281410217,0.8157140016555786,171.9504267704246,0.5232901573181152,0.5064386427402496,168.70915572991623,165.28409990578385,0.641113640224703,-0.04052176116724276,-0.009033397866258973,-0.30348592271365593,-0.0029589475365221943,89.79101067133821,2.6338624286620367,12,1762115116.3793035
0.5953554511070251,0.22677350044250488,-0.13310961425304413,0.9985004663467407,0.5589214563369751,0.27992385625839233,0.00048659913591109216,0.9981275200843811,0.5549967288970947,0.2928306460380554,-0.21249322593212128,0.9996652603149414,0.5235546827316284,0.4996051788330078,0.0667765885591507,0.9988733530044556,0.5213017463684082,0.5130372643470764,-0.06681274622678757,0.999519944190979,0.5326935052871704,0.6348914504051208,0.16321423649787903,0.30111443996429443,0.5405442118644714,0.661098837852478,0.036934446543455124,0.7517462372779846,0.5194138884544373,0.7471991777420044,0.27198919653892517,0.38787180185317993,0.5280286073684692,0.7846657037734985,0.17026013135910034,0.7530083060264587,0.5593022108078003,0.49178412556648254,0.04945477098226547,0.2117615044116974,0.5634955167770386,0.5451148152351379,-0.1755632758140564,0.8275398015975952,171.0774806353908,0.5224282145500183,0.5063212215900421,168.24616841011607,164.2575950705469,0.6490806928592595,-0.01133459996175033,-0.0015440952855714093,0.38381294968551155,0.09848478563376309,106.91359278142527,2.677100578158229,13,1762115116.4553487
0.5969761610031128,0.22748355567455292,-0.1323331743478775,0.9985774755477905,0.559613823890686,0.2805008888244629,0.001069984631612897,0.998134195804596,0.5558966398239136,0.2954530417919159,-0.21975822746753693,0.999693751335144,0.5234372019767761,0.4996221363544464,0.06683099269866943,0.9988499879837036,0.5197909474372864,0.5139338970184326,-0.06685138493776321,0.9995226263999939,0.5327680706977844,0.6334472894668579,0.16580435633659363,0.2990434765815735,0.5408837795257568,0.660274863243103,0.037763550877571106,0.7711011171340942,0.5165322422981262,0.7429803609848022,0.2763519585132599,0.39733627438545227,0.5261088609695435,0.7839715480804443,0.17159542441368103,0.7702195048332214,0.5589879155158997,0.49180349707603455,0.04479297250509262,0.1935981810092926,0.5619240999221802,0.5493485927581787,-0.17857977747917175,0.8368113040924072,170.62067738460135,0.5216140747070312,0.5067780166864395,167.30783428561202,163.73184249076388,0.6480479962834323,-0.01208585656594972,0.006781095487026661,-0.011152358701993414,0.12358695183449898,103.96100754125693,2.33072918059753,14,1762115116.5227118
0.5999827980995178,0.23202285170555115,-0.14289844036102295,0.9985910654067993,0.562711238861084,0.28827178478240967,-0.0064237723127007484,0.9981071352958679,0.5574709177017212,0.3007054924964905,-0.22887155413627625,0.9997187852859497,0.5266969203948975,0.5022159814834595,0.06669779121875763,0.9988365173339844,0.5203524231910706,0.515055775642395,-0.06669841706752777,0.9995180368423462,0.5404577255249023,0.6356980800628662,0.1665484607219696,0.2860080897808075,0.5410011410713196,0.6608577966690063,0.044191908091306686,0.7831811904907227,0.5201021432876587,0.746533215045929,0.2780340611934662,0.38493338227272034,0.5245649218559265,0.7788103818893433,0.18707877397537231,0.7758764624595642,0.5627055764198303,0.5007874965667725,0.04335346072912216,0.17685936391353607,0.5561357736587524,0.5648101568222046,-0.21418063342571259,0.8444050550460815,170.3099960848735,0.523524671792984,0.5086358785629272,165.29192803019507,162.50061492693283,0.6546633207164866,0.028598538244394404,0.02780917772678446,0.60897937586535,0.31475627099059317,112.85351887057054,1.987639496043329,15,1762115116.5895193
0.6019722819328308,0.24291828274726868,-0.13444015383720398,0.9985300898551941,0.5618855953216553,0.2954932749271393,0.0011639223666861653,0.9981328248977661,0.5603171586990356,0.30667999386787415,-0.2286873757839203,0.9997416734695435,0.5266019105911255,0.5089256167411804,0.06674718856811523,0.9987504482269287,0.5208978056907654,0.5158122777938843,-0.06675748527050018,0.9994628429412842,0.5405125617980957,0.64848792552948,0.16388753056526184,0.2686428427696228,0.525612473487854,0.6671466827392578,0.0396261066198349,0.7797578573226929,0.5175651907920837,0.753800094127655,0.27379146218299866,0.36157262325286865,0.5048890113830566,0.7794008255004883,0.18413344025611877,0.7677795886993408,0.5633541345596313,0.49993738532066345,0.047709062695503235,0.16252253949642181,0.5456842184066772,0.577608585357666,-0.229200080037117,0.8543453216552734,169.97455725750703,0.5237498581409454,0.5123689472675323,162.5459168704801,161.21871994714039,0.6438471587155657,0.0033578759878981367,0.055665815791438394,-0.3763772292459491,0.41538546589375763,97.9811434454295,1.7105150368710687,16,1762115116.6565814
0.6034895181655884,0.2532263994216919,-0.09662846475839615,0.9984890818595886,0.5613547563552856,0.3049812614917755,0.02253669500350952,0.9981573224067688,0.5635855793952942,0.31450021266937256,-0.21066024899482727,0.9997597932815552,0.5244095921516418,0.5191664099693298,0.06674105674028397,0.9987624287605286,0.5175358057022095,0.5302557945251465,-0.06674019247293472,0.9994452595710754,0.5397356748580933,0.6503470540046692,0.16805148124694824,0.2597358226776123,0.5268036127090454,0.6660653352737427,0.05512470006942749,0.786191463470459,0.514923632144928,0.7516248822212219,0.2830316126346588,0.347727507352829,0.5074671506881714,0.7725749611854553,0.21269333362579346,0.7675902843475342,0.5580190420150757,0.5037751197814941,0.05585344880819321,0.15058740973472595,0.5324827432632446,0.5796336531639099,-0.20211103558540344,0.8621542453765869,169.07412211274558,0.5209726989269257,0.5247111022472382,161.86169397399763,163.4854687939576,0.6214052412066379,-0.05157424707997202,0.22920448608393032,-1.0201370067037114,3.222763107859414,76.81042283611592,1.87981855239677,17,1762115116.7104292
0.6027176976203918,0.2660429775714874,-0.09767984598875046,0.9985591173171997,0.5610224604606628,0.3213938772678375,0.026609117165207863,0.998278021812439,0.5654105544090271,0.33543217182159424,-0.2091398537158966,0.9997779130935669,0.519171416759491,0.5375498533248901,0.06713210046291351,0.9988360404968262,0.5144063830375671,0.5508829355239868,-0.06709886342287064,0.9994620084762573,0.5374144315719604,0.6560072302818298,0.17681188881397247,0.24474211037158966,0.5288170576095581,0.6660559773445129,0.07402895390987396,0.7845631241798401,0.5132718682289124,0.7518767714500427,0.2931671142578125,0.3270536959171295,0.510409414768219,0.7733869552612305,0.25697240233421326,0.7554318308830261,0.5706113576889038,0.5031067132949829,0.09644235670566559,0.14149823784828186,0.5238543748855591,0.5906160473823547,-0.19239045679569244,0.8647995591163635,167.858536650014,0.516788899898529,0.5442163944244385,162.64886057834156,167.05107211425383,0.6275359976193875,-0.05646078532313177,0.26322586405492887,-0.0659443211415561,0.4591218901721067,72.64178533017586,2.182148081118794,18,1762115116.7845302
0.603898286819458,0.26618337631225586,-0.08064340054988861,0.9984725713729858,0.5615736246109009,0.32057327032089233,0.03800874575972557,0.9982782602310181,0.5667855739593506,0.33399343490600586,-0.19945965707302094,0.9997883439064026,0.5177937746047974,0.536756694316864,0.06720993667840958,0.9988738298416138,0.5141220688819885,0.5519903898239136,-0.06715181469917297,0.9994535446166992,0.5382652282714844,0.6455070376396179,0.17917278409004211,0.23057851195335388,0.5358040928840637,0.6619695425033569,0.07794316112995148,0.7797600030899048,0.5102556347846985,0.7424597144126892,0.30178171396255493,0.3047192692756653,0.5109380483627319,0.7663573622703552,0.25620296597480774,0.7368746399879456,0.5684719681739807,0.5027266144752502,0.10989810526371002,0.12995031476020813,0.5239341259002686,0.5902228355407715,-0.17798788845539093,0.8648179769515991,167.47637009613462,0.5159579217433929,0.5443735420703888,161.43049579251326,164.74333109086948,0.6135200358438083,-0.015679193676813936,0.0029651181098820025,0.7694816884405604,-4.910693039188342,68.77547188063303,1.8238968062200465,19,1762115116.837529
0.6036750078201294,0.2774835526943207,-0.04895121231675148,0.9985676407814026,0.5609294176101685,0.33455735445022583,0.04144834727048874,0.9984026551246643,0.5685855150222778,0.34764137864112854,-0.18452610075473785,0.9998011589050293,0.5157808661460876,0.5512540340423584,0.06334510445594788,0.998948872089386,0.5146533846855164,0.5658621191978455,-0.06319443136453629,0.9994581341743469,0.5418837070465088,0.6464679837226868,0.15551629662513733,0.2220904380083084,0.5357322096824646,0.6645220518112183,0.0740598812699318,0.7712347507476807,0.5129694938659668,0.7522545456886292,0.2662034332752228,0.286794513463974,0.511676549911499,0.7680794596672058,0.24193283915519714,0.7010707259178162,0.5696119666099548,0.5019240379333496,0.12271074205636978,0.12813107669353485,0.5179358720779419,0.592028021812439,-0.1569824516773224,0.8687285780906677,167.16619728004167,0.515217125415802,0.5585580766201019,158.0439874420798,165.366076319997,0.5771908036398464,-0.009438468641972309,0.1807248221435124,0.07951293135601181,2.264832221541662,59.66602632454771,1.870439466838268,20,1762115116.9160159
0.6038517951965332,0.28547972440719604,-0.062011510133743286,0.9986756443977356,0.560749888420105,0.3399541676044464,0.03960593044757843,0.998509407043457,0.5694647431373596,0.3546314537525177,-0.19116079807281494,0.9998169541358948,0.5113534331321716,0.5452544093132019,0.06599196791648865,0.9989926815032959,0.5110432505607605,0.5579583048820496,-0.06575553119182587,0.9994583129882812,0.5426381230354309,0.6406036615371704,0.1602158397436142,0.22148899734020233,0.5400136709213257,0.6636109948158264,0.06414086371660233,0.7830321192741394,0.5132766366004944,0.7491097450256348,0.26666224002838135,0.27778562903404236,0.5124981999397278,0.7694780230522156,0.2284558117389679,0.6905508041381836,0.572138786315918,0.4985373616218567,0.12506672739982605,0.1266675740480423,0.513048529624939,0.58802330493927,-0.17843097448349,0.8765690326690674,165.21913561996925,0.5111983418464661,0.5516063570976257,155.9236249296864,161.0844462468943,0.5732436589333068,-0.06008241014015427,-0.10393096724981109,-0.7571470350941394,-4.2557170825512,59.299653840202325,1.8955682867912473,21,1762115116.9829037
0.6034272313117981,0.30291908979415894,-0.06747612357139587,0.9987875819206238,0.5574760437011719,0.3495999574661255,0.02835703268647194,0.9986028671264648,0.5686516165733337,0.3714824318885803,-0.19210569560527802,0.9998330473899841,0.5068563222885132,0.549744725227356,0.06595530360937119,0.9990505576133728,0.5097723603248596,0.5611635446548462,-0.0657484382390976,0.9994849562644958,0.5372769832611084,0.6455651521682739,0.16231092810630798,0.21849718689918518,0.5452204346656799,0.6644311547279358,0.05860350281000137,0.7938544750213623,0.5032679438591003,0.741884171962738,0.26980823278427124,0.27024951577186584,0.5227466821670532,0.7730783224105835,0.2205946445465088,0.6951389908790588,0.5662631392478943,0.5050813555717468,0.10806455463171005,0.12064952403306961,0.5102317333221436,0.5879355072975159,-0.18868125975131989,0.8841132521629333,164.3103713710006,0.5083143413066864,0.5554541349411011,153.94948645722016,160.17821357662078,0.5590793990881905,-0.04866738147349448,0.06493108082011008,0.19262810356257776,2.8495395879649434,62.94619777813189,1.9385568039935062,22,1762115117.0421631
0.6015785932540894,0.3104391098022461,-0.057863641530275345,0.9988737106323242,0.5540704131126404,0.3576505780220032,0.04165685921907425,0.9986875057220459,0.5685299634933472,0.3748542070388794,-0.18280011415481567,0.9998465180397034,0.5020934343338013,0.5461537837982178,0.06599494814872742,0.9990785121917725,0.5059694051742554,0.5675643682479858,-0.06578677892684937,0.9994800090789795,0.539192795753479,0.6358428597450256,0.1464499831199646,0.2178097665309906,0.548274040222168,0.6632905006408691,0.011434496380388737,0.8055235743522644,0.5133829712867737,0.743249773979187,0.24245667457580566,0.26294541358947754,0.5231515169143677,0.7686508297920227,0.15305249392986298,0.6900597810745239,0.556614875793457,0.5208711624145508,0.09613146632909775,0.12223325669765472,0.507673442363739,0.5904169082641602,-0.16358943283557892,0.8912811279296875,163.27683138849423,0.5040314197540283,0.5568590760231018,152.72229128746125,149.39162600884,0.520347653518126,-0.06329230438581657,0.020761986301369863,-0.21612468526567227,-0.6527235533863597,49.9531432880797,2.2487288461021753,23,1762115117.109832
0.5994213819503784,0.3076170086860657,-0.02900948002934456,0.9988964200019836,0.5537959337234497,0.3560948371887207,0.046984538435935974,0.9987431764602661,0.567698061466217,0.3748859465122223,-0.17592252790927887,0.9998569488525391,0.5022329688072205,0.5487019419670105,0.06746141612529755,0.9989936351776123,0.5068538188934326,0.5662235021591187,-0.06729115545749664,0.9993879199028015,0.5427478551864624,0.640308678150177,0.13010020554065704,0.21372748911380768,0.5497511625289917,0.6636171936988831,-0.019763920456171036,0.806316614151001,0.5128059983253479,0.7473195195198059,0.21433332562446594,0.2519545555114746,0.515324056148529,0.7690091729164124,0.10720908641815186,0.6664865612983704,0.5559162497520447,0.5186706185340881,0.08328884094953537,0.1219729632139206,0.5069249868392944,0.5905458927154541,-0.14667044579982758,0.8975995182991028,163.6815896163097,0.5045433938503265,0.5574627220630646,147.31881950259506,138.97270913170624,0.4962814921443639,0.008670762385072903,0.010223312888389992,1.2187621541462943,-0.1784823366622188,53.50504761797882,1.7462408798694184,24,1762115117.168878
0.5948306918144226,0.31251832842826843,0.01126039307564497,0.9988174438476562,0.5449258089065552,0.36013540625572205,0.05617130920290947,0.9987412691116333,0.5672074556350708,0.38257426023483276,-0.1477382630109787,0.9998661875724792,0.49177998304367065,0.5465838313102722,0.06602878868579865,0.9990183115005493,0.5046668648719788,0.5670791268348694,-0.06597144901752472,0.9993836283683777,0.5347540378570557,0.6392450928688049,0.13451620936393738,0.21416877210140228,0.5524518489837646,0.6634872555732727,-0.00601977901533246,0.8104384541511536,0.5034651756286621,0.7451294660568237,0.19801601767539978,0.2469865083694458,0.5203534960746765,0.7692514061927795,0.09832342714071274,0.6514836549758911,0.5187524557113647,0.5354883074760437,0.08486480265855789,0.11613984405994415,0.504167914390564,0.5939531326293945,-0.11515587568283081,0.8988890647888184,162.67925841486053,0.4982234239578247,0.5568314790725708,144.89915227925957,142.822091310406,0.47260279209525363,-0.08352356870529666,-0.008342392160569681,-1.2184234542321626,-0.24536096968734206,45.20141265690191,1.8250173373352248,25,1762115117.244545
0.5853310227394104,0.32556116580963135,0.04918385297060013,0.9988519549369812,0.537989616394043,0.3640308380126953,0.049298450350761414,0.9988089799880981,0.5693846940994263,0.4057226777076721,-0.13056327402591705,0.999873161315918,0.4834706783294678,0.5452576279640198,0.058195460587739944,0.9991012215614319,0.5039311647415161,0.5676072239875793,-0.05831097811460495,0.9994246363639832,0.5115661025047302,0.6546804904937744,0.1347329318523407,0.23418918251991272,0.5521489381790161,0.6631489396095276,0.011867649853229523,0.8116147518157959,0.4858156144618988,0.7613537311553955,0.16878148913383484,0.27668336033821106,0.5235246419906616,0.769757866859436,0.10057751834392548,0.6555968523025513,0.504108726978302,0.5416122078895569,0.07488676905632019,0.11274448782205582,0.5017411112785339,0.5987749695777893,-0.08580702543258667,0.8936407566070557,160.7272867941957,0.49370092153549194,0.5564324259757996,149.82483140756554,146.02962062831404,0.45542393815740834,-0.05824978120345775,-0.005139799474888298,0.32552610362238926,0.041249358386967916,53.019268429286164,2.2063178085783033,26,1762115117.3221848
0.5792414546012878,0.3391668200492859,0.04858827218413353,0.9989292621612549,0.5329302549362183,0.37301012873649597,0.032890938222408295,0.9988837838172913,0.5689650177955627,0.4300280213356018,-0.13028179109096527,0.9998822212219238,0.4746876657009125,0.5542569160461426,0.05166509747505188,0.999180018901825,0.49933093786239624,0.5824097394943237,-0.05171145126223564,0.9994686245918274,0.47843503952026367,0.6542665362358093,0.13986554741859436,0.25756317377090454,0.5508503913879395,0.6644483804702759,0.07111088931560516,0.8062382340431213,0.457113653421402,0.7600827813148499,0.20380620658397675,0.29741621017456055,0.5279422998428345,0.7702702879905701,0.21559984982013702,0.63707435131073,0.5055174827575684,0.5401232242584229,0.12655584514141083,0.10595101118087769,0.5012818574905396,0.6094313263893127,-0.08076464384794235,0.8912032246589661,159.0286414893725,0.48700930178165436,0.5683333277702332,164.67896572666018,153.36549666961255,0.46363937365663355,-0.10160990333791906,0.18071102744189413,-0.6584082749585822,2.822079743466687,57.707505036044516,2.8910783898695978,27,1762115117.3880408
0.5770249962806702,0.3440512418746948,0.029290830716490746,0.9990049004554749,0.5292316675186157,0.3811047077178955,0.04687955603003502,0.9989517331123352,0.5574802160263062,0.42534393072128296,-0.1371450126171112,0.9998918771743774,0.4702291488647461,0.5663523077964783,0.0549367256462574,0.9992517232894897,0.49102625250816345,0.5962352156639099,-0.05494088679552078,0.9995110034942627,0.4929735064506531,0.6776431202888489,0.14180679619312286,0.3037837743759155,0.550233006477356,0.6688788533210754,0.024157322943210602,0.8206412196159363,0.4634377062320709,0.7700669169425964,0.21785664558410645,0.34276118874549866,0.5299140214920044,0.7692574262619019,0.18034806847572327,0.6408719420433044,0.5048240423202515,0.557805597782135,0.12871688604354858,0.10191112011671066,0.49902328848838806,0.6121165752410889,-0.07557133585214615,0.891355037689209,160.5942488124746,0.4806277006864548,0.5812937617301941,156.93227400137116,143.62770312100778,0.4652274723754766,-0.10800470894902069,0.21934744538506856,-0.10822818733250755,0.6538978247832281,57.44010840453158,2.5163371777551706,28,1762115117.447127
0.5776222944259644,0.3437628149986267,0.012976564466953278,0.9990361928939819,0.5297770500183105,0.3760755658149719,0.04703559726476669,0.9990301132202148,0.5555416345596313,0.41996100544929504,-0.1430072784423828,0.9999005794525146,0.4694839417934418,0.5633843541145325,0.056187085807323456,0.9993196129798889,0.4877273440361023,0.5941862463951111,-0.056123990565538406,0.9995525479316711,0.4964275360107422,0.6718717217445374,0.1589653640985489,0.330068975687027,0.550764262676239,0.6687284111976624,0.016998833045363426,0.8320421576499939,0.4667540490627289,0.7685641050338745,0.23544880747795105,0.37274783849716187,0.5289865136146545,0.766467273235321,0.17710576951503754,0.6418824791908264,0.5002273321151733,0.5597275495529175,0.1147870272397995,0.09772113710641861,0.4992084503173828,0.6084873676300049,-0.06848029047250748,0.8913518786430359,160.4885261234647,0.47860564291477203,0.5787853002548218,155.70506972390965,139.9030934565973,0.4725378840265756,-0.03203640257768175,-0.039742722884102535,1.2036012423282707,-4.104886146592645,59.58334574942273,2.489783125098321,29,1762115117.5102446
0.577889084815979,0.3509836196899414,-0.026412248611450195,0.9991045594215393,0.5284732580184937,0.38835322856903076,0.056625258177518845,0.9991052150726318,0.546065092086792,0.43276524543762207,-0.14811792969703674,0.9999081492424011,0.46758413314819336,0.5779336094856262,0.06530163437128067,0.9993818998336792,0.48094862699508667,0.6057125329971313,-0.06532557308673859,0.9995908141136169,0.5038286447525024,0.6699506044387817,0.1687292754650116,0.34281665086746216,0.5504931807518005,0.6696939468383789,-0.01888418383896351,0.8378244042396545,0.4668542444705963,0.7657167911529541,0.25779321789741516,0.3762332797050476,0.5284253358840942,0.7550630569458008,0.17332085967063904,0.6111083626747131,0.5030781030654907,0.5667195916175842,0.13963983952999115,0.09338118880987167,0.4987606406211853,0.6094169020652771,-0.07330673933029175,0.8871935606002808,160.8338215334238,0.47426638007164,0.5918230712413788,149.06992964370693,125.25713167294174,0.48228892521177025,-0.06762801814790319,0.20319548383261124,-0.5547003052617105,3.786225920529498,68.39122040357866,2.134087575219559,30,1762115117.5744083
0.5751879215240479,0.3570660948753357,-0.03527899831533432,0.9991567730903625,0.5248486399650574,0.39420872926712036,0.05717528611421585,0.9991601705551147,0.5381088256835938,0.44045186042785645,-0.15032652020454407,0.9999141693115234,0.46484270691871643,0.5900290608406067,0.06916247308254242,0.9994365572929382,0.4751482903957367,0.6170362234115601,-0.06917642056941986,0.999626636505127,0.5069825649261475,0.6675271987915039,0.19697321951389313,0.359322190284729,0.5504527688026428,0.6695883870124817,-0.004945035092532635,0.8512616157531738,0.473147451877594,0.762896716594696,0.3131204843521118,0.4060749411582947,0.5277315974235535,0.7575194239616394,0.18105748295783997,0.6310787200927734,0.5108563899993896,0.5620501041412354,0.1602572202682495,0.09134697169065475,0.49688276648521423,0.6121357083320618,-0.09066934883594513,0.8814087510108948,161.72699353483617,0.46999549865722656,0.6035326421260834,150.43969747522084,129.8274060849654,0.4978377772014067,-0.061034893387939784,0.16734072928237034,0.09422192464995381,-0.5123980061912461,73.99979250832888,2.174154848906595,31,1762115117.6443827
0.5720260143280029,0.36521250009536743,-0.05839000269770622,0.9992374181747437,0.5254834890365601,0.40807339549064636,0.054652221500873566,0.999228298664093,0.5308919548988342,0.44965794682502747,-0.1528499275445938,0.9999208450317383,0.4650627076625824,0.5963385701179504,0.06841900944709778,0.9994800686836243,0.4735465943813324,0.6266444325447083,-0.0684405192732811,0.9996553659439087,0.5237516760826111,0.6667705774307251,0.18738266825675964,0.3664202392101288,0.5499616861343384,0.6698964238166809,0.002165337326005101,0.861473560333252,0.4966837465763092,0.7681503891944885,0.300916850566864,0.4113444685935974,0.5285975933074951,0.7589985132217407,0.18288986384868622,0.6311251521110535,0.5135387182235718,0.5582789182662964,0.18328696489334106,0.09105412662029266,0.4965647757053375,0.6159461736679077,-0.09251651912927628,0.8773646950721741,162.12939879094256,0.4693046510219574,0.6114915013313293,145.16079718962172,131.0092664136366,0.5023892566780599,-0.010443321968413693,0.12031152013609071,0.7647765473153223,-0.7109254602038377,82.58973557905759,2.43147556652316,32,1762115117.7105348
0.5628803968429565,0.37368693947792053,-0.05148985981941223,0.999309778213501,0.5247727036476135,0.4189195930957794,0.06688302755355835,0.9992884397506714,0.5228704214096069,0.44766607880592346,-0.14258362352848053,0.9999262094497681,0.4631384313106537,0.6045364141464233,0.06795266270637512,0.9994904398918152,0.4686838984489441,0.6295956373214722,-0.06795817613601685,0.9996581673622131,0.5250169038772583,0.657858669757843,0.1713888794183731,0.36439502239227295,0.5498071312904358,0.6707286238670349,-0.0283550713211298,0.8683720827102661,0.49452465772628784,0.7725785970687866,0.2569386661052704,0.4015151560306549,0.5283775329589844,0.770682692527771,0.1220693364739418,0.6199076175689697,0.5257715582847595,0.5608939528465271,0.19015608727931976,0.10099656879901886,0.49694710969924927,0.6180055737495422,-0.0956992357969284,0.8803483247756958,162.50937757091563,0.4659111648797989,0.6170660257339478,132.70154707927384,117.49553960334637,0.46806218256673954,-0.04778700784625767,0.07850034749151416,-0.5258730801586861,-0.5887841445424964,93.78599549239019,2.2305897502799943,33,1762115117.7815475
0.5621296763420105,0.3722923696041107,-0.06203819438815117,0.9993748664855957,0.5258769392967224,0.4207310080528259,0.06198851019144058,0.9993409514427185,0.5206276178359985,0.4443034827709198,-0.14606985449790955,0.9999306201934814,0.46631914377212524,0.6015705466270447,0.06817830353975296,0.9995102882385254,0.46692973375320435,0.6249948143959045,-0.06814999878406525,0.9996650815010071,0.5313323140144348,0.6559850573539734,0.15928009152412415,0.3617132008075714,0.549989640712738,0.6705776453018188,-0.03574540838599205,0.8759385943412781,0.496797651052475,0.7703421711921692,0.2399311065673828,0.3980751037597656,0.5290427207946777,0.7712271213531494,0.11279322952032089,0.6187404990196228,0.5327001214027405,0.5635109543800354,0.17885443568229675,0.10847781598567963,0.4970916211605072,0.6182277798652649,-0.10311595350503922,0.8812658190727234,162.60594968284647,0.4666244387626648,0.6132826805114746,129.14836084661974,115.05703154272052,0.46696081347307444,0.010580194367721379,-0.05611943571117862,0.8657773107333745,-1.9968535316366962,102.55426934548993,2.0412466846688657,34,1762115117.8489635
0.5566297769546509,0.3675259053707123,-0.07032619416713715,0.9994300007820129,0.5244101881980896,0.42201533913612366,0.05982935428619385,0.9993662238121033,0.5157343745231628,0.4395986795425415,-0.14921140670776367,0.9999334812164307,0.46592283248901367,0.6004250049591064,0.0680372416973114,0.9995095729827881,0.464158296585083,0.6210136413574219,-0.06799403578042984,0.9996621608734131,0.5241989493370056,0.6627501845359802,0.16200923919677734,0.3587716221809387,0.5486529469490051,0.6679941415786743,-0.023466257378458977,0.8840014338493347,0.49608269333839417,0.7734055519104004,0.2650732100009918,0.3979432284832001,0.529096245765686,0.7723067998886108,0.13322387635707855,0.6292078495025635,0.5346943140029907,0.5721186399459839,0.1755974143743515,0.1101558730006218,0.49778223037719727,0.6187880039215088,-0.12192906439304352,0.8837917447090149,162.99213605632056,0.46504056453704834,0.6107193231582642,139.9404482502487,120.50388003348402,0.488721608843777,-0.02487810449683933,-0.04026296473830852,-0.5569477993679501,0.24905951207118607,116.26223864909807,2.308621552131594,35,1762115117.912629
0.554141640663147,0.36263740062713623,-0.1089722067117691,0.9994839429855347,0.5239468216896057,0.41678106784820557,0.02800210379064083,0.9993681311607361,0.5068286657333374,0.4351244568824768,-0.16528289020061493,0.9999354481697083,0.4676085412502289,0.5969829559326172,0.06591583043336868,0.9995014667510986,0.46115365624427795,0.6181548833847046,-0.06583845615386963,0.9996603727340698,0.5210382342338562,0.6674357056617737,0.1485634744167328,0.37533414363861084,0.5477425456047058,0.6626049876213074,-0.015562755055725574,0.8925846815109253,0.4955064654350281,0.779609739780426,0.24366092681884766,0.41766780614852905,0.5303546190261841,0.7721906304359436,0.12561742961406708,0.651099681854248,0.5342525243759155,0.5130348801612854,0.17218302190303802,0.11320079863071442,0.49828919768333435,0.6180390119552612,-0.12008365243673325,0.8878767490386963,164.31267663673654,0.4643810987472534,0.6075689196586609,142.84218528160275,122.13328413391201,0.5086178614937912,-0.01041341169118173,-0.04974700605001901,0.2284073010347185,-0.14975943893272914,133.0211587026045,2.3767302067538916,36,1762115117.9759574
0.5468915700912476,0.3614368736743927,-0.1037062406539917,0.999531626701355,0.5161624550819397,0.4131913185119629,0.02153300866484642,0.9993911981582642,0.49982327222824097,0.4341840445995331,-0.16726504266262054,0.9999362230300903,0.46671271324157715,0.5942271947860718,0.06373347342014313,0.9995079040527344,0.4572104811668396,0.6159545183181763,-0.06362035125494003,0.9996693134307861,0.5230491161346436,0.6658363342285156,0.15154574811458588,0.39292389154434204,0.5459994077682495,0.6543559432029724,-0.004541611298918724,0.9010360240936279,0.499502032995224,0.7770549058914185,0.24532321095466614,0.44078728556632996,0.5310636162757874,0.7701321840286255,0.13312958180904388,0.6757356524467468,0.531836211681366,0.5137951970100403,0.1670331060886383,0.1204768717288971,0.49856796860694885,0.6175950169563293,-0.1058799996972084,0.8886939287185669,165.7616526920654,0.4619615972042084,0.605090856552124,142.88968009522137,123.36620100504395,0.5066377051851858,-0.030530042298690125,-0.031268990788151554,-0.2538380622735242,0.2331614911188146,127.89454696848966,2.3921744265082596,37,1762115118.0552073
0.5393384695053101,0.3561265766620636,-0.08381783962249756,0.999565064907074,0.5101826786994934,0.4149593412876129,0.029885653406381607,0.9994004964828491,0.4926103949546814,0.4262043535709381,-0.1645732820034027,0.9999350309371948,0.4640423655509949,0.5977388024330139,0.0637630969285965,0.9995102286338806,0.4552391469478607,0.6151049137115479,-0.0636523887515068,0.999671995639801,0.5229609608650208,0.6655763983726501,0.15273472666740417,0.40143492817878723,0.5440521240234375,0.650202751159668,-0.004192077089101076,0.9075586199760437,0.5000225305557251,0.7760559916496277,0.24544766545295715,0.456614226102829,0.5323428511619568,0.7717323899269104,0.1360495388507843,0.6936471462249756,0.5165870785713196,0.5568128824234009,0.09295497089624405,0.12036126852035522,0.4993106722831726,0.6185761094093323,-0.09725671261548996,0.8887055516242981,167.33670290787703,0.4596407562494278,0.6064218580722809,141.19769021704928,123.56113701452527,0.5004524956937111,-0.03656011154720099,0.020967211883344914,-0.09499143140713273,0.8228747396663662,147.38364683626034,2.410166711781619,38,1762115118.1186874
0.5392583012580872,0.34813955426216125,-0.07702504098415375,0.9995846152305603,0.5091985464096069,0.4172531068325043,0.037327542901039124,0.9993999004364014,0.4914510250091553,0.4220943748950958,-0.15742404758930206,0.999932050704956,0.4650633931159973,0.6036125421524048,0.06419553607702255,0.9995325803756714,0.45591479539871216,0.6158245801925659,-0.06409494578838348,0.9996813535690308,0.522828996181488,0.6651350259780884,0.14298158884048462,0.4140261113643646,0.5439795255661011,0.6494677066802979,-0.01769755408167839,0.9128468036651611,0.49359065294265747,0.7787377834320068,0.2305106669664383,0.4783262014389038,0.5339516401290894,0.7703105211257935,0.12207380682229996,0.7062540054321289,0.5044398307800293,0.5849595069885254,0.047893401235342026,0.11615943908691406,0.5005058646202087,0.6189376711845398,-0.07348746806383133,0.8810408115386963,168.16150954658053,0.46048909425735474,0.6097185611724854,136.19696012820572,119.81571237595328,0.4966115823795442,0.010662545810871149,0.041435427273462805,0.5935296340452053,0.25725982123237023,164.74177143364548,2.028901877946595,39,1762115118.1982498
0.5318375825881958,0.3442356288433075,-0.07759930938482285,0.9996103048324585,0.5036024451255798,0.41714566946029663,0.032406970858573914,0.9994171857833862,0.48571258783340454,0.4214838743209839,-0.15755169093608856,0.9999276995658875,0.4637387692928314,0.6052643656730652,0.06384281069040298,0.9995419383049011,0.45628347992897034,0.6184820532798767,-0.06374994665384293,0.9996873140335083,0.5251189470291138,0.6543508768081665,0.14601030945777893,0.4174354374408722,0.5437846183776855,0.6469160318374634,-0.016835156828165054,0.9161734580993652,0.4935928285121918,0.7763260006904602,0.23254641890525818,0.48618990182876587,0.5346869230270386,0.7698683142662048,0.1290581077337265,0.7168970704078674,0.5088661909103394,0.5940541625022888,0.063141830265522,0.11575286835432053,0.5021516680717468,0.6191542148590088,-0.07630951702594757,0.8736053109169006,169.80009787176368,0.4600111246109009,0.611873209476471,129.96277241233167,118.93461474361592,0.5010057807509514,-0.00752409511942472,0.033918009037546354,-0.28629018030244135,-0.11833757703899249,166.36916427761392,1.705634352657193,40,1762115118.261775
0.5229247212409973,0.34269100427627563,-0.07692616432905197,0.9996258616447449,0.49289125204086304,0.4169834554195404,0.03341604396700859,0.9994292855262756,0.47897401452064514,0.4203847348690033,-0.15751072764396667,0.9999228119850159,0.46121540665626526,0.608160674571991,0.0639016404747963,0.999546229839325,0.45615220069885254,0.620216429233551,-0.06381060183048248,0.9996882081031799,0.5270008444786072,0.6513057947158813,0.14233604073524475,0.42278945446014404,0.5438929796218872,0.6474968791007996,-0.01851469650864601,0.9176033139228821,0.4985339045524597,0.7762807011604309,0.23012185096740723,0.48877036571502686,0.5358052849769592,0.770205020904541,0.11572019010782242,0.7244890332221985,0.500709056854248,0.5986130833625793,0.05453135818243027,0.11295494437217712,0.5033043622970581,0.6190587878227234,-0.07296399027109146,0.8615556359291077,172.0654002704869,0.4586838036775589,0.614188551902771,127.0735169156195,117.86907941886943,0.4978269163301405,-0.020823826338055035,0.036324514582172236,-0.20865435501137475,0.03775473759513485,166.26649746453413,1.490773421728223,41,1762115118.3255155
0.5169496536254883,0.34282371401786804,-0.0738702267408371,0.9996221661567688,0.4852236211299896,0.4160650074481964,0.03362186998128891,0.9994284510612488,0.47342532873153687,0.42010295391082764,-0.1562943309545517,0.9999139308929443,0.458045095205307,0.6091741919517517,0.0629287138581276,0.9995381236076355,0.456362783908844,0.6206767559051514,-0.06286776810884476,0.9996786713600159,0.5263774991035461,0.6500260233879089,0.1337343007326126,0.43111875653266907,0.5441523790359497,0.6467809677124023,-0.020460497587919235,0.918144941329956,0.49802860617637634,0.7749816179275513,0.21772626042366028,0.4934499263763428,0.5368779897689819,0.7721549272537231,0.10606421530246735,0.7342188358306885,0.4962983727455139,0.5989210605621338,0.05304361507296562,0.11012285202741623,0.5042653679847717,0.6188758015632629,-0.07673574984073639,0.8492286205291748,173.58814999135132,0.4572039395570755,0.6149254739284515,123.94170993998705,116.39681408156548,0.49104631420831524,-0.018661383233316897,0.009292734477409113,0.02726884106398925,-0.34087616628542683,161.1065720937129,1.2418447805209445,42,1762115118.4048164
0.5093703866004944,0.3430821895599365,-0.04282841458916664,0.9996160268783569,0.4788955748081207,0.41837823390960693,0.06934268772602081,0.9994258284568787,0.4692316949367523,0.420335978269577,-0.1473895013332367,0.9999127984046936,0.4570556581020355,0.6149226427078247,0.06648899614810944,0.9995151162147522,0.4560536742210388,0.6257255673408508,-0.06645337492227554,0.9996587634086609,0.5291603207588196,0.6344879269599915,0.11655563116073608,0.4263947010040283,0.5443178415298462,0.637604832649231,-0.05890446901321411,0.9156551361083984,0.4978408217430115,0.7656432390213013,0.17764759063720703,0.4880642890930176,0.5376428365707397,0.7736425399780273,0.050822366029024124,0.7433028817176819,0.5013584494590759,0.591382622718811,0.07535893470048904,0.10774534195661545,0.5065786838531494,0.6201420426368713,-0.07955482602119446,0.8446415662765503,175.02075829133742,0.45655466616153717,0.6203241050243378,104.64538149484721,96.81511832304835,0.4546350417420598,-0.010239475702747823,0.085140023161726,0.13281911460202436,1.1961624716787178,168.54779808943786,0.9216094576732031,43,1762115118.4682252
0.5090689063072205,0.3440812826156616,-0.039332158863544464,0.9995940327644348,0.47671571373939514,0.41836053133010864,0.07626520097255707,0.9994188547134399,0.4669763147830963,0.42064857482910156,-0.1483030766248703,0.9999134540557861,0.45718565583229065,0.6152808666229248,0.0692523643374443,0.9994825124740601,0.45685887336730957,0.6271268129348755,-0.06926045566797256,0.999632716178894,0.5190165042877197,0.6368877291679382,0.12056078016757965,0.4263310134410858,0.5443464517593384,0.6336352229118347,-0.06220468133687973,0.9108859896659851,0.4822459816932678,0.7581667304039001,0.18796846270561218,0.48282158374786377,0.5379664301872253,0.7715153098106384,0.055459458380937576,0.7473523616790771,0.5045250654220581,0.5887690782546997,0.07627364248037338,0.10426464676856995,0.5084595084190369,0.6205514669418335,-0.0910596176981926,0.843127429485321,175.7966434396371,0.4570222645998001,0.6212038397789001,108.57904114034828,94.20083098265206,0.4505282291494405,0.005883738232523535,0.01106960286079428,0.2028765763515405,-0.9320197164102045,166.77943642862365,0.6870394294355984,44,1762115118.5476983
0.5040128231048584,0.3444731533527374,-0.0471760630607605,0.9995925426483154,0.4743964672088623,0.4189015328884125,0.07533778995275497,0.9994296431541443,0.4620511531829834,0.42203474044799805,-0.1573207825422287,0.999916136264801,0.4588453769683838,0.6137720346450806,0.07375665009021759,0.999474823474884,0.45644745230674744,0.6261876225471497,-0.07376336306333542,0.9996249675750732,0.5193125009536743,0.63792484998703,0.12224048376083374,0.43506500124931335,0.5443660616874695,0.6290021538734436,-0.07235291600227356,0.910504937171936,0.4851897358894348,0.7583588361740112,0.18939948081970215,0.48944219946861267,0.5391314029693604,0.7724294662475586,0.04692177474498749,0.7600131630897522,0.5050899982452393,0.5833097100257874,0.07277330011129379,0.10406231880187988,0.5103400945663452,0.620797336101532,-0.11906391382217407,0.8474792838096619,176.96522411133475,0.4576464146375656,0.6199798285961151,110.83297463718598,90.38976020297673,0.4523019937463597,0.009747313589550739,-0.019115309002360616,0.060337223909539384,-0.4713959525764893,165.75916828813422,0.5374771549933534,45,1762115118.6117313
0.49866634607315063,0.34486255049705505,-0.06607020646333694,0.9995831847190857,0.4714425206184387,0.42029711604118347,0.06788770109415054,0.9994351863861084,0.457511842250824,0.42581745982170105,-0.17652399837970734,0.9999186396598816,0.45962801575660706,0.6138630509376526,0.07735329866409302,0.9994438290596008,0.4562658667564392,0.6258662939071655,-0.07734952121973038,0.9996122717857361,0.5196052193641663,0.6355961561203003,0.12398546934127808,0.44696229696273804,0.5443894863128662,0.6303356289863586,-0.06708942353725433,0.9121953248977661,0.48661795258522034,0.7600336074829102,0.19737878441810608,0.49885106086730957,0.5410998463630676,0.7752721905708313,0.054305970668792725,0.7757351994514465,0.5054968595504761,0.5688381791114807,0.0613718144595623,0.10867124795913696,0.5113267302513123,0.6206978559494019,-0.14321231842041016,0.8539704084396362,178.099573439369,0.45794694125652313,0.6198646724224091,110.74690560430578,95.47735525129806,0.464556705245944,0.004789588676736012,-0.001835280706754061,-0.07901284480941753,0.2753973280151069,158.38294233707055,0.3600020379298902,46,1762115118.674477
0.49354982376098633,0.34665119647979736,-0.09289301186800003,0.9995628595352173,0.46710076928138733,0.4200185537338257,0.05562407523393631,0.9994312524795532,0.4533463418483734,0.4284695088863373,-0.20604188740253448,0.9999207854270935,0.4616948068141937,0.6129034757614136,0.08547718077898026,0.9991944432258606,0.4543338716030121,0.6253477931022644,-0.08544601500034332,0.9995373487472534,0.5335308313369751,0.6173570156097412,0.14551480114459991,0.44213634729385376,0.544376015663147,0.6324485540390015,-0.09501264244318008,0.917468249797821,0.4987735152244568,0.7386322617530823,0.2313450574874878,0.4925183057785034,0.5406032800674438,0.7772549390792847,0.011688420549035072,0.793895959854126,0.505537211894989,0.5641950368881226,0.04670080542564392,0.11879239976406097,0.5120698809623718,0.6173407435417175,-0.16393163800239563,0.8636284470558167,179.35051154418835,0.4580143392086029,0.619125634431839,102.91353319069506,88.8350629105515,0.46456023060053236,0.0010567757009345795,-0.01158785046728972,-0.05852916783422748,-0.15291679385754672,148.43272380511021,0.11466902271420412,47,1762115118.738254
0.4890431761741638,0.34905150532722473,-0.10506157577037811,0.9995136260986328,0.463360071182251,0.41990894079208374,0.04210614040493965,0.9994202852249146,0.44991666078567505,0.4311874806880951,-0.21150431036949158,0.9999228119850159,0.46203064918518066,0.6112135052680969,0.08597169816493988,0.9990196824073792,0.45407217741012573,0.6249783039093018,-0.0859617367386818,0.9994885325431824,0.5329495668411255,0.618026077747345,0.16809330880641937,0.4359866678714752,0.5444049835205078,0.6330253481864929,-0.07097931951284409,0.9209198355674744,0.4950551986694336,0.7306002974510193,0.26779910922050476,0.4819955825805664,0.5414725542068481,0.7798270583152771,0.044723834842443466,0.8092901706695557,0.5077035427093506,0.5722140669822693,0.03284146264195442,0.1289837658405304,0.5105701088905334,0.6114540100097656,-0.17744287848472595,0.8725793957710266,-179.57953173926387,0.4580514132976532,0.6180959045886993,111.8210343649014,98.87070994075702,0.4838504883243522,0.0005829668702364484,-0.01619185795852875,-0.007450347620079906,-0.07239513920549237,140.00455422610491,0.06921816956265511,48,1762115118.8018496
0.48938170075416565,0.3503451943397522,-0.11085808277130127,0.9993735551834106,0.46316805481910706,0.42083320021629333,0.030486280098557472,0.9993761777877808,0.44985324144363403,0.433674156665802,-0.21039465069770813,0.999920129776001,0.4637743830680847,0.6111602187156677,0.0834432989358902,0.9988797307014465,0.45458516478538513,0.6253339648246765,-0.083411306142807,0.9994369745254517,0.5176931619644165,0.6595538258552551,0.1644769161939621,0.4346140921115875,0.5444242358207703,0.6355100274085999,-0.03388984128832817,0.9199533462524414,0.4712071418762207,0.7384670972824097,0.27395084500312805,0.4828595221042633,0.5418080687522888,0.7794265747070312,0.10342858731746674,0.8199044466018677,0.5081782341003418,0.5741106867790222,0.01983536034822464,0.13327205181121826,0.5103599429130554,0.6083341836929321,-0.17922568321228027,0.8802893161773682,-179.1993457477585,0.4591797739267349,0.6182470917701721,131.01977822392982,113.04948396715508,0.5069294645361442,0.017792459604351978,0.002383982345466439,0.27136643763645685,0.29291157428516523,136.03789842028283,0.10871275750265337,49,1762115118.8652675
0.4866267740726471,0.3518173098564148,-0.10555529594421387,0.9992710947990417,0.46122440695762634,0.42152297496795654,0.034172527492046356,0.9993637204170227,0.44824108481407166,0.43438130617141724,-0.20961251854896545,0.9999189972877502,0.4641992151737213,0.6108065843582153,0.0814618393778801,0.9987870454788208,0.45463356375694275,0.6256903409957886,-0.08144117146730423,0.9993873238563538,0.516032338142395,0.6575441360473633,0.15810547769069672,0.42584797739982605,0.5444443821907043,0.6370583772659302,-0.03895958885550499,0.9164049029350281,0.46795979142189026,0.7404929399490356,0.2575843334197998,0.4768570363521576,0.5433400273323059,0.7827147841453552,0.09139806032180786,0.82822185754776,0.508018970489502,0.5739904046058655,0.03030587173998356,0.1431513875722885,0.5102103352546692,0.6077675223350525,-0.18247653543949127,0.8884389996528625,-178.59009969326848,0.45941638946533203,0.618248462677002,128.98013263462576,111.27953705843225,0.4967020597613932,0.0030089911589211214,1.7433540312409042e-05,-0.18799832891040197,-0.03009491462007849,135.27712613441642,0.190473696203586,50,1762115118.9439037
0.4840942919254303,0.35373932123184204,-0.10361669957637787,0.9990224242210388,0.4600905776023865,0.42241227626800537,0.03689415380358696,0.9993001222610474,0.4469345510005951,0.4352988004684448,-0.20996710658073425,0.9999129176139832,0.46472030878067017,0.6117417812347412,0.08137907832860947,0.9984294772148132,0.4548642635345459,0.6266973614692688,-0.08135756105184555,0.9992006421089172,0.5170800685882568,0.6552170515060425,0.14940489828586578,0.4198198616504669,0.5447039604187012,0.6417571306228638,-0.049192097038030624,0.9147664308547974,0.47456637024879456,0.7594096064567566,0.25043049454689026,0.47083956003189087,0.5448753833770752,0.7857875227928162,0.0800192803144455,0.8358821272850037,0.5082359313964844,0.5770795345306396,0.03746602684259415,0.14594575762748718,0.5091454982757568,0.6080033779144287,-0.18241526186466217,0.8945685625076294,-178.11061403946704,0.45979228615760803,0.619219571352005,129.09018099961096,109.82723231385812,0.49837293920634695,0.005484294559621539,0.014168376930569083,0.03611442519400085,0.20646082672021404,135.5929065513675,0.29660310866587125,51,1762115119.0124443
0.48196735978126526,0.35435301065444946,-0.1064046174287796,0.9988753795623779,0.46056342124938965,0.4239693880081177,0.03742319345474243,0.9992958903312683,0.4465108811855316,0.4370368421077728,-0.21089687943458557,0.9999061226844788,0.4647291302680969,0.6114478707313538,0.08230580389499664,0.9982926845550537,0.45515379309654236,0.6271976232528687,-0.08229925483465195,0.9990541338920593,0.5297989249229431,0.6458137631416321,0.1448226422071457,0.411155641078949,0.5448530912399292,0.643872082233429,-0.056663911789655685,0.9142639636993408,0.4922635555267334,0.769328236579895,0.24855121970176697,0.46349194645881653,0.5458214282989502,0.786395788192749,0.07294128835201263,0.8424056768417358,0.5069701075553894,0.5749473571777344,0.03904862329363823,0.15729393064975739,0.5084062814712524,0.6081937551498413,-0.18461114168167114,0.9002043008804321,-178.0574088411425,0.45994146168231964,0.6193227469921112,121.2131008999219,108.47554417365595,0.5020996196871939,0.0025623922418206166,0.0017722509122331386,-0.0501895994330504,-0.21292861010156616,137.08025359633595,0.3502586782065968,52,1762115119.0706615
0.4800189435482025,0.3547382056713104,-0.10191874206066132,0.9986507296562195,0.45994701981544495,0.42427554726600647,0.0388825461268425,0.999229371547699,0.44631633162498474,0.43742480874061584,-0.20601990818977356,0.9998979568481445,0.4653712809085846,0.6137281656265259,0.08155470341444016,0.9980570077896118,0.4553443491458893,0.6277231574058533,-0.08154578506946564,0.998920738697052,0.5196933746337891,0.6629536747932434,0.14024166762828827,0.40601077675819397,0.5449753999710083,0.64561527967453,-0.055386267602443695,0.9120671153068542,0.4847950041294098,0.7720353603363037,0.24666759371757507,0.45910170674324036,0.5470747947692871,0.7867476344108582,0.07309358566999435,0.8483374118804932,0.5090441107749939,0.5784489512443542,0.03949201852083206,0.15736326575279236,0.5070981979370117,0.6093425750732422,-0.18125775456428528,0.90265953540802,-177.82053183360023,0.46035781502723694,0.6207256615161896,131.45197157941655,109.55653031937541,0.5001592387919483,0.0052506780160438745,0.017692310005171564,0.03390226880094203,0.20076962347934382,136.02990290895752,0.44060514368651216,53,1762115119.1499567
0.479454904794693,0.3547784090042114,-0.10279195010662079,0.9985857605934143,0.46042293310165405,0.4241810142993927,0.039183489978313446,0.9992162585258484,0.44569143652915955,0.438628613948822,-0.20569708943367004,0.9998908638954163,0.46824654936790466,0.6134703159332275,0.08131303638219833,0.9979598522186279,0.45583662390708923,0.6277116537094116,-0.08129924535751343,0.9987869262695312,0.5353954434394836,0.6491414308547974,0.1246970146894455,0.40126723051071167,0.5451138615608215,0.6469203233718872,-0.06431528180837631,0.9127860069274902,0.5037866830825806,0.7743851542472839,0.22800561785697937,0.45306625962257385,0.5478421449661255,0.7871613502502441,0.06249317526817322,0.8545189499855042,0.5070167779922485,0.5755392909049988,0.04003237187862396,0.16590791940689087,0.506325364112854,0.6100612282752991,-0.17581447958946228,0.9077693819999695,-177.2810811416365,0.46204158663749695,0.6205909848213196,118.12917143674467,106.84873213453746,0.495121520663801,0.026817177271139327,-0.0021449754697206737,0.34348639097940326,-0.31594546310008964,135.557439550254,0.6221351331567644,54,1762115119.2127438
0.47869858145713806,0.354836642742157,-0.10152819007635117,0.9983981251716614,0.45948463678359985,0.42457160353660583,0.03963179141283035,0.9991615414619446,0.44680601358413696,0.4385479688644409,-0.204901784658432,0.9998850226402283,0.4683298170566559,0.6145678758621216,0.08125801384449005,0.9978266358375549,0.4590838849544525,0.6291744112968445,-0.08125058561563492,0.9986901879310608,0.5331724882125854,0.6585401892662048,0.1307075172662735,0.3926342725753784,0.5457388758659363,0.6475449204444885,-0.05345752090215683,0.9101623892784119,0.4988815188407898,0.7788156867027283,0.24197296798229218,0.4462660551071167,0.5488685965538025,0.7877206802368164,0.08267264813184738,0.8568622469902039,0.5091873407363892,0.5780960321426392,0.03944600373506546,0.16391806304454803,0.5061884522438049,0.611472487449646,-0.17557409405708313,0.9090099930763245,-176.8235696532924,0.4637068510055542,0.621871143579483,123.53029457555562,111.43221908800373,0.5051849644553155,0.026207642461286776,0.020146917012806225,-0.00959275336141396,0.35082594642259607,132.21266133882997,0.677819307531455,55,1762115119.276285
0.4780588150024414,0.35496413707733154,-0.10642902553081512,0.9983320832252502,0.4588766098022461,0.4246440529823303,0.037436343729496,0.9991282224655151,0.4470313489437103,0.43889620900154114,-0.2060268372297287,0.9998827576637268,0.46880990266799927,0.6142643094062805,0.08115896582603455,0.9977531433105469,0.45933952927589417,0.6293644309043884,-0.0811518207192421,0.9986158609390259,0.5343707203865051,0.657810628414154,0.12284503132104874,0.3850124776363373,0.5468951463699341,0.647494912147522,-0.05756489560008049,0.9078812003135681,0.5048743486404419,0.7775256037712097,0.2318054437637329,0.43622586131095886,0.550796389579773,0.787830114364624,0.07731486856937408,0.8581798076629639,0.5091936588287354,0.5760751366615295,0.04089394956827164,0.16010890901088715,0.5067451000213623,0.6131001114845276,-0.17246600985527039,0.9111409187316895,-176.65106661144196,0.4640747159719467,0.6218143701553345,122.25471447469386,109.69437791222259,0.5035196980068756,0.005766804955990357,-0.0008900039244267533,-0.3204391116286924,-0.3297835646305247,129.7306694169923,0.8689050088747837,56,1762115119.340075
0.47708502411842346,0.35595232248306274,-0.12274859100580215,0.9982911944389343,0.45826515555381775,0.42455172538757324,0.02718827687203884,0.9990817308425903,0.44658607244491577,0.4403490722179413,-0.21642450988292694,0.9998806118965149,0.46931472420692444,0.614164412021637,0.08098794519901276,0.9976919293403625,0.45935216546058655,0.6295405626296997,-0.08098433911800385,0.9985700249671936,0.5360304713249207,0.6530774831771851,0.1277724951505661,0.38059836626052856,0.5472984910011292,0.6474086046218872,-0.05579344183206558,0.9062920808792114,0.5040973424911499,0.7758848667144775,0.2379915416240692,0.4318596422672272,0.5519969463348389,0.7876201272010803,0.08138205111026764,0.8611447811126709,0.5085824131965637,0.5733165740966797,0.03655843064188957,0.15261191129684448,0.5071443319320679,0.6150355935096741,-0.1784495711326599,0.911343514919281,-176.40251254322104,0.4643334448337555,0.6218524873256683,120.94524074797697,110.3955971154701,0.5134906759894837,0.004055729550134731,0.0005975094274747822,-0.02682212969021775,0.023317660872276002,126.47576209959809,0.8743968557219037,57,1762115119.4038684
0.47645479440689087,0.35636040568351746,-0.13149897754192352,0.9982983469963074,0.45881232619285583,0.4245007336139679,0.025640323758125305,0.9990233778953552,0.4459698796272278,0.4421398937702179,-0.2209613025188446,0.9998680353164673,0.4718562960624695,0.6109899878501892,0.08079320937395096,0.9976053237915039,0.45941048860549927,0.6297443509101868,-0.08078403770923615,0.9984082579612732,0.5434590578079224,0.6406946182250977,0.0992390364408493,0.37729406356811523,0.547660231590271,0.6475050449371338,-0.08225293457508087,0.9058645963668823,0.5222600102424622,0.776853621006012,0.20074181258678436,0.4250445067882538,0.5534197092056274,0.7881244421005249,0.04504930227994919,0.8640760779380798,0.5085932612419128,0.5718634128570557,0.03564159572124481,0.14956729114055634,0.5072227716445923,0.6169291734695435,-0.17840559780597687,0.9149649739265442,-175.95040788692972,0.4656333923339844,0.620367169380188,108.81616627922955,99.49567950006931,0.500070306511922,0.02050142695458938,-0.023424897819523144,0.2593645235637157,-0.378856551792294,126.05703405024039,1.7151480667745942,58,1762115119.467276
0.47602567076683044,0.3563336730003357,-0.13315457105636597,0.9983186721801758,0.45923104882240295,0.4242486357688904,0.02375604584813118,0.9989501237869263,0.4456847310066223,0.44265487790107727,-0.2191963642835617,0.9998573064804077,0.47411903738975525,0.6075136065483093,0.07993315905332565,0.9975254535675049,0.459566593170166,0.6297289133071899,-0.07990776747465134,0.998266339302063,0.5447536706924438,0.6371040940284729,0.08135463297367096,0.3774285614490509,0.5477010607719421,0.64745032787323,-0.09246520698070526,0.9066599607467651,0.5286775231361389,0.7770919799804688,0.1859228014945984,0.42159634828567505,0.5539838075637817,0.7881202101707458,0.03642622381448746,0.8676643371582031,0.508426308631897,0.5697123408317566,0.03720147907733917,0.14494121074676514,0.5072065591812134,0.6184098124504089,-0.17688584327697754,0.918136477470398,-175.5578889977208,0.46684281527996063,0.6186212599277496,103.57733558040941,94.72708218115801,0.4956507049187295,0.01525326704032908,-0.022019445881093565,-0.06618990065377381,0.01772558872025516,126.3517025590381,2.937077453253783,59,1762115119.5465655
0.4766221046447754,0.3562731146812439,-0.131916806101799,0.9983262419700623,0.45927587151527405,0.4237596392631531,0.02103284001350403,0.9989458322525024,0.4461328089237213,0.44378364086151123,-0.221664696931839,0.999848484992981,0.4743939936161041,0.6068827509880066,0.07988477498292923,0.9974530935287476,0.460635244846344,0.6296567916870117,-0.0798521414399147,0.9981326460838318,0.545825183391571,0.6382322311401367,0.09480726718902588,0.3776111602783203,0.5480958223342896,0.6479164361953735,-0.08265867084264755,0.9070726037025452,0.5264742374420166,0.7791591286659241,0.19832739233970642,0.41864803433418274,0.5552504658699036,0.789967954158783,0.04378907009959221,0.8708785176277161,0.5059611201286316,0.5669211149215698,0.039267055690288544,0.14664770662784576,0.5076462030410767,0.6195713877677917,-0.17676153779029846,0.9214526414871216,-175.4105181264475,0.46751461923122406,0.6182697713375092,109.1349302706415,99.6936843369334,0.5015534552501479,0.008069435375786109,-0.004221937752729189,-0.08628925932712248,0.21377641709575132,123.27951086891167,2.4282524746723673,60,1762115119.6298184
0.4765397608280182,0.3565366566181183,-0.1382291465997696,0.9983147978782654,0.4595268666744232,0.423725426197052,0.02231583744287491,0.9989641904830933,0.4464031755924225,0.4437735676765442,-0.22260716557502747,0.9998322129249573,0.4744745194911957,0.606814444065094,0.08021294325590134,0.9973637461662292,0.4617856442928314,0.6296170353889465,-0.08018441498279572,0.9979143142700195,0.54649817943573,0.6387496590614319,0.09192117303609848,0.37376391887664795,0.5485149025917053,0.6480978727340698,-0.09182169288396835,0.9059029817581177,0.5232263207435608,0.7812402248382568,0.1954483836889267,0.4131305515766144,0.555770993232727,0.7914807796478271,0.032568253576755524,0.8733633160591125,0.5058271288871765,0.5634788274765015,0.03965618461370468,0.15889185667037964,0.5076414942741394,0.619591236114502,-0.18591776490211487,0.9240589737892151,-175.3002545505936,0.46813008189201355,0.6182157397270203,106.7836149200191,96.1886519248555,0.502330667728412,0.010469899577381387,-0.0009191549250075033,0.04083532719525581,0.05618505676329456,123.2091135848922,1.8935298239013174,61,1762115119.6886024
0.47706037759780884,0.3572022616863251,-0.14878875017166138,0.9983780980110168,0.45955967903137207,0.4236859679222107,0.017455916851758957,0.9989863038063049,0.44654616713523865,0.4447993338108063,-0.22832432389259338,0.9998173117637634,0.47510331869125366,0.6064957976341248,0.08017526566982269,0.9974404573440552,0.4616781771183014,0.6297414898872375,-0.0801490992307663,0.9978556036949158,0.5477613210678101,0.6364198923110962,0.07062159478664398,0.3797614574432373,0.5487614274024963,0.6488870978355408,-0.10684051364660263,0.9081195592880249,0.5329725742340088,0.7825325727462769,0.16642874479293823,0.41972070932388306,0.5560492277145386,0.7920186519622803,0.015626339241862297,0.8793468475341797,0.505454421043396,0.564055323600769,0.03952312469482422,0.16811519861221313,0.5079010725021362,0.6201956868171692,-0.18618172407150269,0.9278299808502197,-175.23177059870125,0.4683907479047775,0.6181186437606812,99.88283624610781,90.34669330089751,0.4970156074589901,0.0040740212846826305,-0.0015175397410959824,-0.09996295267802284,-0.009352321966817852,121.64817231873279,4.088480379539286,62,1762115119.752585
0.47720518708229065,0.3597680330276489,-0.14761142432689667,0.9984041452407837,0.45974358916282654,0.4237387776374817,0.012639862485229969,0.998989999294281,0.4469360411167145,0.44631415605545044,-0.2337644100189209,0.9998080134391785,0.4758123755455017,0.6063923835754395,0.08025576174259186,0.9974766969680786,0.46231335401535034,0.6314274072647095,-0.08022217452526093,0.9978184103965759,0.5482752323150635,0.6357137560844421,0.08125915378332138,0.38617047667503357,0.5493619441986084,0.6501857042312622,-0.10279084742069244,0.9110472798347473,0.5363885164260864,0.7835543155670166,0.17356368899345398,0.42657992243766785,0.5569961667060852,0.7940545678138733,0.018350522965192795,0.8854902386665344,0.5100079774856567,0.5681707262992859,0.03278682380914688,0.17294584214687347,0.5090154409408569,0.6209880113601685,-0.1871315985918045,0.931506872177124,-175.11278146066402,0.469062864780426,0.6189098954200745,105.13549798880516,92.08548001401915,0.4982231764501292,0.010602004896596075,0.012481242877934855,0.10297273692410655,0.22081749060406966,119.56727096165645,7.391267646119202,63,1762115119.8159802
0.4772728979587555,0.3608090281486511,-0.14827260375022888,0.9984226226806641,0.45979323983192444,0.42389434576034546,0.013265848159790039,0.9989912509918213,0.44704753160476685,0.44686779379844666,-0.23232099413871765,0.9997947812080383,0.47612160444259644,0.6061958074569702,0.0802123099565506,0.9975069165229797,0.4621911942958832,0.6319644451141357,-0.0801786407828331,0.9977495074272156,0.5484815239906311,0.632831871509552,0.07693065702915192,0.39153218269348145,0.549620509147644,0.6505244374275208,-0.10621687024831772,0.913096010684967,0.5408390760421753,0.7832416296005249,0.16722673177719116,0.4333401024341583,0.5572147369384766,0.7944494485855103,0.015071513131260872,0.8904160857200623,0.5111958384513855,0.5692698359489441,0.03258887678384781,0.17812906205654144,0.5092002153396606,0.6209695339202881,-0.18481814861297607,0.934659481048584,-175.10388608311027,0.4691563993692398,0.619080126285553,103.46996962419018,90.57852677628766,0.4956678882280921,0.0011804730166849716,0.0021484345615117276,-0.1189064313118951,-0.13040738788513637,119.02158814494446,626.6811732823453,64,1762115119.895215
0.4781652092933655,0.36059296131134033,-0.1517791450023651,0.9984930157661438,0.46152520179748535,0.4238550364971161,0.006272998638451099,0.999036967754364,0.4471701681613922,0.4484002888202667,-0.23466035723686218,0.9997879862785339,0.4781988263130188,0.6043336987495422,0.07947231084108353,0.997597873210907,0.46243181824684143,0.631888747215271,-0.0794353038072586,0.9977438449859619,0.5498684048652649,0.6335489749908447,0.06872312724590302,0.3974643051624298,0.5498679876327515,0.6521559953689575,-0.10656774044036865,0.9141345620155334,0.5451927781105042,0.7851914167404175,0.16182273626327515,0.4372592866420746,0.557691216468811,0.7952248454093933,0.017001373693346977,0.8936086893081665,0.5100067853927612,0.5676306486129761,0.029156073927879333,0.19936662912368774,0.5113506317138672,0.6209319829940796,-0.18936355412006378,0.939154326915741,-174.98558429522257,0.4703153222799301,0.6181112229824066,102.85378944354059,90.74572631885708,0.4981082981623062,0.018261197057696497,-0.015267050107819344,0.26914168727172283,-0.27441652457497384,120.32078328928635,10.139463264455696,65,1762115119.9586787
0.4804397225379944,0.3614308536052704,-0.162021204829216,0.9985530376434326,0.4638538360595703,0.4254363477230072,0.005295134149491787,0.9990405440330505,0.44719845056533813,0.4492337107658386,-0.23543617129325867,0.999786376953125,0.4786900579929352,0.6054717302322388,0.07944990694522858,0.9976325631141663,0.46242770552635193,0.6333048939704895,-0.0794144868850708,0.9977167844772339,0.5491454005241394,0.6339182257652283,0.07209931313991547,0.39897650480270386,0.5500160455703735,0.6527462601661682,-0.10331428050994873,0.9158211946487427,0.5423005819320679,0.788075864315033,0.17185436189174652,0.43799105286598206,0.5584529638290405,0.7968598008155823,0.020148303359746933,0.8977910280227661,0.5130015015602112,0.569889485836029,0.029271647334098816,0.20948068797588348,0.5140315294265747,0.6200302243232727,-0.2005515843629837,0.9433121085166931,-175.27960799368967,0.47055888175964355,0.6193883121013641,103.05973717538399,91.91695271693561,0.5072077464671759,0.003838699919585754,0.020127986412247015,-0.22731054717898724,0.5578552064701918,124.9875461871472,18.86047499061958,66,1762115120.0221272
0.4828471541404724,0.36257636547088623,-0.16701540350914001,0.9986016154289246,0.46560555696487427,0.42557910084724426,0.0009598253527656198,0.9990795850753784,0.44769176840782166,0.44940856099128723,-0.23464226722717285,0.9997875690460205,0.47979316115379333,0.6053571105003357,0.07929441332817078,0.9976304769515991,0.4634220004081726,0.6332054138183594,-0.07926003634929657,0.9976593255996704,0.54900723695755,0.6358897089958191,0.07822808623313904,0.39998218417167664,0.5503768920898438,0.652906060218811,-0.09810926020145416,0.9167186617851257,0.5393146276473999,0.7877278923988342,0.1844329684972763,0.4339428246021271,0.5591160655021667,0.7974730730056763,0.023413553833961487,0.9006252884864807,0.5125058889389038,0.5580458045005798,0.018997889012098312,0.24101145565509796,0.5137563943862915,0.6152016520500183,-0.20916537940502167,0.9475844502449036,-175.29584545886036,0.47160758078098297,0.6192812621593475,105.92452868731922,94.38499915667556,0.5125751051147114,0.016545714952058168,-0.0016889667961917372,0.20048330773711995,-0.34421419450565743,126.9340025804014,31.313284603717673,67,1762115120.085509
0.48646053671836853,0.36248070001602173,-0.15944737195968628,0.9985408186912537,0.46703043580055237,0.4266365170478821,0.0013987874845042825,0.999053955078125,0.45148032903671265,0.4492424428462982,-0.2380014955997467,0.999783456325531,0.4793890118598938,0.6064261198043823,0.08082734048366547,0.9975645542144775,0.4633874297142029,0.6331469416618347,-0.0807768851518631,0.997532308101654,0.5488873720169067,0.6379521489143372,0.08560474216938019,0.395664244890213,0.5507959127426147,0.6529086828231812,-0.09685342758893967,0.9175189733505249,0.5396090745925903,0.7885558009147644,0.18823610246181488,0.431707501411438,0.5591213703155518,0.7972139716148376,0.02604416012763977,0.9028224349021912,0.5121945142745972,0.5590718388557434,0.023419968783855438,0.24034377932548523,0.5134667754173279,0.6107124090194702,-0.20116016268730164,0.9503389000892639,-176.1828819377542,0.47138822078704834,0.6197865307331085,109.2184547209494,95.32656907559709,0.5101702264140895,-0.0027683541447269446,0.006376560854520837,-0.2437462833426273,0.10178809955617377,124.52320592130658,25.413347276798966,68,1762115120.1647475
