nose_x,nose_y,nose_z,nose_visibility,left_shoulder_x,left_shoulder_y,left_shoulder_z,left_shoulder_visibility,right_shoulder_x,right_shoulder_y,right_shoulder_z,right_shoulder_visibility,left_hip_x,left_hip_y,left_hip_z,left_hip_visibility,right_hip_x,right_hip_y,right_hip_z,right_hip_visibility,left_knee_x,left_knee_y,left_knee_z,left_knee_visibility,right_knee_x,right_knee_y,right_knee_z,right_knee_visibility,left_ankle_x,left_ankle_y,left_ankle_z,left_ankle_visibility,right_ankle_x,right_ankle_y,right_ankle_z,right_ankle_visibility,left_wrist_x,left_wrist_y,left_wrist_z,left_wrist_visibility,right_wrist_x,right_wrist_y,right_wrist_z,right_wrist_visibility,trunk_lateral_inclination,center_mass_x,center_mass_y,left_knee_angle,right_knee_angle,person_height,center_mass_velocity_x,center_mass_velocity_y,center_mass_acceleration_x,center_mass_acceleration_y,body_orientation,torso_leg_ratio,frame,timestamp
0.4933110177516937,0.17729231715202332,0.062657929956913,0.9978561997413635,0.4568856358528137,0.26092299818992615,-0.08195067197084427,0.9996434450149536,0.5260832905769348,0.2629864811897278,-0.043219976127147675,0.9996510744094849,0.46963271498680115,0.4507478177547455,-0.016572503373026848,0.9994109869003296,0.5101253390312195,0.44500845670700073,0.01646563597023487,0.9992992877960205,0.4661320149898529,0.5756909847259521,0.04713347554206848,0.6227884888648987,0.5003605484962463,0.5711179971694946,0.06661538779735565,0.5304219126701355,0.47795891761779785,0.6811890006065369,0.12325532734394073,0.5269163250923157,0.493231862783432,0.7058547735214233,0.11930187046527863,0.4967273771762848,0.43004196882247925,0.4526595175266266,-0.04161486029624939,0.771247386932373,0.5499987006187439,0.4394124448299408,0.014295707456767559,0.7338476181030273,179.5052670400732,0.4898790270090103,0.4478781372308731,168.98010135135456,178.5452133756358,0.519604544425726,0.0,0.0,0.0,0.0,1.708061371823332,0.683132814868966,0,1762115120.7376173
0.4930858016014099,0.17703501880168915,0.09623973816633224,0.9978761672973633,0.4566488265991211,0.2607589662075043,-0.05660874396562576,0.9996679425239563,0.5270761251449585,0.2627103626728058,-0.01789514347910881,0.9996458888053894,0.46984416246414185,0.4504973888397217,-0.018228616565465927,0.9994329810142517,0.5101800560951233,0.4451376497745514,0.018199311569333076,0.9992478489875793,0.47277289628982544,0.5841655135154724,0.012254233472049236,0.6305676102638245,0.49358701705932617,0.576673686504364,0.05502016469836235,0.5183912515640259,0.4768405556678772,0.7189174294471741,0.07631291449069977,0.5299099683761597,0.4748072624206543,0.712009608745575,0.12145020067691803,0.49439001083374023,0.430563747882843,0.4531850218772888,-0.010289793834090233,0.7695391774177551,0.5485318899154663,0.44175592064857483,0.04741296172142029,0.7299553155899048,179.4302822671896,0.49001210927963257,0.44781751930713654,167.4076231406565,169.55675952747856,0.5387116130863274,0.0023952124715181317,-0.0010910003733216617,0.043108993834349824,-0.01963580639549156,1.5871428351751593,0.2515093941738208,1,1762115120.793179
0.49298444390296936,0.17678147554397583,0.10261751711368561,0.997861385345459,0.45645326375961304,0.26072418689727783,-0.05061442404985428,0.9996877908706665,0.5274393558502197,0.2627027928829193,-0.01067263726145029,0.9996334910392761,0.46982574462890625,0.4505080282688141,-0.019051654264330864,0.9994468092918396,0.5107887387275696,0.4455069303512573,0.0190607700496912,0.9991878271102905,0.4747247099876404,0.5884281396865845,-0.0081709586083889,0.6447532176971436,0.4925873279571533,0.580864667892456,0.031530894339084625,0.518829882144928,0.4767233729362488,0.7304283976554871,0.044530026614665985,0.5391244292259216,0.4714369773864746,0.7202342748641968,0.0929039865732193,0.4998139441013336,0.43104177713394165,0.4539203345775604,-0.0053316447883844376,0.7689385414123535,0.5483111143112183,0.4439307749271393,0.05690774321556091,0.715237557888031,179.49590825142752,0.4903072416782379,0.4480074793100357,164.09371318582475,161.65765816513877,0.5499214177330705,0.003707200421669247,0.0023861148629425208,0.016480068962300205,0.043676543581744255,1.5966004636755475,0.17114909243792928,2,1762115120.8727896
0.49246320128440857,0.17677047848701477,0.10147303342819214,0.9978465437889099,0.45632439851760864,0.2604488730430603,-0.04660322889685631,0.9997068643569946,0.5276600122451782,0.2620599865913391,-0.011354295536875725,0.9996457695960999,0.47014355659484863,0.4466460645198822,-0.018980763852596283,0.9994766712188721,0.5106850862503052,0.44446948170661926,0.019014546647667885,0.9991857409477234,0.4741407036781311,0.5869802236557007,-0.014132964424788952,0.6531959772109985,0.49274855852127075,0.5799840092658997,0.024618055671453476,0.5084043741226196,0.47490066289901733,0.7244152426719666,0.032670680433511734,0.5475888252258301,0.47613388299942017,0.7192084193229675,0.08321540057659149,0.4998393952846527,0.4334259033203125,0.45315179228782654,0.013253824785351753,0.7470974326133728,0.5479943752288818,0.44639113545417786,0.058294665068387985,0.7088221907615662,179.50948321900773,0.4904143214225769,0.44555777311325073,163.1131380554808,159.64649549174462,0.5470393959464466,0.0016826328685214185,-0.038494266029267414,-0.0318137097776776,-0.6423873440446867,1.2938041940852085,0.1990177447673156,3,1762115120.9364278
0.49243348836898804,0.17601513862609863,0.09588055312633514,0.9978993535041809,0.45671120285987854,0.2602616250514984,-0.05506644397974014,0.999723494052887,0.52821946144104,0.2606755495071411,-0.031829144805669785,0.9996414184570312,0.4708921015262604,0.4443724453449249,-0.017627421766519547,0.9994935989379883,0.5093154311180115,0.4430868327617645,0.017687451094388962,0.9991611838340759,0.4772857129573822,0.587675929069519,-0.00039277379983104765,0.6651508808135986,0.4931064248085022,0.5793160200119019,0.030964281409978867,0.5086395144462585,0.47515052556991577,0.7230720520019531,0.05757896974682808,0.5692437291145325,0.478441059589386,0.717674195766449,0.09445521980524063,0.5148584246635437,0.4358965754508972,0.45568960905075073,-0.003619259921833873,0.747584879398346,0.5459949374198914,0.4467099606990814,0.02084372565150261,0.7092906832695007,179.26170746704074,0.4901037663221359,0.4437296390533447,163.33040292446813,160.97797794220415,0.5449446858365484,-0.003907972782013087,-0.02300492935984327,-0.07035123456750186,0.19491518905853836,0.33165203487811196,0.28109607910386036,4,1762115121.015895
0.4934372901916504,0.17501015961170197,0.11370339244604111,0.9980319142341614,0.4581972062587738,0.2594829797744751,-0.040809519588947296,0.9997395277023315,0.5293106436729431,0.25917232036590576,-0.011406609788537025,0.9996545314788818,0.4709198474884033,0.44209182262420654,-0.019391126930713654,0.9995259642601013,0.5094408988952637,0.4414396584033966,0.019421759992837906,0.9991698861122131,0.47610393166542053,0.5872814059257507,0.0051881070248782635,0.6821705102920532,0.49344268441200256,0.5754963755607605,0.06347086280584335,0.506192147731781,0.4752442240715027,0.7227156162261963,0.06396128982305527,0.5890955924987793,0.4796999394893646,0.709193766117096,0.1352185159921646,0.5202630162239075,0.43619102239608765,0.447285920381546,0.01636551320552826,0.7385145425796509,0.5457789301872253,0.4465661644935608,0.023831281810998917,0.7159163355827332,178.87784807456245,0.4901803731918335,0.4417657405138016,165.9435546376115,169.9236341782265,0.5413640777620662,0.001209464927634427,-0.031005919108651872,0.08079381723345344,-0.12631917379928448,-0.2502953084278083,0.4893783960711901,5,1762115121.0792344
0.4944915175437927,0.17413190007209778,0.10381970554590225,0.9980826377868652,0.45994678139686584,0.2570316791534424,-0.03157726675271988,0.9997398853302002,0.5307261347770691,0.25772368907928467,-0.014611346647143364,0.9996644258499146,0.4712122082710266,0.43238499760627747,-0.01354197133332491,0.9995242357254028,0.5054584741592407,0.43930986523628235,0.013656415045261383,0.9991486668586731,0.481604665517807,0.5825803279876709,-0.0014039600500836968,0.6829205751419067,0.49325627088546753,0.5751258134841919,0.022925416007637978,0.5035021305084229,0.48625999689102173,0.7199518084526062,0.041834183037281036,0.5903797149658203,0.4788762629032135,0.7108133435249329,0.07363612949848175,0.5315878391265869,0.4462323784828186,0.4145529866218567,0.06139472872018814,0.6859400868415833,0.5440214276313782,0.4422754943370819,0.025362089276313782,0.7051061987876892,177.75351913576492,0.48833534121513367,0.4358474314212799,166.9848823712402,163.46720433003867,0.5433399000951294,-0.023265943310003128,-0.07463016661856314,-0.3086360928901681,-0.5501038910569873,0.5601631401898747,1.4395701950915984,6,1762115121.1585362
0.49557098746299744,0.17276796698570251,0.10487964004278183,0.9982033967971802,0.4607279896736145,0.2556975185871124,-0.03414158895611763,0.9997512102127075,0.5311206579208374,0.2555713355541229,-0.016650089994072914,0.9996836185455322,0.4713171124458313,0.4325868785381317,-0.013792365789413452,0.9995417594909668,0.5066620707511902,0.4364054799079895,0.013877240009605885,0.9991523027420044,0.4804430603981018,0.5789198279380798,0.0022306295577436686,0.6784325242042542,0.49333158135414124,0.571642279624939,0.05523381382226944,0.4908454716205597,0.48600950837135315,0.7162646651268005,0.0537106916308403,0.5862351059913635,0.4797021746635437,0.7069289088249207,0.1204477995634079,0.5260039567947388,0.4453889727592468,0.41913872957229614,0.0428205206990242,0.6492691040039062,0.5442186594009399,0.4413231313228607,0.026709958910942078,0.7136926054954529,177.7796707856074,0.48898959159851074,0.4344961792230606,165.64359021171305,171.28545582904206,0.5392726826298767,0.00821577092695662,-0.01696839437496819,0.39533267252164545,0.7240896207815982,-0.10270597311876715,1.719719205456048,7,1762115121.2381697
0.49610066413879395,0.17178913950920105,0.10308782011270523,0.9982914328575134,0.4611968398094177,0.25471463799476624,-0.03256852179765701,0.9997479915618896,0.531408429145813,0.25433799624443054,-0.015569927170872688,0.9996849894523621,0.4717889428138733,0.43256813287734985,-0.01539214700460434,0.9995380640029907,0.5090391039848328,0.43507257103919983,0.015508539974689484,0.9990919828414917,0.4794583320617676,0.5765459537506104,0.01293269731104374,0.6723916530609131,0.493832528591156,0.565657913684845,0.07455126941204071,0.47318628430366516,0.48500165343284607,0.7088717818260193,0.06165366619825363,0.5726573467254639,0.4822617173194885,0.6951045989990234,0.13614989817142487,0.5108461380004883,0.4489443302154541,0.3804171681404114,0.16117869317531586,0.5932597517967224,0.5444228053092957,0.43411874771118164,0.0775025263428688,0.704180121421814,178.11889264767754,0.490414023399353,0.43382035195827484,170.87871390785065,178.0929887227682,0.5303621705247255,0.02134580961874444,-0.01012760324554916,0.19676007376128718,0.10251261240013704,-0.3073534709976122,1.953270069392471,8,1762115121.304901
0.49704328179359436,0.1711721420288086,0.11086925119161606,0.9983791708946228,0.4612344205379486,0.2537814974784851,-0.01666088216006756,0.9997485876083374,0.5316601991653442,0.25376155972480774,-0.009052829816937447,0.999687910079956,0.47227129340171814,0.4319756329059601,-0.015388081781566143,0.9995350241661072,0.5108472108840942,0.43377381563186646,0.015496906824409962,0.9990471601486206,0.47869300842285156,0.5742558240890503,0.01293250173330307,0.6717095971107483,0.49519699811935425,0.564990222454071,0.06624632328748703,0.45643892884254456,0.48368653655052185,0.7087308168411255,0.05553974583745003,0.5656868815422058,0.4828473925590515,0.6947657465934753,0.12900808453559875,0.4974232316017151,0.4586227834224701,0.3535003364086151,0.20145392417907715,0.5400692820549011,0.5445543527603149,0.43081361055374146,0.09367294609546661,0.6888516545295715,178.43668019597544,0.4915592521429062,0.43287472426891327,173.63670937948865,175.10362481362154,0.5310806091776921,0.011445503587265505,-0.009450675397148773,-0.09894441511025387,0.006765268651176584,-0.016220610271272317,1.3286236122121018,9,1762115121.4049602
0.49837741255760193,0.17122527956962585,0.09623602777719498,0.9984821081161499,0.461343377828598,0.25357943773269653,-0.028565863147377968,0.9997475147247314,0.5319560766220093,0.25382623076438904,-0.012983378954231739,0.9996873140335083,0.47253426909446716,0.4322051703929901,-0.01542956568300724,0.9995126128196716,0.5120492577552795,0.43354442715644836,0.015521781519055367,0.9989811182022095,0.4790099561214447,0.5673919916152954,0.02833353914320469,0.6724533438682556,0.5040857791900635,0.5640588402748108,0.0801459401845932,0.45261716842651367,0.48335281014442444,0.7010222673416138,0.07707008719444275,0.5580517053604126,0.4934403896331787,0.6920655369758606,0.1396854966878891,0.4875592589378357,0.45979833602905273,0.3741680681705475,0.15964917838573456,0.4912937879562378,0.5446562170982361,0.4265991151332855,0.0974150076508522,0.6635409593582153,178.60668095124333,0.49229176342487335,0.43287479877471924,177.66197647819783,178.08649306244521,0.525553702581824,0.008886991056242697,9.039211375811359e-07,-0.031040447485563546,0.11466867874499799,0.20024927238576784,1.3824852844412394,10,1762115121.4873853
0.49899348616600037,0.1713763177394867,0.10635105520486832,0.9985736012458801,0.4615445137023926,0.25341081619262695,-0.021874165162444115,0.9997539520263672,0.5323988199234009,0.25392404198646545,-0.010819434188306332,0.999687910079956,0.47318682074546814,0.4328804910182953,-0.01549026370048523,0.9995118379592896,0.5129231810569763,0.43393856287002563,0.015575408935546875,0.9989518523216248,0.4795137345790863,0.5687627792358398,0.03129178658127785,0.6684711575508118,0.5027495622634888,0.564054548740387,0.08027806133031845,0.43846309185028076,0.4840077757835388,0.7011488080024719,0.08537060022354126,0.5458998680114746,0.4929112493991852,0.6938008666038513,0.14801058173179626,0.470022588968277,0.4609912931919098,0.3834248483181,0.15629521012306213,0.447374165058136,0.5445094704627991,0.41640904545783997,0.12128480523824692,0.6376350522041321,178.7516952285385,0.49305500090122223,0.43340952694416046,176.65271331210343,178.7367980636155,0.5263055413791106,0.010045091123606787,0.007037643400441811,0.015241941161717648,0.09261165950711558,0.41500875860642494,1.4651952466566587,11,1762115121.5633664
0.4991823732852936,0.17147018015384674,0.11846022307872772,0.9986460208892822,0.4617998003959656,0.2532602846622467,-0.00917710829526186,0.9997609257698059,0.5326501131057739,0.2539866864681244,-0.0058856140822172165,0.9996923804283142,0.47376304864883423,0.43325474858283997,-0.014724520966410637,0.9995205998420715,0.5132212042808533,0.4342041015625,0.014795514754951,0.9989529252052307,0.481052964925766,0.5699284672737122,0.030034219846129417,0.6634448766708374,0.5022549629211426,0.5656498670578003,0.07453858107328415,0.42233774065971375,0.4856041371822357,0.7068313956260681,0.08199223130941391,0.538439154624939,0.4884982705116272,0.6981961131095886,0.14237073063850403,0.4581047594547272,0.46172627806663513,0.3859684467315674,0.15850771963596344,0.40779241919517517,0.5442945957183838,0.41812431812286377,0.11926595866680145,0.6201505661010742,178.81267211045247,0.49349212646484375,0.43372942507267,177.0708625129656,177.13628168640653,0.5312192255447096,0.00590621728275751,0.004322300072481276,-0.055922348735345045,-0.036688331744666784,0.5874116556715685,0.8108220723885701,12,1762115121.6373775
0.5002463459968567,0.17224012315273285,0.11643658578395844,0.9987021684646606,0.4625318646430969,0.2532924711704254,-0.017423199489712715,0.9997640252113342,0.5329784154891968,0.2541261613368988,-0.004958472680300474,0.9996923208236694,0.4740515649318695,0.43355506658554077,-0.016027269884943962,0.9995145201683044,0.5139264464378357,0.43439823389053345,0.016093920916318893,0.9989069700241089,0.4806758463382721,0.5700967311859131,0.023922471329569817,0.6527380347251892,0.5015793442726135,0.5652772188186646,0.07613521814346313,0.4042153060436249,0.4849757254123688,0.7094128727912903,0.06373254954814911,0.5214959383010864,0.49083656072616577,0.6983774900436401,0.1388666331768036,0.4378247559070587,0.4605748653411865,0.3814811706542969,0.16429463028907776,0.3714461028575897,0.5443238019943237,0.41243672370910645,0.12273570150136948,0.6014834642410278,178.80315410455654,0.4939890056848526,0.4339766502380371,178.82462630792207,178.9130331284503,0.5320136372189025,0.007348494732091226,0.003656286582699821,0.02133027064092961,-0.009849871808029202,0.6780274920483658,1.1687168979621447,13,1762115121.704994
0.5007808208465576,0.17242558300495148,0.09507811069488525,0.9987927675247192,0.4625076651573181,0.25332966446876526,-0.036540523171424866,0.9997716546058655,0.533755898475647,0.25424832105636597,-0.013450225815176964,0.9997013211250305,0.4743356704711914,0.4349536895751953,-0.01716572232544422,0.9995156526565552,0.5144996643066406,0.43518510460853577,0.01719030737876892,0.9989155530929565,0.48036208748817444,0.5683239698410034,0.0458705872297287,0.6461136937141418,0.5013347864151001,0.5643711090087891,0.09188411384820938,0.39158937335014343,0.4839805066585541,0.6998463273048401,0.1097397431731224,0.5106703042984009,0.4911991059780121,0.6954084038734436,0.16761305928230286,0.42352333664894104,0.46195799112319946,0.39380112290382385,0.11876882612705231,0.3406687378883362,0.5441051125526428,0.41016656160354614,0.11021236330270767,0.5812366008758545,178.82627516376294,0.494417667388916,0.43506939709186554,178.76768912377506,178.67569296626192,0.5271733360397518,0.005513386833648161,0.014054757071363737,-0.023602900911584464,0.13374367184850544,0.7387162641093892,1.139428004376273,14,1762115121.7827432
0.5012548565864563,0.17264613509178162,0.09073908627033234,0.9988728165626526,0.4626576900482178,0.2535046339035034,-0.03897897154092789,0.9997772574424744,0.5347477793693542,0.25486627221107483,-0.018492141738533974,0.9997062683105469,0.4747188985347748,0.4350191652774811,-0.016671832650899887,0.9995089173316956,0.5149344205856323,0.43527790904045105,0.016686758026480675,0.9989118576049805,0.4781161844730377,0.5599240064620972,0.04513848200440407,0.6400018334388733,0.5023381114006042,0.5596408843994141,0.08856049180030823,0.3853663206100464,0.4784797132015228,0.6868022680282593,0.10634583234786987,0.5028602480888367,0.493962824344635,0.6886137127876282,0.1579478532075882,0.41393962502479553,0.46259960532188416,0.40102890133857727,0.08467350155115128,0.3133711516857147,0.5440717935562134,0.40654993057250977,0.10168357938528061,0.5572343468666077,178.77296082143388,0.49482665956020355,0.43514853715896606,178.50845332278445,177.4777596512455,0.5169422848473952,0.005631401418160331,0.0010896773028691484,0.0016249394126378206,-0.1785158096425577,1.0820745732113723,0.9673551385469165,15,1762115121.8553703
0.5016074776649475,0.17271515727043152,0.09265308827161789,0.9989410638809204,0.46300989389419556,0.25417712330818176,-0.040059927850961685,0.9997785091400146,0.5357300639152527,0.2554323375225067,-0.01659393310546875,0.9997096657752991,0.47541874647140503,0.4350457191467285,-0.016289832070469856,0.9995141625404358,0.5165468454360962,0.4351893961429596,0.016277754679322243,0.9989365339279175,0.4771769642829895,0.5586732625961304,0.04169482737779617,0.6529737114906311,0.5052995681762695,0.5589030385017395,0.086351178586483,0.40071338415145874,0.47747278213500977,0.6862120628356934,0.10140132904052734,0.5143680572509766,0.49622082710266113,0.6886113286018372,0.15733322501182556,0.4219978153705597,0.46176567673683167,0.42087823152542114,0.04505584388971329,0.3006416857242584,0.5441642999649048,0.40081799030303955,0.09895233809947968,0.5310559272766113,178.92382329343346,0.4959827959537506,0.43511755764484406,179.1489946828818,178.57549651060515,0.5162153967244455,0.016592600513259195,-0.00044461077844311375,0.157312578988433,-0.022019745548675265,0.98887744218932,0.7711354705183586,16,1762115121.925048
0.5019508600234985,0.1727382242679596,0.08740822970867157,0.9990088939666748,0.46320900321006775,0.25482311844825745,-0.04189779609441757,0.9997787475585938,0.536171019077301,0.2557261288166046,-0.020661795511841774,0.9997000694274902,0.4760935306549072,0.4351782500743866,-0.01588752493262291,0.9995206594467163,0.5169474482536316,0.4352954924106598,0.0158555768430233,0.9989442229270935,0.4773034453392029,0.559899091720581,0.04012933745980263,0.6717394590377808,0.5060753226280212,0.5591768622398376,0.08343685418367386,0.42212778329849243,0.4779035151004791,0.6883334517478943,0.09793447703123093,0.5375186204910278,0.49767106771469116,0.6883230209350586,0.1509557068347931,0.4376639723777771,0.46059948205947876,0.42909911274909973,0.022439012303948402,0.28562089800834656,0.5441402196884155,0.3996576964855194,0.08766666054725647,0.4998166859149933,178.991002584913,0.4965204894542694,0.4352368712425232,179.3580972782249,178.39999461180838,0.5171125567894592,0.00779750853136118,0.0017302585858166768,-0.12754441832900376,0.03153945957324972,0.7090818541101082,0.8120539361229643,17,1762115121.9940052
0.5021356344223022,0.17270639538764954,0.08967048674821854,0.9990764260292053,0.46368178725242615,0.25527194142341614,-0.04082147032022476,0.9997870922088623,0.536683201789856,0.2560505270957947,-0.020198995247483253,0.9997029900550842,0.4765404164791107,0.43530774116516113,-0.015330277383327484,0.9995429515838623,0.5176925659179688,0.43547743558883667,0.015257234685122967,0.9989758729934692,0.476893812417984,0.5590283870697021,0.04242241010069847,0.688837468624115,0.5086411237716675,0.5558701753616333,0.09134332835674286,0.43459340929985046,0.4778275489807129,0.6899928450584412,0.09687242656946182,0.5596162676811218,0.5014256238937378,0.6843985319137573,0.14957906305789948,0.44896912574768066,0.457267701625824,0.42701438069343567,0.03888637199997902,0.2777276635169983,0.5456949472427368,0.40140673518180847,0.08986315131187439,0.4784606993198395,179.02269687935922,0.49711649119853973,0.4353925883769989,177.47391974872767,172.04388474791074,0.5157341023611636,0.008576039150839829,0.00224065827752772,0.011202499215754256,0.007344286792397612,0.6110564017023031,0.9758493975049854,18,1762115122.0635014
0.5021142959594727,0.17271366715431213,0.0972006767988205,0.9990747570991516,0.4642912447452545,0.2554692327976227,-0.036427292972803116,0.9997872114181519,0.5369904637336731,0.25609666109085083,-0.017486799508333206,0.9996957778930664,0.4768807888031006,0.4350546896457672,-0.013204026035964489,0.999550461769104,0.5178742408752441,0.43546056747436523,0.013126499950885773,0.9989714026451111,0.4767166078090668,0.5591461658477783,0.011970567516982555,0.6967042088508606,0.5080662369728088,0.5565767288208008,0.05304295942187309,0.4392574429512024,0.4758448004722595,0.7004000544548035,0.050667308270931244,0.5699315071105957,0.5000216960906982,0.6860953569412231,0.10463160276412964,0.4499858617782593,0.45628753304481506,0.42712119221687317,0.050148654729127884,0.27358049154281616,0.546610951423645,0.40273669362068176,0.10539738088846207,0.4562898874282837,178.95832118643943,0.49737751483917236,0.4352576285600662,176.09293468900032,176.31176093703436,0.5210940775420988,0.004645453041065201,-0.0024018877771837368,-0.06995287151986287,-0.08262366441550821,0.49447712280560346,0.7318259660167018,19,1762115122.1196904
0.5022955536842346,0.17276033759117126,0.08569774776697159,0.9990611672401428,0.4646257758140564,0.2558734714984894,-0.04632069170475006,0.9997861385345459,0.5372481346130371,0.2564108669757843,-0.02413863316178322,0.9996957778930664,0.47718411684036255,0.43595513701438904,-0.01167224533855915,0.999548077583313,0.518349289894104,0.43626493215560913,0.011577261611819267,0.9989595413208008,0.47661256790161133,0.5641411542892456,0.012704421766102314,0.7005884051322937,0.5085240602493286,0.5604693293571472,0.04731425642967224,0.44253507256507874,0.47348517179489136,0.7104540467262268,0.05990403890609741,0.5805326104164124,0.4996167719364166,0.6958087682723999,0.10897909104824066,0.4511839747428894,0.4527727961540222,0.43485453724861145,0.011948693543672562,0.2806023061275482,0.5469082593917847,0.40991872549057007,0.08843916654586792,0.4410645067691803,178.99080168892158,0.4977667033672333,0.4361100345849991,172.8072027290516,171.5060759392007,0.5306062020438045,0.004969798361439327,0.010884920187907775,0.004141773781892051,0.16966778744140118,0.4239731578238847,0.5267649687887077,20,1762115122.1980011
0.5024286508560181,0.17304140329360962,0.08006533235311508,0.9990869164466858,0.4648517072200775,0.25614985823631287,-0.05048335716128349,0.9997889399528503,0.5375354886054993,0.2573188841342926,-0.024807240813970566,0.9997008442878723,0.47734999656677246,0.4379826486110687,-0.011513606645166874,0.9995540976524353,0.5187699198722839,0.4380684792995453,0.011426089331507683,0.9989665150642395,0.47649654746055603,0.5684662461280823,0.019335515797138214,0.708985447883606,0.5082167387008667,0.5650740265846252,0.05614672228693962,0.45199277997016907,0.47324246168136597,0.7115247249603271,0.08148448169231415,0.5952511429786682,0.4995199143886566,0.6992393732070923,0.12251804023981094,0.4593108594417572,0.4489239752292633,0.43666988611221313,0.003356480970978737,0.2917790114879608,0.5475878715515137,0.41721561551094055,0.07497599720954895,0.43173354864120483,179.0097342939684,0.4980599582195282,0.438025563955307,169.77213149418677,172.9735584777566,0.5330340225420181,0.003906820737277422,0.02551920218273757,-0.014161276421646883,0.1949618767605868,0.9214500689644712,0.5243308398203007,21,1762115122.2730634
0.5024839639663696,0.17360632121562958,0.08128777891397476,0.999094545841217,0.4652527868747711,0.25630274415016174,-0.048201270401477814,0.9997891783714294,0.5376769304275513,0.2575575113296509,-0.024400383234024048,0.9997042417526245,0.4775145649909973,0.4381604492664337,-0.011251797899603844,0.9995622634887695,0.5189507007598877,0.438318133354187,0.011170359328389168,0.9989739656448364,0.4763498306274414,0.5707667469978333,0.020918918773531914,0.7169051170349121,0.508251428604126,0.5655076503753662,0.05493646860122681,0.4593442678451538,0.4723253846168518,0.7120330929756165,0.0785815417766571,0.6079413890838623,0.4995819628238678,0.6994597315788269,0.12164174020290375,0.46651962399482727,0.4468979239463806,0.43631765246391296,0.013857938349246979,0.30256688594818115,0.5488780736923218,0.42108646035194397,0.07590088993310928,0.42727333307266235,178.97868769054867,0.4982326328754425,0.43823929131031036,171.3547803216013,172.41158950962006,0.532729448026018,0.0012439135400654376,0.0015396489390022928,-0.019183048612493266,-0.1727438853528418,0.9925650231082441,0.5091758400603782,22,1762115122.411879
0.5025799870491028,0.17362971603870392,0.08161614835262299,0.9991289377212524,0.4652371406555176,0.2567456364631653,-0.04726358503103256,0.9997951984405518,0.5375983119010925,0.2574876844882965,-0.022100910544395447,0.999710202217102,0.4774742126464844,0.43826034665107727,-0.012663280591368675,0.9995808601379395,0.5190420746803284,0.43834593892097473,0.012564906850457191,0.9990070462226868,0.4761718213558197,0.5708386898040771,0.02132873423397541,0.7222245335578918,0.5080899000167847,0.5654138922691345,0.06270768493413925,0.4608135223388672,0.47276654839515686,0.7110021114349365,0.08505666255950928,0.6197426319122314,0.49932605028152466,0.6992582678794861,0.14224284887313843,0.470685213804245,0.4468563199043274,0.4380877614021301,0.004844476468861103,0.31911101937294006,0.549015462398529,0.4217458963394165,0.06939056515693665,0.4275989532470703,179.0009607793326,0.49825814366340637,0.438303142786026,169.89083322452763,170.71903313386778,0.5327215673189386,0.0002871380919539613,0.0007186838341254229,-0.010769039238938495,-0.00924041837159285,0.5875351249186369,0.5191932895322953,23,1762115122.500724
0.5027116537094116,0.1740025281906128,0.0839887335896492,0.9991543292999268,0.46522384881973267,0.25801464915275574,-0.0462404265999794,0.9997963905334473,0.5379824638366699,0.2588339149951935,-0.020910298451781273,0.9997116327285767,0.47746115922927856,0.43906810879707336,-0.01181739754974842,0.999591052532196,0.5191400051116943,0.43913739919662476,0.011717185378074646,0.9990253448486328,0.4753427505493164,0.572578489780426,0.023610416799783707,0.7298623919487,0.5079942941665649,0.5680197477340698,0.060883454978466034,0.46863991022109985,0.4714633524417877,0.7144455909729004,0.08687341958284378,0.6330533623695374,0.4984540343284607,0.7043097019195557,0.13824447989463806,0.4808749556541443,0.4460996091365814,0.43922552466392517,0.011013592593371868,0.32954156398773193,0.5495306253433228,0.4277135133743286,0.07369206845760345,0.41898447275161743,178.95282216520255,0.49830058217048645,0.43910275399684906,170.79651659056253,171.23158781216995,0.536430743058501,0.0005936756863124401,0.011185825492700792,0.004288179043809081,0.14642568590263486,0.6451262351394835,0.49212611006666535,24,1762115122.5722084
0.5030940175056458,0.17456892132759094,0.08367685973644257,0.9991859793663025,0.46519574522972107,0.2591349184513092,-0.049267254769802094,0.9997997879981995,0.5382313132286072,0.2593989372253418,-0.020782381296157837,0.9997172355651855,0.47753533720970154,0.43952035903930664,-0.012324501760303974,0.9996090531349182,0.5196701288223267,0.43950292468070984,0.012213209643959999,0.9990519285202026,0.4740830957889557,0.5726417303085327,0.03661799058318138,0.7365454435348511,0.5086368322372437,0.5671334862709045,0.07449539750814438,0.4703018069267273,0.4698250889778137,0.7133509516716003,0.10502256453037262,0.6420318484306335,0.4991544783115387,0.7010063529014587,0.1559925526380539,0.48287492990493774,0.44616395235061646,0.44242429733276367,0.00013485302042681724,0.33899986743927,0.5505698919296265,0.431923508644104,0.053623370826244354,0.4211467504501343,179.01124534263803,0.4986027330160141,0.43951164186000824,174.23374675872034,174.576149881781,0.5349881843408106,0.004592194469708774,0.006214421080475847,0.06077089015611921,-0.07555714698940372,0.20711957182808924,0.45273097871883866,25,1762115122.638005
0.5029662847518921,0.1745343655347824,0.08515507727861404,0.9991806149482727,0.4649352431297302,0.2599577009677887,-0.04920712113380432,0.9998031258583069,0.53819739818573,0.2598755359649658,-0.02124202623963356,0.9997240900993347,0.47760969400405884,0.4396234154701233,-0.012532311491668224,0.9996167421340942,0.5196467638015747,0.43979310989379883,0.012429517693817616,0.9990620613098145,0.4755312502384186,0.576383650302887,0.02967762015759945,0.7405731081962585,0.5085636377334595,0.5693201422691345,0.06829943507909775,0.47062191367149353,0.4700338840484619,0.7145399451255798,0.09837548434734344,0.6490443348884583,0.4996259808540344,0.7017538547515869,0.14881788194179535,0.4865957498550415,0.4464963972568512,0.4462563395500183,0.0007610373431816697,0.3557892143726349,0.5504881143569946,0.43807438015937805,0.05436970666050911,0.4367678165435791,179.06377587537204,0.4986282289028168,0.43970826268196106,170.622715440767,171.94440591851952,0.5353027379055465,0.00042595248053215433,0.003284887773595427,-0.06960421198610445,-0.048942874139856894,-0.06425835969521645,0.4070218272552997,26,1762115122.6978612
0.5028810501098633,0.17453379929065704,0.08530579507350922,0.9991703629493713,0.46475091576576233,0.2603919506072998,-0.0483974888920784,0.9998066425323486,0.5381284952163696,0.2601219713687897,-0.02143809013068676,0.9997302889823914,0.47767043113708496,0.4396975636482239,-0.012564052827656269,0.9996247887611389,0.5196029543876648,0.439958393573761,0.012466134503483772,0.9990749359130859,0.47697120904922485,0.5791429877281189,0.023269979283213615,0.7470201849937439,0.5080930590629578,0.5722347497940063,0.06036074832081795,0.47433382272720337,0.4708787500858307,0.7164928913116455,0.0906790941953659,0.6582082509994507,0.49953317642211914,0.7043552994728088,0.1390160173177719,0.4928538203239441,0.4467476010322571,0.4475841522216797,0.006246553733944893,0.37091919779777527,0.5503613948822021,0.4399043321609497,0.059631191194057465,0.4489138424396515,179.105714499429,0.4986366927623749,0.43982797861099243,168.09222296539443,169.04795486825756,0.5369949103813246,0.0001328105709732209,0.0018785213507022125,-0.004599833458651665,-0.022067985218769695,-0.210808277371848,0.3825504829069187,27,1762115122.76159
0.502749502658844,0.17449210584163666,0.08134664595127106,0.9991918802261353,0.46471160650253296,0.2603503465652466,-0.052434660494327545,0.9998112916946411,0.5379625558853149,0.2601751983165741,-0.024978086352348328,0.9997326135635376,0.47750893235206604,0.4398209750652313,-0.012361424043774605,0.9996317625045776,0.5194970369338989,0.44015321135520935,0.012264516204595566,0.9990829229354858,0.47670021653175354,0.5787081122398376,0.02754083275794983,0.7528439164161682,0.5077083706855774,0.5722378492355347,0.06337504088878632,0.48051369190216064,0.47123226523399353,0.717325747013092,0.09545113146305084,0.6682903170585632,0.49929967522621155,0.7044911980628967,0.1434951275587082,0.4998883306980133,0.445103257894516,0.4475425183773041,-0.00654577324166894,0.39603933691978455,0.5502779483795166,0.4376945495605469,0.05791854113340378,0.4590736925601959,179.09657016461958,0.4985029846429825,0.43998709321022034,169.77301010781594,169.82180941150776,0.5380537344118422,-0.002103959467418993,0.002503742248200157,-0.03519661722938056,0.009838141711189297,-0.13699803754175124,0.4084110793419147,28,1762115122.8251407
0.5022262334823608,0.17411436140537262,0.07928048074245453,0.9992440938949585,0.464348703622818,0.2600766122341156,-0.05582786723971367,0.9998192191123962,0.5375643968582153,0.2593691051006317,-0.02511446736752987,0.9997419714927673,0.4774882197380066,0.439844012260437,-0.01290293037891388,0.999643862247467,0.5194304585456848,0.4401455819606781,0.012784588150680065,0.9991026520729065,0.47651344537734985,0.5753618478775024,0.031520456075668335,0.7624349594116211,0.5078682899475098,0.5718665719032288,0.0767456442117691,0.49229398369789124,0.4713216722011566,0.7172787189483643,0.09791357815265656,0.6798334717750549,0.5015990138053894,0.7041168808937073,0.15380944311618805,0.5083186030387878,0.44389772415161133,0.4464351236820221,-0.006256951484829187,0.4211050868034363,0.5501591563224792,0.4364890158176422,0.06002612039446831,0.4739035665988922,179.20636285988766,0.4984593391418457,0.43999479711055756,172.89670332624837,175.13451004218163,0.5388322022092661,-0.0004920532311215521,8.685268709110359e-05,0.018172403825757858,-0.027247672425176853,-0.5536505797877761,0.43569752329013617,29,1762115122.9138415
0.5011991858482361,0.1739780604839325,0.06840669363737106,0.9992984533309937,0.4636802673339844,0.2600039839744568,-0.06457050889730453,0.9998279213905334,0.5362731218338013,0.25859904289245605,-0.03278997540473938,0.9997529983520508,0.4771272540092468,0.43984174728393555,-0.012897047214210033,0.9996606111526489,0.5193460583686829,0.44005149602890015,0.012772947549819946,0.9991394877433777,0.47623103857040405,0.5739162564277649,0.036277104169130325,0.776091456413269,0.5080388784408569,0.5716644525527954,0.08343745768070221,0.505636990070343,0.4715544581413269,0.716939389705658,0.10591699928045273,0.6949923634529114,0.5019798278808594,0.703045129776001,0.16629783809185028,0.520121157169342,0.44250327348709106,0.4474225342273712,-0.015611288137733936,0.4512864947319031,0.5500738620758057,0.4354795217514038,0.05824914574623108,0.4884570240974426,179.44812359435733,0.49823665618896484,0.43994662165641785,174.00751742998864,175.4531937934679,0.5404654418532199,-0.0034647515320582255,-0.0007495678334545131,-0.046252579549848995,-0.013013970052552054,-1.1087475037181438,0.32410098590618874,30,1762115122.9781125
0.500778317451477,0.17397813498973846,0.07333529740571976,0.9993107318878174,0.4631708264350891,0.25997620820999146,-0.060223083943128586,0.9998335242271423,0.535453200340271,0.2579514682292938,-0.03068089485168457,0.9997581839561462,0.4767187535762787,0.4398287534713745,-0.012901152484118938,0.9996693730354309,0.5185929536819458,0.4393481910228729,0.012777114287018776,0.999156653881073,0.4759339392185211,0.5721710920333862,0.034706201404333115,0.7816434502601624,0.5080111622810364,0.570456326007843,0.0745123028755188,0.5059712529182434,0.4713810980319977,0.7167978286743164,0.10484285652637482,0.7012479901313782,0.5018836259841919,0.7010568380355835,0.16421276330947876,0.5217849612236023,0.4421113133430481,0.44783127307891846,-0.01203931774944067,0.47394680976867676,0.5500008463859558,0.43257203698158264,0.059348296374082565,0.49598926305770874,179.47466575757292,0.49765585362911224,0.4395884722471237,173.75400195693487,170.52632174513826,0.5386235015987931,-0.00719283598924055,-0.0044354314852707135,-0.04616973461920477,-0.045646859292330776,-1.6045229494638715,0.3100732512301483,31,1762115123.0588598
0.5004701018333435,0.1739523708820343,0.07525390386581421,0.9993335604667664,0.4628216624259949,0.2599605917930603,-0.059660304337739944,0.9998382329940796,0.5350817441940308,0.25752976536750793,-0.029370855540037155,0.9997645020484924,0.4764079451560974,0.43986544013023376,-0.01290605217218399,0.9996750354766846,0.5182863473892212,0.43911731243133545,0.012783694081008434,0.9991697669029236,0.4755586087703705,0.5715391635894775,0.03417215496301651,0.7875856161117554,0.5079790353775024,0.5699812769889832,0.07419013231992722,0.5074187517166138,0.47150033712387085,0.7166385054588318,0.10149021446704865,0.7072504162788391,0.5018320083618164,0.700408399105072,0.15750865638256073,0.5231807231903076,0.44189292192459106,0.4482293725013733,-0.01183325331658125,0.4949043393135071,0.5499802827835083,0.4317854046821594,0.06044136732816696,0.5043953657150269,179.49137557277083,0.4973471462726593,0.4394913762807846,174.64262458800624,172.34343668543943,0.5374935973772434,-0.0038429718339120884,-0.0012087080402457483,0.041701091105424824,0.04016816268174989,-1.9267012992778936,0.3143940606534452,32,1762115123.1391902
0.5002375841140747,0.17393803596496582,0.08265350759029388,0.9993690252304077,0.46259641647338867,0.25995010137557983,-0.05572088435292244,0.9998401403427124,0.5349705219268799,0.25753292441368103,-0.024278083816170692,0.999768078327179,0.47623515129089355,0.4403148591518402,-0.012905980460345745,0.9996758103370667,0.5180100798606873,0.43931978940963745,0.012782653793692589,0.9991757273674011,0.47518736124038696,0.5712713003158569,0.0335405133664608,0.7960610389709473,0.5079805850982666,0.5700975060462952,0.07375122606754303,0.51674485206604,0.4704163670539856,0.7165789008140564,0.09957873821258545,0.7156898975372314,0.5018519163131714,0.7014359831809998,0.15694639086723328,0.5309157371520996,0.44154348969459534,0.4491763114929199,-0.008755194023251534,0.5159027576446533,0.5499944090843201,0.43178075551986694,0.060797639191150665,0.514281153678894,179.47448953051804,0.4971226155757904,0.43981732428073883,174.895562706208,172.43667613686355,0.5371949017221427,-0.003013590356510859,0.004374786000684798,0.011131734132658411,0.07494014863904805,-1.9128744650683382,0.30469729777673904,33,1762115123.2136962
0.5002152919769287,0.17411181330680847,0.09894192218780518,0.9993909597396851,0.46240440011024475,0.2599707543849945,-0.040793225169181824,0.999841570854187,0.5345671772956848,0.25765731930732727,-0.017582889646291733,0.9997715353965759,0.47602763772010803,0.4410977363586426,-0.010210244916379452,0.9996724724769592,0.5176157355308533,0.43997591733932495,0.010075250640511513,0.999180257320404,0.47509831190109253,0.5743687152862549,0.03179174289107323,0.8006303310394287,0.5080164074897766,0.5734238028526306,0.05963902920484543,0.5249446034431458,0.47041696310043335,0.7187456488609314,0.0937415212392807,0.7208724617958069,0.5017971992492676,0.7076517343521118,0.13257959485054016,0.5371465682983398,0.44150257110595703,0.4496249854564667,0.006438317243009806,0.534669041633606,0.5501090288162231,0.43173328042030334,0.08015113323926926,0.5213012099266052,179.47533624870945,0.49682168662548065,0.44053682684898376,174.09394154576543,171.70751492613766,0.5394588710667408,-0.004093678444244079,0.009787732789320394,-0.014692947681129049,0.07363486818290198,-1.8361915902308517,0.30526821757509864,34,1762115123.287207
0.5001434683799744,0.174246683716774,0.09693177789449692,0.999393880367279,0.46230262517929077,0.2605572044849396,-0.04266073554754257,0.9998243451118469,0.5345314741134644,0.2579498291015625,-0.018434226512908936,0.9997666478157043,0.47601309418678284,0.4412631094455719,-0.010502775199711323,0.9996474981307983,0.5174464583396912,0.4402630627155304,0.01037309318780899,0.9991471171379089,0.47559839487075806,0.5731390118598938,0.03238172084093094,0.8028640151023865,0.5081920623779297,0.5738524794578552,0.06111687421798706,0.527042031288147,0.4705318510532379,0.7184966802597046,0.1004340797662735,0.7211369872093201,0.5014008283615112,0.7095582485198975,0.1356094926595688,0.5403462052345276,0.4415402412414551,0.4494795799255371,0.008019762113690376,0.5261642336845398,0.5506890416145325,0.4333946108818054,0.07683785259723663,0.5160967111587524,179.46740626574612,0.496729776263237,0.44076308608055115,172.720456509331,171.94021013771976,0.5403786363396069,-0.0011617919623886804,0.002860027424920513,0.03706048008194935,-0.08756958642835279,-2.0674116511639835,0.2845370978724692,35,1762115123.3663177
0.5003380179405212,0.17538762092590332,0.0988432914018631,0.9993652701377869,0.4624257981777191,0.2609812915325165,-0.04211027920246124,0.9998155832290649,0.5345481634140015,0.2590520977973938,-0.014695261605083942,0.9997633695602417,0.47617998719215393,0.4415695071220398,-0.011125371791422367,0.9996444582939148,0.5174863934516907,0.4407966732978821,0.010999897494912148,0.9991413354873657,0.47575506567955017,0.5720363259315491,0.033125974237918854,0.8013772368431091,0.5082553625106812,0.5738188028335571,0.062038104981184006,0.5230773091316223,0.4704214036464691,0.7183257341384888,0.10373560339212418,0.7234059572219849,0.5009506940841675,0.7088680863380432,0.14347846806049347,0.5415591597557068,0.4424724578857422,0.4491938352584839,0.016649669036269188,0.513103723526001,0.5508958101272583,0.4332198202610016,0.0755944475531578,0.5090607404708862,179.4769858825526,0.4968331903219223,0.44118309020996094,172.74816319001843,169.84567668825957,0.5389778866826224,0.0014586745314586072,0.00592423636076258,0.0369621672692256,0.043221236944024306,-1.5322335476676352,0.2616688668424278,36,1762115123.4372137
0.5003860592842102,0.17611251771450043,0.09709712117910385,0.9993373155593872,0.46251732110977173,0.2613089382648468,-0.04340329393744469,0.9998063445091248,0.5345615744590759,0.25978976488113403,-0.015463409014046192,0.9997588992118835,0.47627291083335876,0.4418075680732727,-0.01129255909472704,0.9996419548988342,0.5175405740737915,0.4411560595035553,0.011164886876940727,0.9991374015808105,0.47586145997047424,0.5712252855300903,0.03303840011358261,0.7998997569084167,0.5083146095275879,0.5736261010169983,0.06201668456196785,0.5194925665855408,0.4701860547065735,0.718052864074707,0.10286543518304825,0.7254291772842407,0.5008358359336853,0.7084094882011414,0.14352670311927795,0.5425394177436829,0.4429016709327698,0.4489617943763733,0.016868138685822487,0.5017834901809692,0.5509124398231506,0.43312662839889526,0.07458189129829407,0.5017600655555725,179.48298616812858,0.49690674245357513,0.441481813788414,173.20290501218238,169.789801642724,0.5379580627960429,0.0010624009918038433,0.004314820235553413,-0.005723850445857618,-0.023246712899060915,-1.2079981621060085,0.24820357772504512,37,1762115123.5064456
0.5004457831382751,0.17689752578735352,0.10128053277730942,0.9992777705192566,0.4625614285469055,0.26170581579208374,-0.04078923165798187,0.9997971653938293,0.5345726013183594,0.2605433762073517,-0.013687580823898315,0.9997517466545105,0.47627320885658264,0.4418766498565674,-0.011028647422790527,0.9996376633644104,0.5175403952598572,0.4412655830383301,0.010903483256697655,0.9991303086280823,0.47585558891296387,0.5718942284584045,0.032920558005571365,0.7940923571586609,0.5084505081176758,0.5734027624130249,0.058255456387996674,0.5144074559211731,0.47062331438064575,0.7166854739189148,0.10212697833776474,0.7234251499176025,0.49993911385536194,0.7083173394203186,0.14013244211673737,0.5401417016983032,0.44329914450645447,0.44888338446617126,0.018969453871250153,0.4883973300457001,0.5509428381919861,0.4330862760543823,0.08030100166797638,0.4866129755973816,179.47286039865995,0.4969068020582199,0.44157111644744873,172.9048074887199,168.45383148409655,0.5361860416079025,7.21373726414686e-07,0.0010807981856008034,-0.012849129211944308,-0.039140213758052496,-0.9248161828208747,0.24156160012539993,38,1762115123.5890722
0.5006275177001953,0.17791955173015594,0.11059293895959854,0.9992387890815735,0.46275466680526733,0.26212066411972046,-0.03317258507013321,0.9997891783714294,0.5346035957336426,0.2608601152896881,-0.011252489872276783,0.9997453093528748,0.4765337109565735,0.44194602966308594,-0.009786109440028667,0.9996341466903687,0.5176035761833191,0.4413693845272064,0.009684395045042038,0.9991284608840942,0.4786418378353119,0.5749690532684326,0.02161070518195629,0.7927426695823669,0.5106322169303894,0.573771059513092,0.041266053915023804,0.5198546051979065,0.477191299200058,0.7166314125061035,0.07937316596508026,0.7254073023796082,0.49870508909225464,0.7111412882804871,0.11245168745517731,0.5464518070220947,0.44383105635643005,0.4489199221134186,0.02238643728196621,0.4818668067455292,0.5509843230247498,0.43346813321113586,0.08334144949913025,0.4771330654621124,179.48785555596285,0.4970686435699463,0.4416577070951462,170.9665589055816,165.9631612225827,0.5363177154960564,0.002176629877125927,0.0011645701331349562,0.029264107878570745,0.0011266610273397606,-1.0051189336841535,0.24073659873537614,39,1762115123.6634264
0.5012034177780151,0.1789119988679886,0.10615827888250351,0.9992327690124512,0.4629964232444763,0.26247918605804443,-0.03620593994855881,0.9997875094413757,0.5347379446029663,0.26169613003730774,-0.011879009194672108,0.9997438192367554,0.4767840504646301,0.4423810839653015,-0.010960987769067287,0.9996373653411865,0.517661988735199,0.44192618131637573,0.010877015069127083,0.9991304278373718,0.4785216748714447,0.575269341468811,0.02956472896039486,0.7913447618484497,0.5102819204330444,0.57368403673172,0.05821579694747925,0.5169486999511719,0.47675853967666626,0.7160698175430298,0.10077430307865143,0.7256044149398804,0.49883946776390076,0.7098042368888855,0.14575804769992828,0.5467478036880493,0.44412142038345337,0.4486270546913147,0.0193842314183712,0.4736677408218384,0.5511776208877563,0.43271344900131226,0.08184003084897995,0.47452312707901,179.47685253197182,0.49722301959991455,0.4421536326408386,170.02426089471987,166.99000275779554,0.5344671078197115,0.0020266230981824556,0.006510428892916052,-0.0019692642902741403,0.07017955342173757,-0.6253564556671741,0.2489726876317766,40,1762115123.7396004
0.5015786290168762,0.17900051176548004,0.10513059794902802,0.9992311596870422,0.46319785714149475,0.2628091871738434,-0.03767196089029312,0.999782145023346,0.5350615978240967,0.2621254622936249,-0.012479975819587708,0.999739408493042,0.4771347641944885,0.4431728422641754,-0.011567970737814903,0.9996361136436462,0.517845630645752,0.4426080584526062,0.011492906138300896,0.9991234540939331,0.478550523519516,0.5768327713012695,0.031255628913640976,0.7923864126205444,0.5094414949417114,0.5739710330963135,0.06463251262903214,0.519278883934021,0.47614622116088867,0.7164247035980225,0.10330077260732651,0.7281854152679443,0.4987526834011078,0.7093895673751831,0.15126439929008484,0.5507969260215759,0.44460493326187134,0.4483935832977295,0.0185233224183321,0.46511217951774597,0.5512415170669556,0.4321320056915283,0.08021858334541321,0.4713749885559082,179.47935960483494,0.49749019742012024,0.4428904503583908,170.34087666896045,169.41571016388903,0.5345527355283668,0.004294322775957541,0.011842798566802705,0.036448513457457234,0.08570665230657196,-0.5451061641630717,0.25040332986668584,41,1762115123.801817
0.5016614198684692,0.17896628379821777,0.10377021133899689,0.9992308020591736,0.46335482597351074,0.2628921866416931,-0.038134876638650894,0.9997726678848267,0.5352794528007507,0.26248160004615784,-0.01748722977936268,0.9997351169586182,0.4773629307746887,0.443714439868927,-0.011003145948052406,0.9996271729469299,0.5179736018180847,0.44320619106292725,0.010922020301222801,0.9991149306297302,0.4782930910587311,0.5771784782409668,0.03152408078312874,0.7937507629394531,0.5089157819747925,0.5741595029830933,0.05790656805038452,0.525613009929657,0.47432541847229004,0.7163994908332825,0.10251788794994354,0.7320013046264648,0.49839359521865845,0.709169864654541,0.13951702415943146,0.5580248832702637,0.44470611214637756,0.4470115303993225,0.017922278493642807,0.4610942006111145,0.5514439344406128,0.43148931860923767,0.07472462952136993,0.4696606695652008,179.4774074190847,0.4976682662963867,0.4434603154659271,170.46216537126742,168.5970032847644,0.5343160990529916,0.0028063342839643947,0.008980974227753166,-0.023450437868635644,-0.04510185005795031,-0.32707327866162084,0.2275585281041002,42,1762115123.8652694
0.5019409656524658,0.17895454168319702,0.10304567962884903,0.9992373585700989,0.4634285867214203,0.2633041739463806,-0.03791983053088188,0.9997761249542236,0.5359276533126831,0.2625409662723541,-0.014495697803795338,0.9997339844703674,0.47739848494529724,0.44469520449638367,-0.011341741308569908,0.9996301531791687,0.5184007883071899,0.44446122646331787,0.011267384514212608,0.9991115927696228,0.47902122139930725,0.5826076865196228,0.030031850561499596,0.7967203855514526,0.5088794827461243,0.5784473419189453,0.06138221174478531,0.5293869376182556,0.4788041114807129,0.7222511172294617,0.09676121920347214,0.7350499033927917,0.497772216796875,0.7145986557006836,0.14040370285511017,0.5608969926834106,0.4457748532295227,0.4470359683036804,0.024084392935037613,0.4552803337574005,0.5515016317367554,0.43147552013397217,0.084143728017807,0.4628549814224243,179.43906870363398,0.4978996366262436,0.44457821547985077,171.11207890034882,170.38158861883522,0.5398666904565724,0.0036420588246332372,0.017597146588704198,0.013155351164466112,0.1356293462570373,-0.6031382945206322,0.31404279913707334,43,1762115123.9287968
0.5019727945327759,0.17894497513771057,0.1024874597787857,0.9992353320121765,0.46343398094177246,0.2633225619792938,-0.03815225884318352,0.9997788667678833,0.5362640619277954,0.26252663135528564,-0.01365477405488491,0.999735951423645,0.4774906635284424,0.44551506638526917,-0.012037703767418861,0.9996273517608643,0.5185529589653015,0.4450491666793823,0.011966199614107609,0.9991066455841064,0.4792211949825287,0.5841636061668396,0.028128063306212425,0.7972741723060608,0.5080779790878296,0.5792778134346008,0.06120825931429863,0.5296196937561035,0.48046889901161194,0.7244837284088135,0.09382009506225586,0.7347472906112671,0.49641817808151245,0.71540766954422,0.13957872986793518,0.561264157295227,0.4457496106624603,0.4472099244594574,0.024790845811367035,0.4555210471153259,0.5513777732849121,0.43109944462776184,0.08967508375644684,0.4610925018787384,179.42591932211732,0.49802181124687195,0.44528211653232574,171.0503244085737,170.22813318632845,0.5413564477872325,0.0015415641338812445,0.008881620509364828,-0.026503436327591032,-0.10996999493606598,-0.6261375727611305,0.3509109223596489,44,1762115124.0080504
0.5020166635513306,0.17891573905944824,0.09073575586080551,0.9992750883102417,0.4634524881839752,0.2634236514568329,-0.046280812472105026,0.9997807145118713,0.5364714860916138,0.2625412940979004,-0.020022626966238022,0.9997326731681824,0.47750505805015564,0.44653940200805664,-0.012099193409085274,0.9996365308761597,0.5187795162200928,0.44649070501327515,0.012023224495351315,0.9991185069084167,0.4789580702781677,0.5835412740707397,0.04035474359989166,0.8052102327346802,0.5088200569152832,0.5789350867271423,0.07882405072450638,0.5447025895118713,0.4804190695285797,0.7242459058761597,0.11149145662784576,0.7439380288124084,0.49682021141052246,0.7146714329719543,0.15989699959754944,0.5741183161735535,0.44699159264564514,0.44774329662323,0.011786154471337795,0.4495023190975189,0.5514364242553711,0.43444305658340454,0.07259944081306458,0.45439136028289795,179.43193893164374,0.4981422871351242,0.4465150535106659,174.1064568647222,175.86203992626494,0.542574791177987,0.0019014438273277342,0.019459166817182936,0.005679900199213498,0.16694303256068335,-0.6923251979315656,0.34526639678850235,45,1762115124.0714107
0.5020350217819214,0.1788918823003769,0.0923265740275383,0.999291181564331,0.463454008102417,0.26354581117630005,-0.045983172953128815,0.9997848868370056,0.5366090536117554,0.2625609040260315,-0.017574286088347435,0.9997326135635376,0.4775125980377197,0.44703805446624756,-0.012775549665093422,0.9996446967124939,0.5189646482467651,0.4469481110572815,0.01270054467022419,0.9991276264190674,0.4789016842842102,0.5854580998420715,0.038265980780124664,0.8075878620147705,0.5075488686561584,0.5805196762084961,0.07512890547513962,0.5474046468734741,0.4800356924533844,0.7249597907066345,0.10923755168914795,0.7469994425773621,0.49522218108177185,0.7169932126998901,0.15745367109775543,0.5788908004760742,0.44673895835876465,0.44867995381355286,0.011399529874324799,0.4485529959201813,0.551285982131958,0.43484213948249817,0.07281454652547836,0.45205157995224,179.44154101615243,0.49823862314224243,0.4469930827617645,173.2544701674837,173.9458960522647,0.5438251845078874,0.001214535196534902,0.006026649513509614,-0.008660050731370437,-0.16934753194985774,-0.7713427465986805,0.32031425821965864,46,1762115124.15073
0.5020309686660767,0.17888261377811432,0.09645312279462814,0.9993067979812622,0.4634552597999573,0.26356828212738037,-0.0458860769867897,0.9997881650924683,0.5366522073745728,0.26251769065856934,-0.011807884089648724,0.9997321963310242,0.4775896668434143,0.4470842480659485,-0.014339973218739033,0.9996465444564819,0.5191582441329956,0.447040855884552,0.014275622554123402,0.9991261959075928,0.4789202809333801,0.5870263576507568,0.03717297688126564,0.8123498558998108,0.5067726373672485,0.5831999182701111,0.07631099224090576,0.5543011426925659,0.4796357750892639,0.7259104251861572,0.10953794419765472,0.7521095275878906,0.4947981834411621,0.7202020287513733,0.15836702287197113,0.5873264074325562,0.4465814232826233,0.4489001929759979,0.011875074356794357,0.44913801550865173,0.5512186288833618,0.4354853332042694,0.07961523532867432,0.451181560754776,179.47700385968133,0.49837395548820496,0.44706255197525024,172.66401252022374,173.55881652785146,0.5456652615210718,0.001984342007746843,0.0010186085047473887,0.011287471464955637,-0.07343156641175534,-0.8223064781948171,0.2983365775810478,47,1762115124.21893
0.5021470189094543,0.17886869609355927,0.0927446261048317,0.9993420839309692,0.4635421335697174,0.2636912763118744,-0.048326946794986725,0.9997903108596802,0.5367843508720398,0.2624480724334717,-0.011142181232571602,0.9997336864471436,0.47781190276145935,0.44716110825538635,-0.01606057398021221,0.9996500611305237,0.5194426774978638,0.44702276587486267,0.01597636751830578,0.9991329312324524,0.4786043167114258,0.587153434753418,0.03669782727956772,0.8186286687850952,0.5067998170852661,0.5840281844139099,0.0782683715224266,0.5652098655700684,0.47384634613990784,0.7287792563438416,0.1082519143819809,0.7590510845184326,0.49496549367904663,0.7219002842903137,0.15603899955749512,0.5969088077545166,0.4459714889526367,0.44901543855667114,0.006154225207865238,0.45045092701911926,0.5516287088394165,0.4360634684562683,0.07509525120258331,0.4494539201259613,179.52178868160067,0.49862729012966156,0.4470919370651245,173.50152098342286,174.98388574300515,0.5481768027102005,0.004356549815498155,0.0005053300533005331,0.0407944268014865,-0.008826756301834163,-0.9724377324262684,0.18511810062876358,48,1762115124.2770803
0.5021246671676636,0.17838868498802185,0.0941963940858841,0.9993735551834106,0.46360063552856445,0.2635387182235718,-0.04796896129846573,0.9997947216033936,0.5367429256439209,0.2613247036933899,-0.011538266204297543,0.9997374415397644,0.4778223931789398,0.4470360577106476,-0.0161709263920784,0.9996623992919922,0.5194319486618042,0.4467053711414337,0.016083605587482452,0.9991444945335388,0.4757242202758789,0.5867827534675598,0.037100691348314285,0.8239928483963013,0.5074334740638733,0.5773709416389465,0.08792801201343536,0.5640085935592651,0.47028598189353943,0.7286356687545776,0.10716645419597626,0.7564059495925903,0.49953126907348633,0.7112311720848083,0.1661466658115387,0.5917050242424011,0.44556084275245667,0.44947344064712524,0.005372905172407627,0.4582228362560272,0.5520527362823486,0.43748974800109863,0.06396813690662384,0.4577479660511017,179.52017987349325,0.498627170920372,0.44687071442604065,174.43362715439812,177.68904224041574,0.5434794920278063,-1.856679217818179e-06,-0.0034455324584660857,-0.06788198127878106,-0.06153450243430243,-1.733811798043442,0.2315332541006746,49,1762115124.341286
0.5018296241760254,0.17785042524337769,0.08531320095062256,0.9994179606437683,0.4636271893978119,0.2633567750453949,-0.05523651838302612,0.999804675579071,0.5367375016212463,0.2609400749206543,-0.022842086851596832,0.9997498393058777,0.4777841567993164,0.4467932879924774,-0.016123708337545395,0.9996777176856995,0.5194283723831177,0.44652125239372253,0.016031526029109955,0.9991717338562012,0.4757084846496582,0.5838550329208374,0.037681031972169876,0.8305689692497253,0.5076460838317871,0.5758881568908691,0.0901777595281601,0.5647002458572388,0.469933420419693,0.7280699610710144,0.10727857053279877,0.7562994956970215,0.500617265701294,0.7092757225036621,0.1686146855354309,0.5902678370475769,0.4451189935207367,0.4495822787284851,-0.0015971760731190443,0.48259514570236206,0.552358090877533,0.4427403211593628,0.04295320436358452,0.48570534586906433,179.51058937890613,0.49860626459121704,0.4466572701931,175.46278703324967,177.9108368242351,0.5436296608043517,-0.0002470515811301192,-0.0025222857078459216,-0.0028974856252123537,0.010910072630314075,-1.893252998168623,0.24614952315642832,50,1762115124.4259093
0.5014006495475769,0.17788933217525482,0.07588543742895126,0.999464750289917,0.4636293947696686,0.2633478045463562,-0.0676146000623703,0.9998166561126709,0.5365687608718872,0.2605894207954407,-0.028654247522354126,0.9997637271881104,0.4777810573577881,0.4467627704143524,-0.017017783597111702,0.9996929168701172,0.51937335729599,0.4464934766292572,0.01689722202718258,0.9992011189460754,0.4756983816623688,0.5831224322319031,0.03730674460530281,0.8394352793693542,0.5076491832733154,0.5761371850967407,0.09520269185304642,0.5716015100479126,0.46926864981651306,0.728830099105835,0.10689685493707657,0.7582193613052368,0.5007450580596924,0.7097176313400269,0.17150114476680756,0.593877375125885,0.44337254762649536,0.4554344713687897,-0.023856962099671364,0.5222766995429993,0.5525359511375427,0.4471094310283661,0.03173588961362839,0.5193433165550232,179.5278077920592,0.49857720732688904,0.4466281235218048,175.88741411480035,177.61779841746406,0.5453206179344638,-0.0004994651880448012,-0.000501002004008016,-0.0043387363731007145,0.034743836647291075,-2.1657505059661815,0.22823737343632539,51,1762115124.484086
0.5010710954666138,0.1779257208108902,0.07587853074073792,0.9995071887969971,0.46363121271133423,0.2633458375930786,-0.06784988939762115,0.99982750415802,0.5364789366722107,0.2603763937950134,-0.029262695461511612,0.9997768998146057,0.4777758717536926,0.44674062728881836,-0.017164263874292374,0.999707043170929,0.5192937254905701,0.4464440643787384,0.017036546021699905,0.999229371547699,0.4757388234138489,0.5827977657318115,0.03725466877222061,0.8474881052970886,0.5076742172241211,0.5766401290893555,0.09487934410572052,0.579561173915863,0.46894025802612305,0.7296714186668396,0.1060907244682312,0.7605417966842651,0.501258373260498,0.7105326056480408,0.1693410575389862,0.5984981060028076,0.44264084100723267,0.45724958181381226,-0.025028103962540627,0.5575314164161682,0.5526508092880249,0.4488830268383026,0.03021847829222679,0.549410879611969,179.5284855948524,0.49853479862213135,0.4465923458337784,176.2847700119362,177.2758729840528,0.5459249836500462,-0.0004433563226412696,-0.00037403321527114836,0.0005865828813923552,0.0013273787913644253,-2.33421787962744,0.2300588653431732,52,1762115124.5797398
0.5005306005477905,0.17831355333328247,0.06732132285833359,0.9995492100715637,0.4634040296077728,0.263840913772583,-0.07171475142240524,0.9998363852500916,0.5357316136360168,0.26032450795173645,-0.02991081401705742,0.999790608882904,0.4775037169456482,0.44748857617378235,-0.018841121345758438,0.999714732170105,0.5189068913459778,0.4466573894023895,0.018700528889894485,0.9992534518241882,0.474231481552124,0.5863657593727112,0.031261466443538666,0.8592128753662109,0.5075902938842773,0.5798022747039795,0.0950835794210434,0.5922965407371521,0.4686877727508545,0.7334640622138977,0.09762568771839142,0.7701400518417358,0.501173734664917,0.7154451012611389,0.1688563972711563,0.6130852103233337,0.4424101710319519,0.46106016635894775,-0.03253478184342384,0.5919030904769897,0.5527201294898987,0.45114588737487793,0.019619200378656387,0.581164538860321,179.57800435414038,0.498205304145813,0.44707298278808594,175.47198721866823,177.6895919928355,0.5503260738551389,-0.005243229708093999,0.007648352669797935,-0.07638015365507715,0.1276598396197285,-2.783401361485116,0.22780253271905934,53,1762115124.6425817
0.5004574060440063,0.1820109635591507,0.06462986767292023,0.9995895028114319,0.4630902409553528,0.2686293423175812,-0.06909696012735367,0.9998458623886108,0.5351317524909973,0.26162511110305786,-0.02818862721323967,0.9998049139976501,0.47748374938964844,0.4520583152770996,-0.019644033163785934,0.9997245669364929,0.5187078714370728,0.450304239988327,0.019501011818647385,0.9992839694023132,0.4738065302371979,0.591460645198822,0.03148685395717621,0.8687191605567932,0.5107344388961792,0.585708737373352,0.09398521482944489,0.6057429909706116,0.4671900272369385,0.7362943887710571,0.09823676198720932,0.7809663414955139,0.5009963512420654,0.7236944437026978,0.16873273253440857,0.625929594039917,0.44116711616516113,0.4631243348121643,-0.036707960069179535,0.6249013543128967,0.5527253746986389,0.4520587623119354,0.018881386145949364,0.6125064492225647,179.68737410742463,0.4980958104133606,0.4511812776327133,175.27337738426337,179.1264848932043,0.5525347468198628,-0.0017221078525118214,0.06461490218577391,0.05537989674235973,0.8959649110018265,-5.553124959599496,0.12413177431239665,54,1762115124.706163
0.5003576278686523,0.18971648812294006,0.06118977069854736,0.999625027179718,0.4629742503166199,0.27335625886917114,-0.06892748177051544,0.9998525977134705,0.5349516272544861,0.26641973853111267,-0.029084470123052597,0.9998148679733276,0.47749289870262146,0.4543500542640686,-0.019273456186056137,0.9997200965881348,0.518614649772644,0.45201733708381653,0.019102811813354492,0.9992992877960205,0.47416406869888306,0.5938888192176819,0.01831694133579731,0.8756819367408752,0.5162519216537476,0.589331865310669,0.050894223153591156,0.6267038583755493,0.4742366373538971,0.7383635640144348,0.07490295171737671,0.7928083539009094,0.4957846701145172,0.72880619764328,0.09823005646467209,0.6442599296569824,0.4403773248195648,0.46365708112716675,-0.04186302423477173,0.6553704738616943,0.5527158975601196,0.45433467626571655,0.004276758525520563,0.639660120010376,179.7158096717387,0.49805377423763275,0.45318369567394257,173.52435604977848,170.9997733166585,0.5446763596827698,-0.0006604453850764159,0.03146070572370393,0.016680158577368112,-0.5208974334643616,-5.5046432868936455,0.08914827504856405,55,1762115124.7698112
0.49980029463768005,0.20067617297172546,0.05334591865539551,0.9996564984321594,0.4625907838344574,0.2802653908729553,-0.06725645065307617,0.9998586773872375,0.5347334146499634,0.2756199836730957,-0.04074206203222275,0.9998249411582947,0.477374404668808,0.45963767170906067,-0.014626296237111092,0.9997081756591797,0.5180917978286743,0.45589500665664673,0.014453545212745667,0.9992997646331787,0.4764971137046814,0.598804771900177,0.017402371391654015,0.8822117447853088,0.5153158903121948,0.5944307446479797,0.029502740129828453,0.6473681926727295,0.47473230957984924,0.7396091818809509,0.07196252048015594,0.8037794232368469,0.4899812340736389,0.7345908284187317,0.08156909793615341,0.6631842851638794,0.43944668769836426,0.46560385823249817,-0.03865485265851021,0.6836733222007751,0.5527206063270569,0.4651636779308319,0.002869565272703767,0.6677818894386292,179.70400339382948,0.49773310124874115,0.4577663391828537,171.7557263344327,163.53672027296398,0.5372181079321641,-0.005037245656545985,0.07198579833789619,-0.06875233936364382,0.6365826054060584,-3.6843024833674956,0.0685570431270369,56,1762115124.8334715
0.4993954598903656,0.20303885638713837,0.04745553806424141,0.9996839761734009,0.462418794631958,0.2819177508354187,-0.07606680691242218,0.9998655319213867,0.5345032811164856,0.277610182762146,-0.03993789106607437,0.9998337626457214,0.47737154364585876,0.45920148491859436,-0.016390658915042877,0.9997093081474304,0.5177376866340637,0.45562100410461426,0.016235532239079475,0.9993098974227905,0.4751458168029785,0.5983133912086487,0.014873981475830078,0.8860423564910889,0.5152148008346558,0.5943243503570557,0.047456320375204086,0.6550570130348206,0.47401198744773865,0.7386098504066467,0.0722280740737915,0.8101987838745117,0.4905746579170227,0.7330928444862366,0.10435495525598526,0.6709348559379578,0.43903636932373047,0.4655556082725525,-0.04322275146842003,0.7071614861488342,0.552735447883606,0.46782663464546204,-0.0010280590504407883,0.692664384841919,179.70765807889177,0.49755461513996124,0.4574112445116043,170.40503582017837,167.3179966902633,0.5346486797054955,-0.002250779448418103,-0.00447788230554378,0.035138425717485225,-0.9642368367998956,-3.419769437741047,0.07033082784733548,57,1762115124.9127712
0.49932703375816345,0.21463720500469208,0.04972308129072189,0.9997050762176514,0.4623977243900299,0.2871304154396057,-0.0727844089269638,0.9998730421066284,0.5340604782104492,0.2849510908126831,-0.04211252182722092,0.9998409152030945,0.47721272706985474,0.46119311451911926,-0.014494230039417744,0.9997080564498901,0.5173405408859253,0.4570349454879761,0.014324028976261616,0.9993149638175964,0.47178512811660767,0.5977329015731812,0.012228982523083687,0.8918129205703735,0.5148582458496094,0.5966803431510925,0.033983778208494186,0.6671893000602722,0.47386106848716736,0.7393883466720581,0.0693584680557251,0.8173110485076904,0.4877690374851227,0.7329177856445312,0.08893440663814545,0.6806961297988892,0.43836718797683716,0.46585333347320557,-0.0468057319521904,0.7316062450408936,0.5524777770042419,0.4735885262489319,0.0005151518853381276,0.7165094614028931,179.6846895848656,0.49727663397789,0.45911403000354767,168.68918649365182,163.2162989173421,0.5226731490601922,-0.004371489685580809,0.02677774694991639,-0.03334996824528329,0.4915212955026494,-1.7418760114975202,0.07615087894167517,58,1762115124.9763608
0.4994690418243408,0.2268926352262497,0.03468642383813858,0.9997249841690063,0.4624010920524597,0.29368358850479126,-0.07975663989782333,0.9998805522918701,0.5339726209640503,0.29422739148139954,-0.0474214069545269,0.9998466968536377,0.47719940543174744,0.46401071548461914,-0.01707066223025322,0.9997000694274902,0.5170555710792542,0.4601474404335022,0.016917234286665916,0.9993019104003906,0.4693579077720642,0.5989784598350525,0.004302416928112507,0.8990013599395752,0.49969229102134705,0.5988189578056335,0.041342802345752716,0.6787341237068176,0.4758768081665039,0.7415186762809753,0.05812113359570503,0.8263872861862183,0.4769071042537689,0.734474778175354,0.09264719486236572,0.6890815496444702,0.4385317862033844,0.4712766408920288,-0.05746688321232796,0.7530452609062195,0.5519087910652161,0.48171043395996094,-0.011543563567101955,0.739318311214447,179.6389767356671,0.4971274882555008,0.46207907795906067,166.97528910435508,169.19512290933565,0.5132409286236553,-0.001882064558443473,0.03741583453927872,0.03141396700910292,0.1342416483746447,0.4353269570052118,0.13023722701407567,59,1762115125.0556066
0.49943438172340393,0.23781123757362366,0.032081522047519684,0.9997435808181763,0.4624314308166504,0.302068829536438,-0.07717062532901764,0.9998865127563477,0.5336209535598755,0.3036833703517914,-0.05872849375009537,0.9998539090156555,0.47690606117248535,0.4664868116378784,-0.010834555141627789,0.9996915459632874,0.5163211226463318,0.4632674753665924,0.010655892081558704,0.9993087649345398,0.4769112169742584,0.6053875684738159,-0.00020214733376633376,0.9038218855857849,0.4996398985385895,0.6040299534797668,0.00572153041139245,0.6971619129180908,0.483695924282074,0.7410441040992737,0.031401537358760834,0.8357204794883728,0.47529155015945435,0.7372704148292542,0.036616306751966476,0.7066558599472046,0.4386667311191559,0.4779331088066101,-0.0587797686457634,0.7719898819923401,0.5515384078025818,0.48693063855171204,-0.019442755728960037,0.7595330476760864,179.50041073094587,0.49661359190940857,0.4648771435022354,170.81451722223832,164.72301522747827,0.5017461288734983,-0.006477726253658947,0.035269958166289,-0.05792887737460117,-0.02704903396204996,1.2992153258130852,0.16083674636399156,60,1762115125.1349394
0.49943938851356506,0.24656827747821808,0.04173460975289345,0.9997598528862,0.4630287289619446,0.3104534149169922,-0.07527324557304382,0.9998933672904968,0.5334875583648682,0.3134656846523285,-0.05132145434617996,0.9998607635498047,0.47690480947494507,0.4721386730670929,-0.012888218276202679,0.9996931552886963,0.5160342454910278,0.4698697328567505,0.012720920145511627,0.9993239045143127,0.47823843359947205,0.6132315993309021,-0.02174779400229454,0.9083914160728455,0.4971746802330017,0.6077852249145508,0.006893476936966181,0.7073681950569153,0.48607879877090454,0.745255172252655,-0.010164440609514713,0.8423095345497131,0.47303295135498047,0.7392399311065674,0.020787453278899193,0.7153653502464294,0.4387210011482239,0.4853936433792114,-0.05754057317972183,0.7889384031295776,0.5504671335220337,0.4962548017501831,-0.012119585648179054,0.7781257033348083,179.35567882176713,0.49646952748298645,0.4710042029619217,170.921331737485,171.24691442920815,0.49741324815747917,-0.0022709932988315236,0.09658533560338704,0.06631381936297362,0.9665593008156786,2.4480297008865977,0.21941682865077483,61,1762115125.1983762
0.49944019317626953,0.2493307739496231,0.04605457931756973,0.9997702240943909,0.46321025490760803,0.3137868642807007,-0.07424874603748322,0.9998992085456848,0.5333682298660278,0.3165268301963806,-0.048036906868219376,0.9998640418052673,0.47681260108947754,0.47479236125946045,-0.01294016558676958,0.9996916651725769,0.5157423615455627,0.4721274971961975,0.012768642976880074,0.9993228912353516,0.4778904318809509,0.6137362718582153,-0.008286713622510433,0.9128457903862,0.4961494505405426,0.6085425615310669,0.015706876292824745,0.7188014984130859,0.48531413078308105,0.7462860345840454,0.024815887212753296,0.8471727967262268,0.47448667883872986,0.7403556704521179,0.0505392849445343,0.721002995967865,0.4387929439544678,0.48742935061454773,-0.0529952272772789,0.8046084642410278,0.5496025085449219,0.49635374546051025,-0.007583882659673691,0.793174147605896,179.271907958653,0.49627748131752014,0.473459929227829,167.59906544776695,166.54497627821777,0.4944473430701798,-0.002409216937198848,0.030807057764378285,-0.0017340139537137915,-0.8251877390247256,2.2365061328345495,0.2825294270446571,62,1762115125.2780893
0.4993487298488617,0.257533997297287,0.024512499570846558,0.9997704029083252,0.4632783532142639,0.3203365206718445,-0.08152198046445847,0.999901533126831,0.5333346724510193,0.3239075541496277,-0.07377547025680542,0.9998685717582703,0.4762613773345947,0.47778287529945374,-0.006296803709119558,0.9996822476387024,0.5154695510864258,0.4767788052558899,0.006122261751443148,0.9993168711662292,0.48002997040748596,0.6163595914840698,-0.013479715213179588,0.9106845855712891,0.4969082772731781,0.6086931228637695,-0.012457034550607204,0.7254770994186401,0.48892369866371155,0.7492408156394958,-0.013982283882796764,0.8469426035881042,0.47472089529037476,0.7401043176651001,-0.009401663206517696,0.7270774245262146,0.4390186667442322,0.49197500944137573,-0.06542900949716568,0.8170827031135559,0.5484189391136169,0.5015329122543335,-0.043608229607343674,0.8075874447822571,179.09866379794673,0.49586546421051025,0.4772808402776718,176.38470013615844,170.59534375313052,0.488796404933617,-0.006487418396957741,0.060162183113660506,-0.06421335116045274,0.4622113426745744,2.918055282455179,0.3671949754906354,63,1762115125.3415995
0.49915146827697754,0.2664735019207001,0.05008495971560478,0.9997274279594421,0.4634380340576172,0.3281894624233246,-0.06509589403867722,0.9999038577079773,0.5333389639854431,0.3336995840072632,-0.04868871718645096,0.9998672008514404,0.4750993847846985,0.48164790868759155,-0.009917550720274448,0.9996852874755859,0.5144684314727783,0.48179125785827637,0.009847198612987995,0.999306321144104,0.4801563620567322,0.6198915839195251,-0.038079697638750076,0.913009762763977,0.4973357319831848,0.6109752058982849,-0.012908942997455597,0.7300485372543335,0.4871898591518402,0.7567868828773499,-0.05129816010594368,0.852466881275177,0.47631531953811646,0.7408350706100464,-0.018900608643889427,0.7336459159851074,0.4394347071647644,0.4953441917896271,-0.058702629059553146,0.8304835557937622,0.545545220375061,0.5104175209999084,-0.04571249336004257,0.8190655708312988,178.63048629158556,0.4947839081287384,0.48171958327293396,173.915447895221,172.4978229277677,0.49011073553315376,-0.013643397213801069,0.055992966832683705,-0.09026980948763666,-0.05259299517638143,4.507167892025371,0.5153495896737942,64,1762115125.4208727
0.4986955523490906,0.276163786649704,0.07431934773921967,0.9996289014816284,0.46340569853782654,0.3368063271045685,-0.05080811306834221,0.9999006390571594,0.533556342124939,0.3425208330154419,-0.03697673976421356,0.9998583793640137,0.473623663187027,0.49511104822158813,-0.010404343716800213,0.9996920824050903,0.5137847065925598,0.49691081047058105,0.010291529819369316,0.9993007779121399,0.47980332374572754,0.6232597827911377,-0.015606051310896873,0.9149724841117859,0.4996984899044037,0.6229756474494934,0.0018495084950700402,0.7297928929328918,0.48124295473098755,0.7602248191833496,-0.00819256529211998,0.8602634072303772,0.4769708216190338,0.7415816187858582,0.018534785136580467,0.7433168292045593,0.439420223236084,0.5043596625328064,-0.037227969616651535,0.8415758609771729,0.54364013671875,0.5166304707527161,-0.037061773240566254,0.8264138102531433,178.25000297054186,0.4937041848897934,0.4960109293460846,174.13473658048798,167.48590806106702,0.48014864695319387,-0.01696665068167258,0.2245726199530191,-0.05222123474078964,2.649041887183039,4.657059406461435,0.44873903922795905,65,1762115125.4845107
0.49870234727859497,0.28651466965675354,0.0670606940984726,0.9996017217636108,0.4632435441017151,0.34441760182380676,-0.05410038307309151,0.9998956918716431,0.5336941480636597,0.35063233971595764,-0.04823600873351097,0.9998506307601929,0.4730396866798401,0.5052574872970581,-0.008432043716311455,0.9997056126594543,0.5136890411376953,0.5072556138038635,0.008213208988308907,0.9993305206298828,0.4794846177101135,0.6230301856994629,0.03549519181251526,0.9157893061637878,0.49993500113487244,0.62063068151474,0.028111755847930908,0.7394740581512451,0.4775976538658142,0.7574445009231567,0.022855162620544434,0.8682312965393066,0.477015882730484,0.7411185503005981,0.02678641676902771,0.7590253949165344,0.43876710534095764,0.511417031288147,-0.0470169261097908,0.8509845733642578,0.5431124567985535,0.5173039436340332,-0.027659913524985313,0.8307405114173889,178.15811994056173,0.4933643639087677,0.5062565505504608,153.90652628337222,168.7986371369586,0.46518291380330323,-0.004288059845182331,0.1292852393717038,0.15998587284208776,-1.2023918864281318,5.041247138793156,0.4115176757921049,66,1762115125.5637589
0.49904903769493103,0.2887052893638611,0.06374608725309372,0.999538242816925,0.4631595015525818,0.34685152769088745,-0.058133888989686966,0.9998924136161804,0.5339921712875366,0.354287326335907,-0.049250878393650055,0.9998419284820557,0.47188645601272583,0.5084653496742249,-0.008747309446334839,0.9997174143791199,0.5137456655502319,0.5121713280677795,0.008521332405507565,0.9993460774421692,0.4764326512813568,0.6237017512321472,0.03536602109670639,0.9176910519599915,0.49786996841430664,0.6212531328201294,0.04020819440484047,0.7442256212234497,0.472957044839859,0.7562806606292725,0.05043713003396988,0.875139057636261,0.4770607352256775,0.7418602705001831,0.060635678470134735,0.7691832780838013,0.4385899603366852,0.5122581720352173,-0.047013018280267715,0.8564693331718445,0.5433478951454163,0.5168061256408691,-0.02462431974709034,0.8280617594718933,177.93508487423054,0.4928160607814789,0.5103183388710022,165.08574565682977,173.24111707079197,0.4610655301072194,-0.008303485676735436,0.06151159725882973,-0.060809485153149226,-1.02636194932372,5.992787492630745,0.4743124857987309,67,1762115125.6297917
0.499107301235199,0.2955549359321594,0.08930905163288116,0.9994896054267883,0.46310821175575256,0.35404324531555176,-0.04536940157413483,0.9998914003372192,0.5339935421943665,0.36063337326049805,-0.030805518850684166,0.999833345413208,0.47045668959617615,0.5182413458824158,-0.008855226449668407,0.9997304081916809,0.5129215121269226,0.5195873975753784,0.00859079509973526,0.9993594884872437,0.4755095839500427,0.6310430765151978,0.0241257194429636,0.9198389053344727,0.4976627826690674,0.621742308139801,0.04125276580452919,0.7458545565605164,0.48196426033973694,0.7557895183563232,0.028606558218598366,0.8807486891746521,0.47741350531578064,0.7382751703262329,0.05715382099151611,0.771970272064209,0.43813252449035645,0.514621913433075,-0.029103364795446396,0.8601453304290771,0.543483316898346,0.5182230472564697,0.007951565086841583,0.8288931846618652,177.56823684140494,0.4916891008615494,0.5189143717288971,165.75129338141653,169.9948396278571,0.45427366697450033,-0.014707358015625827,0.1121822795286738,-0.08357355173759477,0.6612762813119721,5.311455408013411,0.994705309172525,68,1762115125.7064173
0.4991530776023865,0.30527421832084656,0.10168111324310303,0.9993237257003784,0.46301111578941345,0.3638361692428589,-0.025758128613233566,0.9998840689659119,0.5343397855758667,0.371480256319046,-0.02838190458714962,0.9998261332511902,0.4706019461154938,0.5322234034538269,-0.0005479393294081092,0.9997389912605286,0.5129804015159607,0.5333833694458008,0.0002556261606514454,0.99937504529953,0.47960391640663147,0.6490901112556458,0.041443947702646255,0.9186456799507141,0.5019484162330627,0.6370739936828613,0.02847711741924286,0.7535289525985718,0.486927330493927,0.760689377784729,0.020222896710038185,0.886705219745636,0.473041832447052,0.7394382953643799,0.01987045258283615,0.7834289073944092,0.43801647424697876,0.5172269344329834,0.00027899426640942693,0.8604086637496948,0.5421615839004517,0.5195887088775635,0.02872852422297001,0.8097747564315796,177.61293799548665,0.49179117381572723,0.5328033864498138,149.53225866370923,158.00772678898906,0.45262502948382183,0.0016088271767314268,0.2189122919093608,0.25716824176861,1.6822295962134644,6.116877120195834,0.637870997819638,69,1762115125.769863
0.499087393283844,0.31390655040740967,0.12506026029586792,0.9990223050117493,0.4628028869628906,0.3724018633365631,-0.00476785097271204,0.9998642206192017,0.5343201160430908,0.37831294536590576,-0.012807006016373634,0.9998207092285156,0.46935421228408813,0.5360165238380432,0.006212601438164711,0.9997524619102478,0.5130175352096558,0.5380054712295532,-0.006533245090395212,0.9994081258773804,0.4766623079776764,0.6464360356330872,0.04862202703952789,0.9083946943283081,0.5110591650009155,0.6310627460479736,0.022239182144403458,0.7621407508850098,0.47550898790359497,0.7645799517631531,-0.038739919662475586,0.8914760947227478,0.47983741760253906,0.7307504415512085,-0.04962513595819473,0.7970178127288818,0.4379197061061859,0.5196491479873657,-1.6939377019298263e-05,0.8402646780014038,0.5401186347007751,0.5223748087882996,0.054250407963991165,0.7692986726760864,177.38762710978253,0.49118587374687195,0.5370109975337982,122.40270646300279,126.05000586190711,0.4660989724065948,-0.007603261048602771,0.052852406779051904,-0.11571436248542913,-2.0859020530668206,4.724903047892021,0.45560814069359307,70,1762115125.8494735
0.49887165427207947,0.31388747692108154,0.1267319917678833,0.998773455619812,0.4623798727989197,0.37367168068885803,-0.003270993009209633,0.9998518228530884,0.5341310501098633,0.37740543484687805,-0.00585206039249897,0.9998247623443604,0.4696482717990875,0.5388109087944031,0.0038476299960166216,0.9997631907463074,0.5132097601890564,0.5419228076934814,-0.004140122793614864,0.9994401335716248,0.4749647080898285,0.6443178653717041,0.050110310316085815,0.8996680378913879,0.5096208453178406,0.6372705101966858,0.022495733574032784,0.7672999501228333,0.4756830334663391,0.7626491785049438,-0.026114344596862793,0.89449542760849,0.47982850670814514,0.731543242931366,-0.034688424319028854,0.807335376739502,0.43744951486587524,0.5188915133476257,0.022792764008045197,0.8165681958198547,0.5403842329978943,0.5222030878067017,0.07686098664999008,0.744260311126709,177.62842232191394,0.49142901599407196,0.5403668582439423,123.5083504071278,132.00638336385074,0.4613096417018606,0.003831418524181823,0.052881418336332656,0.18018688088051935,0.0004571620903437492,2.9788440682943933,0.46955856056141926,71,1762115125.9129336
0.4978327751159668,0.3211385905742645,0.15308637917041779,0.9987553954124451,0.4613587260246277,0.37997764348983765,-0.0041855438612401485,0.9998534321784973,0.5337727665901184,0.3842005133628845,0.025597715750336647,0.9998360276222229,0.4698404371738434,0.5481652021408081,-0.013488084077835083,0.999785304069519,0.5137017369270325,0.5526308417320251,0.01308178436011076,0.9994929432868958,0.45375409722328186,0.6353825330734253,0.04840000718832016,0.8986673951148987,0.5049257874488831,0.6263418197631836,0.0755658745765686,0.7466233372688293,0.47016802430152893,0.7569116950035095,-0.09422207623720169,0.9009261131286621,0.48388203978538513,0.7231104373931885,-0.04840555042028427,0.8155921101570129,0.43696102499961853,0.5205187797546387,0.02784016728401184,0.7819388508796692,0.540678858757019,0.5217716097831726,0.14184169471263885,0.7112185955047607,178.02815926173355,0.4917710870504379,0.5503980219364166,94.2534364993161,88.40462235296388,0.4756496183125571,0.005347199964221558,0.15680554416774126,0.02369445269077893,1.6245252896607028,3.337459243558763,2.5021086850328795,72,1762115125.9769056
0.4970938563346863,0.32417646050453186,0.13789284229278564,0.9987788796424866,0.4602944254875183,0.38646399974823,-0.011184239760041237,0.9998557567596436,0.5323789119720459,0.38865429162979126,0.0044423798099160194,0.9998453855514526,0.4687042236328125,0.55701744556427,-0.012059323489665985,0.9998050332069397,0.5125714540481567,0.5585854649543762,0.011722858063876629,0.9995400309562683,0.4576968252658844,0.6362457871437073,0.06012716144323349,0.8926048874855042,0.4994748532772064,0.6175533533096313,0.062092773616313934,0.7380088567733765,0.47056713700294495,0.7568430304527283,-0.08298277109861374,0.9061279296875,0.48341625928878784,0.720542848110199,-0.06174354627728462,0.8253792524337769,0.4373234212398529,0.5191376805305481,0.05418521165847778,0.7409281730651855,0.5409945249557495,0.5206761956214905,0.11806541681289673,0.6885994076728821,178.0827502758743,0.4906378388404846,0.5578014552593231,87.39821163931711,90.20593656994349,0.46522638993277843,-0.014799922469275726,0.09668688485286288,-0.26311610058228185,-0.785133820642576,1.7404005659689463,3.572617994455895,73,1762115126.0534768
0.4957377016544342,0.328759104013443,0.1368294060230255,0.9985880255699158,0.4600151479244232,0.39119020104408264,-0.005693243816494942,0.9998456835746765,0.531051754951477,0.39303937554359436,0.0013305197935551405,0.9998511075973511,0.4721822738647461,0.5688518285751343,-0.011190502904355526,0.9998195171356201,0.5124596357345581,0.5646260380744934,0.010867750272154808,0.99957674741745,0.45920324325561523,0.6425126194953918,0.06567798554897308,0.8744276165962219,0.4990231990814209,0.6303818225860596,0.06361716240644455,0.7022716999053955,0.4693843424320221,0.7568403482437134,-0.07150039076805115,0.9042988419532776,0.4831937253475189,0.7238867282867432,-0.0568804033100605,0.8246120810508728,0.43992146849632263,0.5145357251167297,0.07517579197883606,0.6923677325248718,0.5411819219589233,0.5230224132537842,0.10716575384140015,0.6739057898521423,178.94606934918505,0.4923209547996521,0.5667389333248138,83.24864770858255,90.02190348039642,0.4584816487021814,0.02011935670497975,0.10683536583628067,0.41741237718114244,0.12131125476350439,1.491146283918749,1.1370915699868842,74,1762115126.1371334
0.49343401193618774,0.3327505886554718,0.12330405414104462,0.9986304044723511,0.45862269401550293,0.3959345817565918,-0.012811616063117981,0.999843418598175,0.5289657711982727,0.39762961864471436,-0.020238656550645828,0.9998586773872375,0.473052978515625,0.5769724249839783,-0.011147674173116684,0.9998352527618408,0.5122214555740356,0.5727331638336182,0.01077897660434246,0.9996144771575928,0.46077418327331543,0.6450514197349548,0.09657882899045944,0.8570723533630371,0.49779218435287476,0.6386775374412537,0.1096709594130516,0.6725288033485413,0.4703865647315979,0.7567745447158813,-0.06232112646102905,0.9070196151733398,0.4827345311641693,0.7310183048248291,-0.021045776084065437,0.8301677107810974,0.4407323896884918,0.507893979549408,0.0552968755364418,0.6466585397720337,0.5403563380241394,0.5271065831184387,0.08201160281896591,0.6709381937980652,179.62772551678168,0.4926372170448303,0.5748527944087982,67.24813024545429,69.88311381672965,0.44333563953755306,0.004561303367077465,0.1170224471830986,-0.22438657208467522,0.1469235394245289,1.380372780315929,0.4248055244226468,75,1762115126.2064693
0.4921146333217621,0.3340413272380829,0.1189471036195755,0.9986014366149902,0.4578276574611664,0.39824023842811584,-0.013422658666968346,0.9998388290405273,0.5289281606674194,0.3998527526855469,-0.019821401685476303,0.9998579025268555,0.46956557035446167,0.5793858170509338,-0.012663598172366619,0.9998499751091003,0.512032151222229,0.5800694227218628,0.012213845737278461,0.9996479749679565,0.46154770255088806,0.6603263020515442,0.100406214594841,0.8531163930892944,0.49521884322166443,0.6363762617111206,0.12137740850448608,0.6493061780929565,0.4777042865753174,0.7657308578491211,-0.02106659859418869,0.9116004109382629,0.48091310262680054,0.7310423851013184,0.024083634838461876,0.833220899105072,0.4406161904335022,0.5129820108413696,0.050543684512376785,0.6150503158569336,0.5405130982398987,0.5254124402999878,0.09403413534164429,0.6558048129081726,179.18221370773614,0.49079886078834534,0.5797276198863983,76.29845376615579,72.6383536696355,0.4308570949707306,-0.02281189258274188,0.06049099284338583,-0.33966996519356313,-0.7014905078352193,1.299209170901408,2.783881503201236,76,1762115126.287057
0.49017173051834106,0.3321489691734314,0.10734684765338898,0.9984822273254395,0.4569375514984131,0.3989977538585663,-0.030664097517728806,0.999835193157196,0.5289518237113953,0.40132442116737366,-0.027238961309194565,0.9998617172241211,0.46726638078689575,0.5870775580406189,-0.012377286329865456,0.9998637437820435,0.5120903253555298,0.5893470048904419,0.012061012908816338,0.9996804594993591,0.4621218144893646,0.6544529795646667,0.14445729553699493,0.8251835107803345,0.49562734365463257,0.6364157199859619,0.15360663831233978,0.6186280846595764,0.47745251655578613,0.7623999118804932,0.022214697673916817,0.9111018776893616,0.48372429609298706,0.7346774339675903,0.04843666031956673,0.8344940543174744,0.4405595362186432,0.5166860818862915,0.04438435658812523,0.5920522809028625,0.5404354333877563,0.5243098139762878,0.08787927031517029,0.6432158350944519,179.00490732214718,0.48967835307121277,0.5882122814655304,64.64783386446163,62.329847987105026,0.4226810549655576,-0.014921214968997145,0.11298579869257805,0.10507602502465305,0.6990458618491554,1.8504923840464573,1.9047601028866543,77,1762115126.3621519
0.4896293580532074,0.33147183060646057,0.09576679021120071,0.9984899163246155,0.4559864401817322,0.40113821625709534,-0.05835317447781563,0.9998390078544617,0.5291542410850525,0.4023054242134094,-0.03576475381851196,0.999862015247345,0.4676969051361084,0.5972013473510742,-0.01973549649119377,0.9998766779899597,0.5134918093681335,0.5987078547477722,0.019145801663398743,0.9997099041938782,0.45978960394859314,0.6443551182746887,0.1675414741039276,0.8180854916572571,0.49585145711898804,0.6361602544784546,0.23454725742340088,0.5867487192153931,0.4773632884025574,0.7530319094657898,0.06755184382200241,0.916054368019104,0.4866502285003662,0.7273523807525635,0.1488332599401474,0.837330162525177,0.4403533935546875,0.520086944103241,0.016753921285271645,0.5719801783561707,0.5379355549812317,0.5240603089332581,0.10297085344791412,0.6216429471969604,179.42307456816616,0.49059435725212097,0.5979546010494232,61.44606510776225,57.26428063129053,0.40898019397638824,0.01202756133524088,0.12792119161138643,0.3538499787059282,0.19610866210106556,0.9139323150179375,0.471907290484999,78,1762115126.4383106
0.48875412344932556,0.32938531041145325,0.13797084987163544,0.9985076189041138,0.45279139280319214,0.40582287311553955,-0.023623865097761154,0.9998410940170288,0.5292075872421265,0.40421104431152344,0.014252041466534138,0.9998503923416138,0.46735841035842896,0.6025983095169067,-0.022169921547174454,0.9998878836631775,0.5149511098861694,0.606691837310791,0.02161509543657303,0.9997342228889465,0.45144587755203247,0.6374459266662598,0.1792389303445816,0.8066719174385071,0.5020467042922974,0.6349489092826843,0.25427401065826416,0.5458127856254578,0.4728383421897888,0.7452980279922485,0.02947942353785038,0.9199193120002747,0.4915778636932373,0.720751166343689,0.10702349990606308,0.839536726474762,0.4415223002433777,0.4638899564743042,-0.01054924726486206,0.5632638931274414,0.5301989912986755,0.5071926712989807,0.14895832538604736,0.5706167221069336,-179.9554355376581,0.4911547601222992,0.6046450734138489,45.40236191491646,37.728237751363125,0.40966854563386096,0.0076441758892188015,0.09126139471655896,-0.059791573388941345,-0.5000579947743251,-1.2083472136207207,0.028423108664540928,79,1762115126.5116217
0.48855966329574585,0.3272559940814972,0.2003142088651657,0.9985331296920776,0.44996291399002075,0.40772801637649536,0.03088807500898838,0.9998474717140198,0.5293530821800232,0.4064638912677765,0.06184171885251999,0.9998363852500916,0.4655444025993347,0.606389582157135,-0.02010953798890114,0.9998977780342102,0.5152291059494019,0.608765184879303,0.019598936662077904,0.9997553825378418,0.45086368918418884,0.6369202733039856,0.17919522523880005,0.7918318510055542,0.5098220109939575,0.6343855261802673,0.23399695754051208,0.5079875588417053,0.4682250916957855,0.7449733018875122,-0.03602202236652374,0.9238725900650024,0.4947553277015686,0.7126465439796448,0.03908546641469002,0.8416342735290527,0.4418111741542816,0.4585970938205719,-0.0187314972281456,0.570338785648346,0.5276891589164734,0.5015450716018677,0.1533866673707962,0.5248518586158752,-179.7917289890607,0.4903867542743683,0.607577383518219,35.275004787027775,29.20387753387457,0.44811830137300646,-0.01371176455564731,0.05235265572988941,-0.38128306969711195,-0.6946658929481796,-0.9122403298369952,0.6346062533474968,80,1762115126.5676324
0.4883354604244232,0.32599493861198425,0.20252087712287903,0.9983968734741211,0.4492080807685852,0.4082931578159332,0.031614042818546295,0.9998499155044556,0.5294209718704224,0.40698233246803284,0.058670323342084885,0.9998152852058411,0.4637683033943176,0.6101553440093994,-0.01944369450211525,0.999905526638031,0.5152190327644348,0.6116873025894165,0.018961254507303238,0.9997715353965759,0.45157748460769653,0.6399562954902649,0.19630731642246246,0.7791843414306641,0.511540412902832,0.6342237591743469,0.22449299693107605,0.48097753524780273,0.4688020348548889,0.7453410625457764,-0.015959350392222404,0.9273544549942017,0.4938879609107971,0.7145159244537354,0.039144229143857956,0.8459109663963318,0.44051724672317505,0.4575178027153015,-0.025558749213814735,0.5806605219841003,0.5295547246932983,0.48959892988204956,0.12571404874324799,0.487229585647583,-179.949508641026,0.4894936680793762,0.610921323299408,34.20915162516176,30.253593278635087,0.44683873116746614,-0.013782239964678613,0.05160417969756061,-0.0010875870709063148,-0.011550594268739849,-0.9362344935210739,0.8334079217941076,81,1762115126.6324322
0.48812857270240784,0.3252507448196411,0.1759631335735321,0.9980394840240479,0.448570191860199,0.4082760214805603,0.015147536993026733,0.9998391270637512,0.5293868184089661,0.4099879264831543,0.03119415044784546,0.9997696876525879,0.4628080725669861,0.6095910668373108,-0.006217905320227146,0.9999054670333862,0.5151472091674805,0.6131373643875122,0.005805430468171835,0.9997729063034058,0.4529411792755127,0.6303517818450928,0.1697331964969635,0.7420752644538879,0.5129761099815369,0.6374742984771729,0.20082679390907288,0.4622132480144501,0.46934837102890015,0.743306577205658,-0.05599067732691765,0.9235163331031799,0.49325066804885864,0.7255903482437134,-0.05118290334939957,0.8485574126243591,0.4398508071899414,0.46309036016464233,-0.015287655405700207,0.582168459892273,0.5308680534362793,0.4830513000488281,0.13201358914375305,0.45085763931274414,179.99975513859175,0.4889776408672333,0.6113642156124115,33.25702378419291,26.810532885309595,0.46923616215469766,-0.006738528739640218,0.005783498446421789,0.09198013090538254,-0.5983482464005448,1.2134912011881565,0.0005206037512677901,82,1762115126.7090108
0.48695334792137146,0.3257500231266022,0.16349950432777405,0.9976750612258911,0.4485601782798767,0.4095584750175476,-0.01502781081944704,0.9998143315315247,0.5294145345687866,0.4138363003730774,0.024306099861860275,0.999705970287323,0.46341460943222046,0.61775803565979,-0.015020735561847687,0.9999045133590698,0.5154097080230713,0.6190495491027832,0.01460767351090908,0.9997732043266296,0.45186272263526917,0.6377882361412048,0.16603168845176697,0.7161585688591003,0.5130825638771057,0.6367021203041077,0.20624300837516785,0.43244293332099915,0.4706973433494568,0.7373125553131104,-4.3747386371251196e-05,0.9183179140090942,0.49305811524391174,0.7258266806602478,0.052990663796663284,0.8360723853111267,0.4392440915107727,0.4635467529296875,0.10744243860244751,0.5557518005371094,0.531558632850647,0.48936402797698975,0.22004437446594238,0.41718053817749023,-179.88225161731617,0.4894121587276459,0.6184037923812866,37.17252981790568,36.089073591260124,0.42835901156952544,0.006833392699799404,0.11070705461089968,0.21343718483390772,1.650067645206855,3.0285693221190093,0.7128584530363674,83,1762115126.7725983
0.4869140088558197,0.3263489603996277,0.15759597718715668,0.9975889325141907,0.4467860758304596,0.412153035402298,-0.01848275028169155,0.9997849464416504,0.5289892554283142,0.4161548316478729,0.020134834572672844,0.9996417760848999,0.4632697105407715,0.6189911365509033,-0.01583912782371044,0.9998974204063416,0.5153716802597046,0.6194323897361755,0.015389615669846535,0.9997674226760864,0.44990769028663635,0.6337572336196899,0.16606512665748596,0.6729292869567871,0.5122251510620117,0.6360918879508972,0.2016943395137787,0.40158751606941223,0.46697789430618286,0.7380216717720032,-0.01777472160756588,0.9043934345245361,0.4958711564540863,0.730717658996582,0.03274006024003029,0.8158459067344666,0.4391571879386902,0.46352848410606384,0.129228875041008,0.5238871574401855,0.5317168235778809,0.49255940318107605,0.21828818321228027,0.3889962136745453,-179.59959967713124,0.48932069540023804,0.6192117631435394,34.10128248019545,34.81402608356705,0.43479309484508116,-0.0011414251412555454,0.010083146629058029,-0.09952248446117039,-1.255745462547183,2.787059626374859,3.99056249518256,84,1762115126.852729
0.48638448119163513,0.32641729712486267,0.11207058280706406,0.9976054430007935,0.4445990025997162,0.4140084981918335,-0.05009970813989639,0.9997600317001343,0.5288096070289612,0.4175899624824524,-0.017071165144443512,0.9995525479316711,0.4634648859500885,0.6260019540786743,-0.015780584886670113,0.9998856782913208,0.5161411166191101,0.6241359114646912,0.015331794507801533,0.9997475147247314,0.4479143023490906,0.629930853843689,0.1868935525417328,0.6379709243774414,0.511570155620575,0.6292321681976318,0.23169191181659698,0.37244659662246704,0.469020277261734,0.7281195521354675,0.049181465059518814,0.8932757377624512,0.5011284947395325,0.7304842472076416,0.10329599678516388,0.7950950264930725,0.4424189031124115,0.46726852655410767,0.09484919905662537,0.4869709014892578,0.5302804708480835,0.49407750368118286,0.20250821113586426,0.3585570156574249,-179.15167244073368,0.4898030012845993,0.6250689327716827,36.50941764343739,39.886586738708296,0.4044769967848655,0.005365796565571901,0.065162756030408,0.07239477895267764,0.6127770540270441,2.4353132367923203,0.5810247965848655,85,1762115126.9426143
0.4862046241760254,0.3270726203918457,0.08754421770572662,0.9976351857185364,0.4444860517978668,0.41371017694473267,-0.062007836997509,0.9997419118881226,0.5284169912338257,0.4166463613510132,-0.03496699780225754,0.9994809627532959,0.46368861198425293,0.6237281560897827,-0.014828880317509174,0.9998854398727417,0.5166307687759399,0.6210243105888367,0.01441058050841093,0.9997457265853882,0.4488808214664459,0.6279382705688477,0.1914643943309784,0.6192077994346619,0.5102116465568542,0.6292418241500854,0.2291731834411621,0.35468044877052307,0.4712069034576416,0.7295032143592834,0.07238094508647919,0.8886674046516418,0.5036309957504272,0.7303159236907959,0.11921222507953644,0.7857257127761841,0.4426070749759674,0.4678662121295929,0.08445490896701813,0.4535204768180847,0.5308389663696289,0.49518683552742004,0.17982256412506104,0.3326406478881836,-178.974701573973,0.49015969038009644,0.6223762333393097,41.56949903214354,44.96994194197991,0.4029232970897529,0.004337582304795206,-0.03274505881295538,-0.012503785619986647,-1.1906257032440002,2.0035805259401998,0.4709553984699194,86,1762115127.0248466
