nose_x,nose_y,nose_z,nose_visibility,left_shoulder_x,left_shoulder_y,left_shoulder_z,left_shoulder_visibility,right_shoulder_x,right_shoulder_y,right_shoulder_z,right_shoulder_visibility,left_hip_x,left_hip_y,left_hip_z,left_hip_visibility,right_hip_x,right_hip_y,right_hip_z,right_hip_visibility,left_knee_x,left_knee_y,left_knee_z,left_knee_visibility,right_knee_x,right_knee_y,right_knee_z,right_knee_visibility,left_ankle_x,left_ankle_y,left_ankle_z,left_ankle_visibility,right_ankle_x,right_ankle_y,right_ankle_z,right_ankle_visibility,left_wrist_x,left_wrist_y,left_wrist_z,left_wrist_visibility,right_wrist_x,right_wrist_y,right_wrist_z,right_wrist_visibility,trunk_lateral_inclination,center_mass_x,center_mass_y,left_knee_angle,right_knee_angle,person_height,center_mass_velocity_x,center_mass_velocity_y,center_mass_acceleration_x,center_mass_acceleration_y,body_orientation,torso_leg_ratio,frame,timestamp
0.5023710131645203,0.25670579075813293,-0.2627949118614197,0.9999918937683105,0.5560386180877686,0.37663015723228455,-0.15911786258220673,0.9999828338623047,0.44083207845687866,0.366759717464447,-0.14064763486385345,0.9999368190765381,0.5257790684700012,0.6332743763923645,-0.006924817804247141,0.9998900890350342,0.4641038775444031,0.6314195990562439,0.006724458187818527,0.9997900128364563,0.5197044014930725,0.8233451843261719,0.020513493567705154,0.9885099530220032,0.4654269814491272,0.8160699605941772,0.06805241852998734,0.9824449419975281,0.5240266919136047,0.9543600082397461,0.1777169108390808,0.9727598428726196,0.4669051170349121,0.9303646683692932,0.21625328063964844,0.9459691047668457,0.5769989490509033,0.6638543009757996,-0.11270508915185928,0.9800019264221191,0.4048912525177002,0.635982096195221,-0.09323965013027191,0.9425608515739441,179.23203244196748,0.49494147300720215,0.6323469877243042,137.91779248503107,146.011384150493,0.8255726722152521,0.0,0.0,0.0,0.0,-175.10308305208775,1.2042808512569243,0,1762115104.9922285
0.5032141804695129,0.2560393512248993,-0.30391520261764526,0.9999920129776001,0.5561050176620483,0.3777127265930176,-0.16731634736061096,0.9999818205833435,0.4408792555332184,0.3665412366390228,-0.15591676533222198,0.9999384880065918,0.5258370637893677,0.6384378671646118,-0.0068290503695607185,0.9998677968978882,0.4639595150947571,0.6336312890052795,0.006643219385296106,0.9997755885124207,0.5202218890190125,0.8252919316291809,0.039618268609046936,0.9882090091705322,0.4654827117919922,0.8194637894630432,0.07111366093158722,0.9824361205101013,0.5247542858123779,0.954114556312561,0.24661071598529816,0.971419632434845,0.4669017791748047,0.9386749863624573,0.24507680535316467,0.9458049535751343,0.5774484872817993,0.6647976636886597,-0.12521439790725708,0.9803963899612427,0.40491217374801636,0.637948751449585,-0.12228630483150482,0.9449339509010315,179.21980439394528,0.4948982894420624,0.6360345780849457,135.7745852589751,143.55370256686237,0.8825418284563297,-0.0006267474532166981,0.05352008014062673,-0.009096339518106417,0.7767671292428554,-174.46230695262543,1.2073129355346761,1,1762115105.0611296
0.503740131855011,0.2560408115386963,-0.3079376220703125,0.9999921321868896,0.5560587048530579,0.37789422273635864,-0.16961190104484558,0.9999809861183167,0.44102412462234497,0.36607232689857483,-0.1604950726032257,0.9999402165412903,0.5258492231369019,0.6400400996208191,-0.006823291536420584,0.9998515248298645,0.46381205320358276,0.6346200108528137,0.006640459410846233,0.9997646808624268,0.5203322768211365,0.8263983130455017,0.039991218596696854,0.987852156162262,0.46548762917518616,0.8210852146148682,0.07585042715072632,0.9820852875709534,0.5251870155334473,0.9543060064315796,0.23841598629951477,0.969841718673706,0.4669179320335388,0.9421758651733398,0.2517075836658478,0.9446043372154236,0.5776658654212952,0.6651880145072937,-0.12596318125724792,0.9805637001991272,0.4050021767616272,0.6385654211044312,-0.12568482756614685,0.9474472999572754,179.19879194628015,0.4948306381702423,0.6373300552368164,136.81884811963147,144.91259257572838,0.8860070294971462,-0.0009718297799469133,0.0186098981077147,-0.004957205868084077,-0.5014947037978288,-174.13241491383806,1.1804523719945816,2,1762115105.1307418
0.504146933555603,0.2563949525356293,-0.3078635334968567,0.9999920725822449,0.5559887886047363,0.3778979480266571,-0.16872410476207733,0.9999801516532898,0.44112008810043335,0.36583206057548523,-0.1609468311071396,0.9999417066574097,0.5260223746299744,0.6409199237823486,-0.006603685673326254,0.9998356699943542,0.4637623727321625,0.6352883577346802,0.006437283009290695,0.9997533559799194,0.5205680131912231,0.8267650008201599,0.03696388751268387,0.9871631264686584,0.46556147933006287,0.8216758966445923,0.07508992403745651,0.9812161326408386,0.5254159569740295,0.9543047547340393,0.23970845341682434,0.9669479727745056,0.46693333983421326,0.9431066513061523,0.25248080492019653,0.9417550563812256,0.5779353380203247,0.6651767492294312,-0.12424185127019882,0.9805244207382202,0.4050315320491791,0.6396645903587341,-0.12314257770776749,0.949790894985199,179.2119580090027,0.4948923736810684,0.6381041407585144,135.2822872360107,144.6123980547078,0.8866946365860635,0.0008159238077232122,0.01023065652030061,0.023627741878272466,-0.11074376174018773,-174.00360117225785,1.1771712842827493,3,1762115105.2064052
0.5045204758644104,0.2567627727985382,-0.2983701229095459,0.9999921917915344,0.5558254718780518,0.37802332639694214,-0.16492334008216858,0.9999793767929077,0.44113221764564514,0.36583074927330017,-0.15892532467842102,0.9999433159828186,0.5261256694793701,0.6416678428649902,-0.005610258784145117,0.9998210668563843,0.4636525511741638,0.6360380053520203,0.005471224896609783,0.9997451901435852,0.5206737518310547,0.8273996114730835,0.03577163442969322,0.9858074188232422,0.46567481756210327,0.8220118284225464,0.07020745426416397,0.9799177646636963,0.5255213975906372,0.9542728066444397,0.22952742874622345,0.9620981812477112,0.46691399812698364,0.9451184868812561,0.24379423260688782,0.9369949698448181,0.5783000588417053,0.6651821732521057,-0.12080495059490204,0.9807435870170593,0.40502530336380005,0.6415595412254333,-0.12206367403268814,0.9521458745002747,179.22950809552327,0.49488911032676697,0.6388529241085052,135.6902382561989,144.535070154111,0.8754901628449638,-4.682753099597668e-05,0.010744673207980952,-0.012380057855719028,0.007375886940650609,-173.93190678342862,1.179121966628976,4,1762115105.276094
0.5047985911369324,0.2569950520992279,-0.2957409918308258,0.9999920725822449,0.5558937788009644,0.37827715277671814,-0.16487061977386475,0.9999785423278809,0.441132128238678,0.36670225858688354,-0.1573491394519806,0.9999436736106873,0.5264127850532532,0.6426989436149597,-0.005619116593152285,0.9998044967651367,0.46369943022727966,0.6375153064727783,0.005479160696268082,0.9997310042381287,0.5210418701171875,0.8273564577102661,0.03596407547593117,0.9854021072387695,0.46619176864624023,0.8218614459037781,0.0709507167339325,0.9796632528305054,0.5258609056472778,0.9542615413665771,0.22502736747264862,0.960972249507904,0.46691614389419556,0.9447652101516724,0.2404204159975052,0.9359768033027649,0.5785768032073975,0.6651890873908997,-0.12379787117242813,0.9809183478355408,0.4050697684288025,0.6428484320640564,-0.11933118104934692,0.9538112282752991,179.25994479288414,0.4950561076402664,0.640107125043869,136.47229618796572,145.49851997959098,0.8711644454311256,0.0024925182196031542,0.018719574686138867,0.03790100221738597,0.1190293832715705,-174.24060766243983,1.2467411407069937,5,1762115105.3430934
0.5049150586128235,0.2570423185825348,-0.28160375356674194,0.9999919533729553,0.5559502840042114,0.37856414914131165,-0.15763452649116516,0.9999778270721436,0.44114822149276733,0.36730748414993286,-0.14811921119689941,0.9999439120292664,0.5266270637512207,0.6435403823852539,-0.005685302894562483,0.9997938871383667,0.4638208746910095,0.6386190056800842,0.005546686239540577,0.9997212886810303,0.5212732553482056,0.8270317316055298,0.035248368978500366,0.9851647019386292,0.466905415058136,0.8217915296554565,0.07202395051717758,0.9793541431427002,0.5263525247573853,0.9544209837913513,0.2148912250995636,0.9602072238922119,0.46709877252578735,0.9442245364189148,0.23971228301525116,0.9349286556243896,0.5788182020187378,0.6651755571365356,-0.12190413475036621,0.9810405373573303,0.4052497446537018,0.6436100006103516,-0.11254490911960602,0.9551804065704346,179.28950476969678,0.4952239692211151,0.6410796940326691,137.817049962419,146.0696464941348,0.8592462346967799,0.0026463441219916482,0.0153325866093343,0.002425071124301995,-0.053395994145835575,-174.39988909972234,1.2608601916395898,6,1762115105.406525
0.5050276517868042,0.25708943605422974,-0.2799897789955139,0.9999917149543762,0.5560594797134399,0.37877434492111206,-0.15578822791576385,0.9999769330024719,0.4411836564540863,0.36771413683891296,-0.14715565741062164,0.9999439120292664,0.526807427406311,0.6442070603370667,-0.005692890379577875,0.9997827410697937,0.4639096260070801,0.6393756866455078,0.005553694907575846,0.9997115731239319,0.521347165107727,0.8270187377929688,0.03464662656188011,0.9848668575286865,0.46707653999328613,0.8217198848724365,0.0722694993019104,0.9789326190948486,0.5266255140304565,0.9544724225997925,0.2144046127796173,0.9592404365539551,0.467243492603302,0.9438644647598267,0.2381710559129715,0.9336984157562256,0.5790144801139832,0.6651608347892761,-0.11982083320617676,0.9809306263923645,0.40548986196517944,0.6439338326454163,-0.11216453462839127,0.9563120603561401,179.30384920729975,0.49535852670669556,0.6417913734912872,137.67543891974645,146.44643109198336,0.8575289345667825,0.0015531475748194014,0.008214654282765738,-0.01261836573949981,-0.08215967534655887,-174.5005315416192,1.1980395641594086,7,1762115105.4931602
0.5050799250602722,0.2572128176689148,-0.2913857102394104,0.9999914765357971,0.5560611486434937,0.37905824184417725,-0.15837541222572327,0.9999753832817078,0.44106608629226685,0.36859774589538574,-0.15376786887645721,0.9999445080757141,0.5270676016807556,0.6442665457725525,-0.005436009261757135,0.9997683167457581,0.4639936089515686,0.6395465135574341,0.005292312707751989,0.9997014999389648,0.5216182470321655,0.8269903659820557,0.0371469147503376,0.984657883644104,0.4671613276004791,0.8216558694839478,0.07227490097284317,0.9788224697113037,0.5267736911773682,0.9544930458068848,0.22796626389026642,0.9586489200592041,0.4672529697418213,0.943580687046051,0.24034881591796875,0.9334772229194641,0.5791926980018616,0.664650559425354,-0.12061898410320282,0.9803675413131714,0.40549224615097046,0.6448657512664795,-0.11729488521814346,0.9575295448303223,179.35178927789147,0.4955306053161621,0.6419065296649933,136.7714594853689,146.13954620904994,0.868839048477431,0.0020724101692384555,0.0013868709549597147,0.006253683037741887,-0.08222967192591328,-174.80240878463465,1.1556343280135384,8,1762115105.5761933
0.5050956010818481,0.2577129304409027,-0.2983001470565796,0.9999913573265076,0.5560284852981567,0.37919825315475464,-0.15891700983047485,0.9999743700027466,0.44100698828697205,0.3689737021923065,-0.15647907555103302,0.9999455213546753,0.5271944403648376,0.6443051099777222,-0.004862145986407995,0.9997574090957642,0.4640115201473236,0.639653742313385,0.004715644754469395,0.9996944665908813,0.5217097401618958,0.8272924423217773,0.0380123071372509,0.9844046235084534,0.46718630194664,0.8216640949249268,0.07188893854618073,0.9785787463188171,0.5267982482910156,0.9544621109962463,0.2405533492565155,0.9577189683914185,0.46727681159973145,0.9433767795562744,0.24597445130348206,0.9327337741851807,0.5792926549911499,0.6643126010894775,-0.12049927562475204,0.9799708127975464,0.4055062234401703,0.6454043388366699,-0.12041158974170685,0.9587295651435852,179.37663030100225,0.4956029802560806,0.6419794261455536,135.22069922925806,145.2043891652059,0.8781360919748474,0.0009101941747572816,0.0009167531198090635,-0.014616139635866457,-0.005912246911505116,-174.92018560555834,1.125167547770786,9,1762115105.6557093
0.5051037073135376,0.2580653429031372,-0.30118030309677124,0.999991238117218,0.5559400320053101,0.37934422492980957,-0.15894600749015808,0.9999732971191406,0.4409472942352295,0.36921751499176025,-0.1577979028224945,0.9999463558197021,0.5272753834724426,0.6443769931793213,-0.004454657901078463,0.9997459053993225,0.4640139937400818,0.6396873593330383,0.0043091303668916225,0.9996857047080994,0.5217369794845581,0.8275349736213684,0.03786777704954147,0.9840313792228699,0.46721798181533813,0.8216474056243896,0.07163254916667938,0.9780406355857849,0.526767373085022,0.954643189907074,0.24175646901130676,0.9562539458274841,0.4672836661338806,0.9432337284088135,0.2485181838274002,0.9310560822486877,0.5794274210929871,0.6638516783714294,-0.11899794638156891,0.9795159697532654,0.4055156111717224,0.6456630229949951,-0.12192170321941376,0.9597642421722412,179.40107263125591,0.4956446886062622,0.6420321762561798,134.86279934191006,144.79501220340288,0.8808143233396738,0.0004975964615362735,0.0006293288581058979,-0.0049224474533976,-0.003429080626793435,-174.96729288893135,1.0980508962299693,10,1762115105.739529
0.5050399303436279,0.25824543833732605,-0.26804274320602417,0.9999910593032837,0.5558155179023743,0.3795526325702667,-0.14639124274253845,0.999972403049469,0.4409274160861969,0.3695967495441437,-0.14036007225513458,0.9999468326568604,0.5272805094718933,0.6457986235618591,-0.0044510988518595695,0.9997381567955017,0.46399182081222534,0.6412414312362671,0.004307794384658337,0.999679446220398,0.5217370390892029,0.8284705877304077,0.026490245014429092,0.9832522869110107,0.4672471582889557,0.8243016004562378,0.06684739142656326,0.9771422743797302,0.5265978574752808,0.9563524723052979,0.2053411453962326,0.9536296129226685,0.4671967625617981,0.9450974464416504,0.22556456923484802,0.9273877143859863,0.5796451568603516,0.6647548079490662,-0.11153607070446014,0.9793918132781982,0.4055137634277344,0.6462703347206116,-0.1035306453704834,0.9609740376472473,179.4172947907553,0.4956361651420593,0.6435200273990631,135.08420457282097,146.12107611872094,0.8446077107414541,-0.00010289694475225582,0.01796163311122944,-0.007249275104608354,0.2092390031461801,-175.04727998333962,1.1367670905447642,11,1762115105.8223639
0.5049601197242737,0.2584313750267029,-0.2696154713630676,0.9999909996986389,0.5557389855384827,0.3800441026687622,-0.1479686200618744,0.9999716281890869,0.44084978103637695,0.36996588110923767,-0.1405751258134842,0.9999475479125977,0.5272899270057678,0.6465567946434021,-0.004409607034176588,0.9997320771217346,0.463981568813324,0.6418124437332153,0.004267667420208454,0.9996763467788696,0.5217349529266357,0.8287753462791443,0.02611750364303589,0.9824363589286804,0.4672582745552063,0.8249690532684326,0.0653955414891243,0.9763332009315491,0.5265892148017883,0.9572073221206665,0.2065991908311844,0.9512361884117126,0.46708425879478455,0.9455143213272095,0.22316524386405945,0.9243176579475403,0.5797539353370667,0.6656004190444946,-0.11220961809158325,0.9792824387550354,0.4054598808288574,0.6468674540519714,-0.10149972140789032,0.9620841145515442,179.4341190120894,0.4956357479095459,0.6441846191883087,134.85219516393468,145.82228896413937,0.8455502455894024,-6.65976588068744e-06,0.010608055652809279,0.0015361148991891631,-0.11737604976238532,-174.9867767913785,1.1356239346409265,12,1762115105.8850136
0.5047873258590698,0.25889524817466736,-0.2725844383239746,0.9999909996986389,0.5556660890579224,0.38038867712020874,-0.14968059957027435,0.9999712109565735,0.4409657418727875,0.3700048327445984,-0.14199119806289673,0.9999482035636902,0.5273003578186035,0.6468070149421692,-0.004475505091249943,0.9997248649597168,0.46399688720703125,0.6419734358787537,0.00433566328138113,0.9996715188026428,0.5217100381851196,0.8291194438934326,0.024771997705101967,0.9818686246871948,0.46725744009017944,0.825018048286438,0.06571900844573975,0.9757139682769775,0.5266004800796509,0.9587641358375549,0.20169594883918762,0.9495621919631958,0.46707281470298767,0.9459474086761475,0.22302670776844025,0.9221023917198181,0.5799100995063782,0.6663090586662292,-0.11242648214101791,0.9793379306793213,0.40557318925857544,0.6470950841903687,-0.10286159813404083,0.9629612565040588,179.43230559192102,0.4956486225128174,0.6443902254104614,135.24959471576182,146.0737348425773,0.8462405735478818,0.00018186104469066785,0.0029043040447243457,0.0026629629537691635,-0.10881984368301306,-174.82710322846728,1.1331337779963309,13,1762115105.9558072
0.5042454600334167,0.26067304611206055,-0.28796645998954773,0.9999910593032837,0.555658757686615,0.3807721734046936,-0.15323889255523682,0.999971330165863,0.4414159655570984,0.37007659673690796,-0.14509662985801697,0.9999490976333618,0.5273011922836304,0.6473075151443481,-0.004522026050835848,0.9997183680534363,0.4640142023563385,0.6430212259292603,0.004388334229588509,0.9996642470359802,0.5217543244361877,0.8309195637702942,0.021671678870916367,0.9812235236167908,0.46735602617263794,0.8266860246658325,0.06693525612354279,0.9747377634048462,0.5265976786613464,0.9604323506355286,0.20363907516002655,0.9471965432167053,0.4670727849006653,0.9473874568939209,0.2409447729587555,0.9183335900306702,0.5800116658210754,0.6665161848068237,-0.11832740157842636,0.979374349117279,0.4056326448917389,0.6472035646438599,-0.10997320711612701,0.9636197686195374,179.3883504407042,0.49565769731998444,0.6451643705368042,133.4701110590521,143.53761143340955,0.8608111702244152,0.00013617970533305666,0.011617090396490901,-0.0006855100299568018,0.13074709535659806,-174.65147584009466,1.2624256924025465,14,1762115106.0224457
0.5036326050758362,0.2627970278263092,-0.27406543493270874,0.9999912977218628,0.5556570887565613,0.38170450925827026,-0.14806252717971802,0.9999716281890869,0.4415433406829834,0.370216965675354,-0.14165809750556946,0.9999505877494812,0.527299165725708,0.6481971144676208,-0.004529864527285099,0.9997166991233826,0.4640457034111023,0.6443678736686707,0.00439550681039691,0.9996654987335205,0.5217175483703613,0.8316417932510376,0.022105030715465546,0.980742335319519,0.46744632720947266,0.8275293111801147,0.06888095289468765,0.9741417765617371,0.5265958309173584,0.9612078070640564,0.20130555331707,0.9453672170639038,0.4670740067958832,0.9486280679702759,0.23789528012275696,0.9155759215354919,0.5800198316574097,0.6669102311134338,-0.11561480909585953,0.9796251058578491,0.40565747022628784,0.6474990248680115,-0.10994410514831543,0.9645105004310608,179.37946952799,0.49567243456840515,0.6462824940681458,134.03603887981342,144.99933600301057,0.8501667690854207,0.00020449026717304716,0.015514794426285911,0.0009478597796970963,0.05408353823322173,-174.25154416957912,1.2989373312033847,15,1762115106.094514
0.5026892423629761,0.2649059295654297,-0.29647308588027954,0.9999913573265076,0.5561171770095825,0.38253724575042725,-0.15987877547740936,0.9999716877937317,0.44215789437294006,0.37030190229415894,-0.1486312448978424,0.9999516606330872,0.527262806892395,0.6481321454048157,-0.004536041524261236,0.9997085332870483,0.46404629945755005,0.6442919373512268,0.0044019585475325584,0.9996576309204102,0.521755039691925,0.8315883278846741,0.022891290485858917,0.9808628559112549,0.4674663543701172,0.8274337649345398,0.06989385187625885,0.9744454026222229,0.5266918540000916,0.9613615870475769,0.21466751396656036,0.945853054523468,0.46715807914733887,0.9478920102119446,0.24714243412017822,0.9163386225700378,0.5800570845603943,0.667169451713562,-0.12395408004522324,0.9795961976051331,0.40591415762901306,0.6467834115028381,-0.11334315687417984,0.964546263217926,179.26036069562687,0.49565455317497253,0.6462120413780212,132.50324351433193,143.86065327548712,0.8682601696421772,-0.00022324484899718413,-0.0008795847050489055,-0.0053401689180461185,-0.20467983702552772,-173.87186110665053,1.5043529282711041,16,1762115106.1746116
0.501996636390686,0.2659473717212677,-0.3038010001182556,0.9999914169311523,0.5564843416213989,0.38329750299453735,-0.16492775082588196,0.9999716877937317,0.44259530305862427,0.37036412954330444,-0.15257397294044495,0.9999526143074036,0.5272477865219116,0.648085355758667,-0.004541120491921902,0.9997034668922424,0.46405911445617676,0.6442651748657227,0.004407244734466076,0.9996533393859863,0.5217908024787903,0.8315610289573669,0.02500331401824951,0.9810127019882202,0.46753746271133423,0.8273642063140869,0.07196994870901108,0.9747863411903381,0.5267333984375,0.9613966345787048,0.22770735621452332,0.9464176297187805,0.46726536750793457,0.9473068118095398,0.2548706531524658,0.9173020720481873,0.580090343952179,0.6675506830215454,-0.12623772025108337,0.9795137047767639,0.4061000943183899,0.6462291479110718,-0.11600246280431747,0.9645395874977112,179.17333639433937,0.4956534504890442,0.6461752653121948,131.70766673816496,143.49358139144323,0.8780937518302114,-1.6664744966346222e-05,-0.0005557917645532767,0.0031220174850358144,0.004893439406960559,-173.5211792088089,1.6635082815345696,17,1762115106.2407804
0.49956783652305603,0.2680841386318207,-0.293966144323349,0.9999914169311523,0.5569408535957336,0.3833850026130676,-0.16452571749687195,0.9999718070030212,0.4430656433105469,0.37034860253334045,-0.14928536117076874,0.9999539256095886,0.5272764563560486,0.6480443477630615,-0.004650813993066549,0.9996999502182007,0.4641180634498596,0.6442155241966248,0.00451448280364275,0.9996516704559326,0.5217355489730835,0.8315543532371521,0.02481335774064064,0.9809129238128662,0.4675239026546478,0.8271802067756653,0.07191724330186844,0.974854588508606,0.5267656445503235,0.9613476395606995,0.21842236816883087,0.9462893605232239,0.46726417541503906,0.946590781211853,0.25035449862480164,0.9171762466430664,0.5800917148590088,0.6678305864334106,-0.12534256279468536,0.9797965288162231,0.4063231348991394,0.6454127430915833,-0.11385653167963028,0.9652811884880066,179.0838183476557,0.4956972599029541,0.6461299359798431,132.87134513913747,143.99788965209203,0.8657964015213908,0.0006078398941448892,-0.0006289282170029772,0.00866477772359514,-0.0010147420279708512,-173.46922714014846,1.8045499615913732,18,1762115106.3128543
0.4958173334598541,0.27009686827659607,-0.2846028208732605,0.9999910593032837,0.5571948289871216,0.38338401913642883,-0.16347438097000122,0.9999710321426392,0.4438886046409607,0.3699614703655243,-0.1381913125514984,0.9999548196792603,0.5272690057754517,0.6480313539505005,-0.006261023692786694,0.9996913075447083,0.46443629264831543,0.6438325643539429,0.006126258987933397,0.9996472597122192,0.5217188596725464,0.8318981528282166,0.024996206164360046,0.9806301593780518,0.4677027761936188,0.8264714479446411,0.07321084290742874,0.9749842882156372,0.526795506477356,0.9613053202629089,0.2124878615140915,0.9460598826408386,0.4673589766025543,0.9468628168106079,0.2436968982219696,0.9176523089408875,0.5800832509994507,0.6678863763809204,-0.12740126252174377,0.979632556438446,0.4067212641239166,0.6415721774101257,-0.09736750274896622,0.9655069708824158,179.0023122156757,0.49585264921188354,0.6459319591522217,134.16871707018268,145.38042438969683,0.8548078417698672,0.002427627462081707,-0.003092966864328496,0.028430310331608758,-0.03849536322086479,-173.24407898734486,1.980662686874192,19,1762115106.376863
0.4929742217063904,0.2721940577030182,-0.28873956203460693,0.999989926815033,0.5589286684989929,0.38339725136756897,-0.17465899884700775,0.9999683499336243,0.446115106344223,0.36850595474243164,-0.1391056329011917,0.999954879283905,0.5273720026016235,0.6477290391921997,-0.009623696096241474,0.9996731281280518,0.4652276039123535,0.6425751447677612,0.009493713267147541,0.999635636806488,0.5217563509941101,0.8316650390625,0.026064205914735794,0.980031430721283,0.4679393172264099,0.8246068358421326,0.08277775347232819,0.9748583436012268,0.5268915295600891,0.960267186164856,0.2125624120235443,0.9453616738319397,0.4673914909362793,0.9454189538955688,0.2491302490234375,0.9178537726402283,0.5800830125808716,0.6686677932739258,-0.1351771354675293,0.9786431789398193,0.40731924772262573,0.6397761702537537,-0.09895263612270355,0.9650372862815857,178.67594705645706,0.4962998032569885,0.6451520919799805,135.47089387516573,147.90262908418512,0.8563118263933827,0.006940435484109715,-0.012104593158369968,0.07004488335044541,-0.13987262686177349,-172.48047638795956,2.7115304254865595,20,1762115106.4412904
0.48994016647338867,0.27244290709495544,-0.3047105371952057,0.9999886751174927,0.5602447986602783,0.3828139901161194,-0.18776920437812805,0.9999668598175049,0.44763559103012085,0.3668857514858246,-0.1390240490436554,0.9999545812606812,0.5277887582778931,0.6465696096420288,-0.011544822715222836,0.9996531009674072,0.4662981927394867,0.6399825215339661,0.011415885761380196,0.999619722366333,0.5218003392219543,0.8316469788551331,0.020309381186962128,0.9791887402534485,0.4681524634361267,0.8215790390968323,0.0808931440114975,0.9744032621383667,0.5268996953964233,0.9587218165397644,0.22188954055309296,0.9444305896759033,0.4674069881439209,0.944210410118103,0.25801777839660645,0.9177730679512024,0.5798847675323486,0.6684463620185852,-0.14661091566085815,0.9781054258346558,0.4082505702972412,0.6367351412773132,-0.08878716081380844,0.9640612602233887,178.52821371151296,0.4970434755086899,0.6432760655879974,131.9010812005701,145.62336141447682,0.8705076861443388,0.00945202604832698,-0.023844173671674716,0.031922153047129205,-0.14920930632322274,-171.94909054506206,3.166624397188005,21,1762115106.519969
0.4890035092830658,0.27258238196372986,-0.30104225873947144,0.9999881386756897,0.5605471134185791,0.3821295499801636,-0.18309980630874634,0.9999662637710571,0.44823259115219116,0.3658654987812042,-0.13827718794345856,0.9999549388885498,0.5281978845596313,0.6454370617866516,-0.012176505289971828,0.9996384382247925,0.4671045243740082,0.638518214225769,0.012042185291647911,0.9996091723442078,0.5218969583511353,0.8316033482551575,0.018980614840984344,0.9786840081214905,0.4683506488800049,0.8196995258331299,0.07982032001018524,0.9739837050437927,0.5269055366516113,0.9583480954170227,0.22171060740947723,0.9438387751579285,0.46741288900375366,0.9436898231506348,0.25465792417526245,0.9178885221481323,0.5796107053756714,0.6675505042076111,-0.14593689143657684,0.9781134724617004,0.4088272154331207,0.6355511546134949,-0.09178834408521652,0.9639236927032471,178.55953963948983,0.49765120446681976,0.6419776380062103,131.42040397780042,145.84612882577426,0.8666648427764948,0.008724940185041297,-0.018641045212920714,-0.010438503187470157,0.07469939348852389,-171.76038239964112,3.309083350480021,22,1762115106.5896232
0.4880308210849762,0.27422577142715454,-0.33499830961227417,0.9999874234199524,0.5611632466316223,0.381448358297348,-0.19962701201438904,0.9999669790267944,0.44916725158691406,0.3645811676979065,-0.14596512913703918,0.9999555945396423,0.5286062359809875,0.645200788974762,-0.012431664392352104,0.999636709690094,0.46782994270324707,0.6376844048500061,0.012309650890529156,0.9996039271354675,0.5221379995346069,0.8310655355453491,0.023211542516946793,0.9783112406730652,0.4687736928462982,0.8185558915138245,0.08771154284477234,0.9737626910209656,0.5269051194190979,0.9578080773353577,0.2584179639816284,0.9438351988792419,0.4674144685268402,0.94251948595047,0.2952907979488373,0.9187613725662231,0.5792306065559387,0.6662649512290955,-0.16587510704994202,0.9784057140350342,0.4103354513645172,0.6319748163223267,-0.10090889781713486,0.9634872674942017,178.51746336620735,0.4982180893421173,0.641442596912384,129.0935144010696,143.4690633761966,0.9117780688124518,0.00992705080245161,-0.009369415821907513,0.021050858276885662,0.16236089547773105,-171.43531934128313,4.074705300884328,23,1762115106.6467283
0.4865305423736572,0.2749563455581665,-0.32142120599746704,0.999986469745636,0.5615153312683105,0.37944120168685913,-0.1963733434677124,0.9999667406082153,0.4500083327293396,0.36356815695762634,-0.13694369792938232,0.9999561905860901,0.5294833779335022,0.6447536945343018,-0.015302948653697968,0.999618411064148,0.4691675305366516,0.6368510723114014,0.015175094828009605,0.9995889067649841,0.5221549272537231,0.8288831114768982,0.01928635500371456,0.9779574871063232,0.4699386954307556,0.8152176737785339,0.08590203523635864,0.97361159324646,0.526835024356842,0.9570384621620178,0.25667446851730347,0.9440880417823792,0.46743568778038025,0.9415923953056335,0.27684545516967773,0.920007586479187,0.5790815949440002,0.6652593612670898,-0.16134372353553772,0.9786624312400818,0.41185012459754944,0.6303104758262634,-0.08496688306331635,0.9634783267974854,178.63085693013463,0.4993254542350769,0.6408023834228516,128.90858068741548,145.11608754598683,0.8948908991255711,0.013004507846733212,-0.007518444372891322,0.03614058431397712,0.021737164403394623,-171.89836383908712,5.907401144679584,24,1762115106.7318807
0.48349300026893616,0.27587202191352844,-0.3169167935848236,0.9999854564666748,0.5615683794021606,0.3784198760986328,-0.20691892504692078,0.9999665021896362,0.45154786109924316,0.3632996380329132,-0.13413920998573303,0.9999562501907349,0.5301268100738525,0.6437931060791016,-0.017087802290916443,0.9996001124382019,0.4707881510257721,0.6354707479476929,0.016966307535767555,0.9995719194412231,0.5221840143203735,0.8283819556236267,0.014450987800955772,0.9780722260475159,0.47119560837745667,0.8144060969352722,0.0860941931605339,0.9739653468132019,0.526849091053009,0.9571083784103394,0.242826908826828,0.9456708431243896,0.4677136540412903,0.9415559768676758,0.2716701626777649,0.9222792983055115,0.5790873169898987,0.6650149822235107,-0.16536906361579895,0.9789239764213562,0.41401761770248413,0.6290977597236633,-0.07423438131809235,0.9628111720085144,178.69971322882085,0.5004574805498123,0.6396319270133972,128.99840211119488,145.52505506749756,0.8851014212917482,0.017568628865750505,-0.018165049693256073,0.07083346671161746,-0.1652313688461661,-172.17479937886142,10.295374923409554,25,1762115106.7963152
0.4799846112728119,0.2784193754196167,-0.3133363127708435,0.9999849200248718,0.5627724528312683,0.3780022859573364,-0.20785200595855713,0.9999653100967407,0.4535151422023773,0.3633711040019989,-0.13070333003997803,0.9999567866325378,0.531385064125061,0.6444327235221863,-0.0176272913813591,0.9995818138122559,0.4723183214664459,0.6354950070381165,0.017502253875136375,0.9995644688606262,0.5228458642959595,0.8281035423278809,0.01633058860898018,0.9779791831970215,0.47281718254089355,0.8139805197715759,0.0919768288731575,0.9744346737861633,0.5268946290016174,0.9570844173431396,0.24499526619911194,0.9469096660614014,0.46804362535476685,0.9415619969367981,0.28602176904678345,0.9245723485946655,0.5792589783668518,0.6641849279403687,-0.1630944162607193,0.9788299202919006,0.4182302951812744,0.6275777220726013,-0.07712198793888092,0.9625497460365295,178.66143330004633,0.5018516927957535,0.6399638652801514,129.79131746050507,145.94752127986484,0.8862725299743376,0.024385438168511915,0.0058057588457288214,0.11922925095727525,0.4192608917174308,-172.37261977927497,17.314721575025647,26,1762115106.8534892
0.47914665937423706,0.27954068779945374,-0.31121939420700073,0.9999849796295166,0.5633209943771362,0.37768614292144775,-0.20509198307991028,0.9999650716781616,0.45403704047203064,0.3633606731891632,-0.13189779222011566,0.9999578595161438,0.5320751070976257,0.644391655921936,-0.017363596707582474,0.9995704293251038,0.47303324937820435,0.6350376009941101,0.017238255590200424,0.9995600581169128,0.523208498954773,0.8279436826705933,0.01659124530851841,0.9783516526222229,0.4735432267189026,0.8142146468162537,0.09053020179271698,0.9751459360122681,0.527170717716217,0.9572573304176331,0.24165110290050507,0.9486238360404968,0.4681066572666168,0.9417662620544434,0.2790532112121582,0.9272215366363525,0.5795764327049255,0.6639184951782227,-0.15906932950019836,0.9791138172149658,0.41947540640830994,0.6268265247344971,-0.08118089288473129,0.9625734090805054,178.69658862957732,0.502554178237915,0.6397146284580231,130.24524181835127,146.29528919931784,0.8808503161475304,0.008694531167006999,-0.0030847576161754466,-0.19420342654135364,-0.11003626243266403,-172.53197254672526,8.29726869728573,27,1762115106.9342854
0.4777645170688629,0.2802031338214874,-0.27137166261672974,0.9999855160713196,0.5633828043937683,0.37675726413726807,-0.19515198469161987,0.999963641166687,0.45467299222946167,0.36346736550331116,-0.1160438284277916,0.9999582171440125,0.5331896543502808,0.6433126926422119,-0.019352395087480545,0.9995399117469788,0.47522419691085815,0.6336171627044678,0.019203070551156998,0.9995473027229309,0.5232258439064026,0.8269790410995483,0.010147109627723694,0.9786259531974792,0.47432589530944824,0.8111562132835388,0.08752133697271347,0.9754886031150818,0.5274006724357605,0.9570447206497192,0.20322780311107635,0.9503699541091919,0.4680935740470886,0.9408882260322571,0.2447134256362915,0.9298401474952698,0.5797632336616516,0.6630233526229858,-0.1442369520664215,0.9793317317962646,0.4227244257926941,0.6252355575561523,-0.06417038291692734,0.963166356086731,178.97078819409654,0.5042069256305695,0.6384649276733398,132.92856524145964,150.54586501806978,0.8324708284431175,0.0231612807302421,-0.01751306390286604,0.20273421660042912,-0.20219547999482626,-173.0301106970425,4.68170885363501,28,1762115107.0056436
0.47562819719314575,0.2832552492618561,-0.3024420142173767,0.9999854564666748,0.5633403062820435,0.3767801821231842,-0.21938951313495636,0.9999619722366333,0.45490798354148865,0.3642410635948181,-0.1393926590681076,0.9999592304229736,0.5350333452224731,0.6392560601234436,-0.021329225972294807,0.9995169043540955,0.4776981472969055,0.6305757164955139,0.021171731874346733,0.9995326399803162,0.523222804069519,0.8269896507263184,0.007861923426389694,0.9789911508560181,0.47490113973617554,0.8112351298332214,0.096894770860672,0.9751893877983093,0.5273990035057068,0.9581776857376099,0.2038114070892334,0.9519888758659363,0.4684484004974365,0.9399803280830383,0.270609587430954,0.9314232468605042,0.5801275968551636,0.6613965630531311,-0.16485054790973663,0.9791649580001831,0.42725592851638794,0.624837338924408,-0.10349246114492416,0.9637377262115479,179.40228547484017,0.5063657462596893,0.6349158883094788,132.44422363832004,149.2768977214359,0.8573466037302123,0.030166109747037442,-0.04959222155961927,0.09788142564027137,-0.448255578723396,-173.4036130911254,2.4211985667208062,29,1762115107.077208
0.4739367961883545,0.2891368269920349,-0.2972043752670288,0.9999853372573853,0.5635011792182922,0.38246482610702515,-0.22416754066944122,0.9999568462371826,0.45539331436157227,0.36799028515815735,-0.1396639049053192,0.9999606013298035,0.5362130403518677,0.6392632126808167,-0.022861015051603317,0.9994800090789795,0.4792303442955017,0.6288290023803711,0.022726820781826973,0.9995233416557312,0.5231896638870239,0.8264385461807251,0.008168289437890053,0.9802942872047424,0.4752632975578308,0.8078879714012146,0.11073853820562363,0.9754990339279175,0.5270323157310486,0.9571659564971924,0.20310120284557343,0.9537896513938904,0.4698590636253357,0.9266596436500549,0.2865847647190094,0.9341731071472168,0.5805271863937378,0.6614978313446045,-0.16708742082118988,0.9788945317268372,0.43222060799598694,0.6192773580551147,-0.10763798654079437,0.9643970727920532,179.6180122225072,0.5077216923236847,0.6340461075305939,133.03682940438603,150.21523842910477,0.8488418559101889,0.022157915447521905,-0.014213344813748446,-0.13086427025949848,0.5781366828511156,-172.3740323545973,2.2071811630121005,30,1762115107.1384027
0.47209611535072327,0.2937760353088379,-0.2732017934322357,0.9999836087226868,0.5632317662239075,0.3841095268726349,-0.2190741002559662,0.9999538064002991,0.4558992385864258,0.3699707090854645,-0.12102983891963959,0.9999600648880005,0.5370243787765503,0.6386141180992126,-0.02606959640979767,0.9994531273841858,0.4807663857936859,0.6272670030593872,0.0259457528591156,0.9994977712631226,0.523433268070221,0.8258426189422607,-0.005537773482501507,0.9813756346702576,0.475181519985199,0.8081591129302979,0.11036466062068939,0.9756355285644531,0.5267543196678162,0.9570814967155457,0.17461839318275452,0.9558386206626892,0.47136467695236206,0.9143953919410706,0.2856038510799408,0.9358717203140259,0.5816659927368164,0.6615478992462158,-0.1637152135372162,0.9786551594734192,0.4362660348415375,0.613172173500061,-0.05356484651565552,0.9637842178344727,179.84996131115824,0.5088953822851181,0.6329405605792999,132.10541773253806,146.24652708277853,0.816190326815878,0.014035063335528623,-0.01322020464660115,-0.09713361075162116,0.011876036777162638,-172.49568555027207,2.6923730406215234,31,1762115107.2220283
0.4715598225593567,0.2956368923187256,-0.2732357382774353,0.9999814629554749,0.5631958246231079,0.386706680059433,-0.22188790142536163,0.9999512434005737,0.4562903046607971,0.37105298042297363,-0.11707782745361328,0.9999601244926453,0.5372774004936218,0.6386814117431641,-0.02703133225440979,0.9994312524795532,0.4808614253997803,0.626882016658783,0.026901226490736008,0.9994770288467407,0.5236421227455139,0.8256829380989075,-0.004852547310292721,0.9820532202720642,0.474526584148407,0.8084973692893982,0.11444606631994247,0.9753944277763367,0.5266019701957703,0.957021176815033,0.17997410893440247,0.9571831226348877,0.4720011353492737,0.9121454954147339,0.2981206774711609,0.9362608194351196,0.5819204449653625,0.6618836522102356,-0.17218714952468872,0.978256344795227,0.43626946210861206,0.609839677810669,-0.059132181107997894,0.9638663530349731,179.84798337125363,0.509069412946701,0.6327817142009735,131.9479003687781,145.1610990771496,0.8194242908494683,0.002274437495910336,-0.0020759914124843033,-0.15370169912415546,0.14564569376192774,-171.66963289305357,3.0873225364829193,32,1762115107.2985442
0.4689676761627197,0.3002035915851593,-0.27241531014442444,0.9999797940254211,0.5618630051612854,0.3899582624435425,-0.22660180926322937,0.9999513626098633,0.4561375081539154,0.370943158864975,-0.11394381523132324,0.9999610185623169,0.5373343229293823,0.6381757855415344,-0.02857397124171257,0.9994121789932251,0.48103421926498413,0.6259740591049194,0.02842283621430397,0.9994365572929382,0.524000346660614,0.8227731585502625,-0.012639629654586315,0.9818813800811768,0.473226398229599,0.8085300922393799,0.11774039268493652,0.9738593101501465,0.526351273059845,0.9556143879890442,0.17004284262657166,0.9568894505500793,0.4733627438545227,0.8984818458557129,0.3175205886363983,0.9308013916015625,0.5833339691162109,0.6617188453674316,-0.16856765747070312,0.9782720804214478,0.43927377462387085,0.6053094863891602,0.006505279801785946,0.9645492434501648,-179.9580992273832,0.5091842710971832,0.6320749223232269,130.7684820161892,140.25596518376383,0.8126177325254086,0.001476564990314592,-0.009086200132408111,-0.010257091930799144,-0.09012010664618625,-169.80415536872465,0.14784598693693554,33,1762115107.3763316
0.4671848714351654,0.3040766716003418,-0.2909693121910095,0.9999786615371704,0.5593316555023193,0.3907792866230011,-0.24011459946632385,0.9999510049819946,0.455815851688385,0.3717278838157654,-0.12711569666862488,0.9999622702598572,0.5377985239028931,0.6371635794639587,-0.02895526960492134,0.9993913769721985,0.48216161131858826,0.6247142553329468,0.028816038742661476,0.9994052052497864,0.5242451429367065,0.8201119303703308,-0.0070737325586378574,0.9829738140106201,0.473175048828125,0.8045122027397156,0.1272154599428177,0.973415732383728,0.5262409448623657,0.953092098236084,0.17868070304393768,0.9580065608024597,0.4755638539791107,0.8872509598731995,0.33728063106536865,0.9302693605422974,0.5849331617355347,0.6565813422203064,-0.17340297996997833,0.9783506989479065,0.44155725836753845,0.6030054688453674,-0.016977008432149887,0.9641669988632202,-179.44783553030635,0.5099800676107407,0.6309389173984528,132.2253090059849,140.07634914022128,0.8258667112730149,0.009291393982245703,-0.013263527977351999,0.09124274086514648,-0.04877276808725027,-169.57178504470065,1.0971185580765357,34,1762115107.4619803
0.4640938341617584,0.30727243423461914,-0.3080293536186218,0.999974250793457,0.5547387599945068,0.39218267798423767,-0.26183754205703735,0.9999516010284424,0.45410069823265076,0.37181442975997925,-0.1297384351491928,0.9999620318412781,0.5377024412155151,0.6369590759277344,-0.03268108144402504,0.99937504529953,0.4824310839176178,0.623211145401001,0.032559216022491455,0.9993554949760437,0.5242534875869751,0.8180666565895081,-0.004374098964035511,0.9840855002403259,0.473235547542572,0.7988203167915344,0.13799062371253967,0.972838819026947,0.5262594819068909,0.9495492577552795,0.18204189836978912,0.9594216346740723,0.4778251051902771,0.8801177144050598,0.35724321007728577,0.9282392263412476,0.5853569507598877,0.6535171866416931,-0.1760571449995041,0.9790429472923279,0.4430309236049652,0.5972384214401245,0.04145674407482147,0.9598802328109741,-178.69603849065814,0.5100667625665665,0.6300851106643677,133.8762692949386,141.15634419647674,0.8392111476854353,0.0011048603219553103,-0.010881108065898138,-0.10433105512828575,0.030362103600243603,-168.55839748256054,1.7118572102809986,35,1762115107.5404472
0.4602293372154236,0.31333568692207336,-0.3109104037284851,0.999964714050293,0.5503301024436951,0.39397862553596497,-0.26276370882987976,0.9999497532844543,0.45097073912620544,0.3724392056465149,-0.13221299648284912,0.9999613761901855,0.5376230478286743,0.6370358467102051,-0.03320220857858658,0.99934321641922,0.48219600319862366,0.6231890916824341,0.03307022899389267,0.9992945194244385,0.5243159532546997,0.8140563368797302,0.013496600091457367,0.9845598340034485,0.47363319993019104,0.789942741394043,0.14297059178352356,0.9718880653381348,0.5261179208755493,0.9408354163169861,0.20885303616523743,0.9596607089042664,0.47893136739730835,0.8782467246055603,0.359511137008667,0.924859881401062,0.5864777565002441,0.6487995982170105,-0.16448000073432922,0.9788316488265991,0.44444745779037476,0.5929886698722839,0.059453368186950684,0.9548940658569336,-177.8523632504829,0.509909525513649,0.6301124691963196,137.5435416626299,145.37478907101755,0.8434363191009119,-0.002750678806634996,0.0004786055997897889,-0.06744815914815643,0.19872493823735307,-167.76851147549826,2.6074144222872766,36,1762115107.5976102
0.4591933786869049,0.31516677141189575,-0.3169347941875458,0.9999585151672363,0.549676239490509,0.395172119140625,-0.26918739080429077,0.9999486804008484,0.449605792760849,0.37237387895584106,-0.1403791308403015,0.9999609589576721,0.5374516844749451,0.637104332447052,-0.032300643622875214,0.9993031620979309,0.48195213079452515,0.622179388999939,0.0321643203496933,0.9992359280586243,0.524474024772644,0.8119402527809143,0.025090981274843216,0.9849833250045776,0.4738423228263855,0.786626935005188,0.1358763873577118,0.9715182781219482,0.5260245203971863,0.9288657307624817,0.24210432171821594,0.9597765207290649,0.4793791174888611,0.8758085370063782,0.3533414602279663,0.9230486750602722,0.5867985486984253,0.6475962400436401,-0.16865479946136475,0.9792515635490417,0.4447895884513855,0.5906937718391418,0.05752211809158325,0.9514029622077942,-177.6567784894422,0.5097019076347351,0.6296418607234955,136.29991058122414,144.34632065784402,0.8511557371402017,-0.002689934513329009,-0.006097287863342909,0.0007870139696366594,-0.08519845629379831,-167.16581717705395,2.838335320386013,37,1762115107.6747935
0.45482462644577026,0.3240566551685333,-0.31765443086624146,0.9999552369117737,0.544563889503479,0.39496269822120667,-0.26367419958114624,0.999950647354126,0.44651222229003906,0.37414219975471497,-0.1446385383605957,0.9999611377716064,0.5374294519424438,0.6341004967689514,-0.03180047124624252,0.9992933869361877,0.48178309202194214,0.619362473487854,0.0316469669342041,0.9991717338562012,0.524450421333313,0.810233473777771,0.020367175340652466,0.9846646785736084,0.47385233640670776,0.7846696376800537,0.13116519153118134,0.9693512320518494,0.5253921747207642,0.9285450577735901,0.22717662155628204,0.9594057202339172,0.47894415259361267,0.8769834041595459,0.34171777963638306,0.9162358641624451,0.5866612195968628,0.6420184373855591,-0.14014388620853424,0.9798904657363892,0.4439905285835266,0.5892636179924011,0.06589043140411377,0.9494134783744812,-176.6754158858238,0.509606271982193,0.6267314851284027,136.0978350247479,144.54334064562013,0.8364629360656815,-0.0013378191338569547,-0.04071239181549852,0.018914346038925257,-0.4842205511929631,-168.0117562332185,4.661769170951811,38,1762115107.7462797
0.4517834782600403,0.33746305108070374,-0.3705780804157257,0.9999533891677856,0.5393511056900024,0.39814528822898865,-0.2850191593170166,0.9999535083770752,0.44149842858314514,0.38140466809272766,-0.19252945482730865,0.9999616742134094,0.5368539094924927,0.6254479885101318,-0.03103843331336975,0.9993175268173218,0.48060116171836853,0.6127685308456421,0.030813565477728844,0.9991419911384583,0.5238472819328308,0.8085060715675354,0.013998384587466717,0.9843904972076416,0.47396761178970337,0.7849355340003967,0.11690851300954819,0.9660772681236267,0.5252000093460083,0.9310852289199829,0.2209617793560028,0.9589746594429016,0.4788893759250641,0.8775757551193237,0.34038224816322327,0.907048761844635,0.5861185193061829,0.6353851556777954,-0.12785187363624573,0.9795349836349487,0.44338780641555786,0.5907036662101746,0.05733726546168327,0.9457091093063354,-175.4369754954424,0.5087275356054306,0.619108259677887,134.29255796357808,138.96891611470497,0.8648650590875785,-0.012328239614935628,-0.10695010753839104,-0.15419019940751935,-0.9292826069024963,-170.2918331034599,5.832165415125753,39,1762115107.817558
0.4471525549888611,0.3492684066295624,-0.35380175709724426,0.9999499320983887,0.534913957118988,0.4063641428947449,-0.2806676924228668,0.9999552965164185,0.44024571776390076,0.3897530436515808,-0.18183961510658264,0.9999617338180542,0.5361849069595337,0.6236160397529602,-0.03092554770410061,0.9993283748626709,0.4802344739437103,0.611499011516571,0.030686896294355392,0.9990944266319275,0.5237778425216675,0.8092066645622253,0.0023214449174702168,0.984216570854187,0.47403883934020996,0.7866021990776062,0.09035316109657288,0.964096188545227,0.5254764556884766,0.936063289642334,0.1725662797689438,0.958082914352417,0.4795941412448883,0.8763691186904907,0.3203764259815216,0.8898059725761414,0.5849870443344116,0.6332201361656189,-0.10657872259616852,0.9785080552101135,0.44288545846939087,0.5918442010879517,0.06713700294494629,0.9382452964782715,-174.63076443720038,0.508209690451622,0.6175575256347656,136.66860434777882,130.03809457258498,0.8207227936473481,-0.007867940316673731,-0.02356125727657694,0.0677680739408784,1.266978153817972,-170.04782546183395,5.6863545967465665,40,1762115107.8833752
0.44316738843917847,0.3706798255443573,-0.35218143463134766,0.9999421834945679,0.5290625691413879,0.415415495634079,-0.2737695574760437,0.9999560117721558,0.439432293176651,0.39323097467422485,-0.1863998919725418,0.9999604225158691,0.535025954246521,0.6222426295280457,-0.02878444828093052,0.9993007779121399,0.4798754155635834,0.6105247735977173,0.02855381928384304,0.9989895224571228,0.5237230658531189,0.8096877336502075,-0.008441638201475143,0.9825425744056702,0.4728105664253235,0.7882413268089294,0.05590847134590149,0.9597269296646118,0.5265488028526306,0.936914324760437,0.17164400219917297,0.9536841511726379,0.48050475120544434,0.8804870843887329,0.2618439793586731,0.8727887272834778,0.5810133218765259,0.6314164400100708,-0.08129923045635223,0.9774267077445984,0.44272392988204956,0.5896461606025696,0.06662596017122269,0.9270246624946594,-173.755645294503,0.5074506849050522,0.6163837015628815,131.27985356762187,122.73762177157036,0.7853571555296723,-0.007978956707862661,-0.012339687759250302,-0.0011670467800437,0.11796543223914863,-166.0980302238192,4.410459273884278,41,1762115107.978501
0.4425492286682129,0.3700999319553375,-0.3465171754360199,0.9999408721923828,0.5282717943191528,0.41732919216156006,-0.2715529799461365,0.9999573826789856,0.43819135427474976,0.39620381593704224,-0.17665672302246094,0.9999585151672363,0.5341857671737671,0.6231606602668762,-0.02843168005347252,0.9993004202842712,0.4794337749481201,0.6114212870597839,0.0281975157558918,0.9989226460456848,0.5235624313354492,0.8100271224975586,-0.013877692632377148,0.9820960760116577,0.47212862968444824,0.7899541854858398,0.045011453330516815,0.9585776329040527,0.5262725949287415,0.9380095601081848,0.1614457666873932,0.9515720009803772,0.48083066940307617,0.8789283037185669,0.28100448846817017,0.84928959608078,0.5799795985221863,0.6318686604499817,-0.0941552147269249,0.9771847128868103,0.44272226095199585,0.5890573859214783,0.0845719650387764,0.9123684763908386,-173.6096508598644,0.5068097710609436,0.6172909736633301,130.44530110529396,115.9077283801985,0.7847890136716551,-0.008256408405715199,0.011687700406648894,-0.003574200419271257,0.3095266726469761,-166.8016882354891,4.131378444848437,42,1762115108.0561273
0.44201260805130005,0.3802196979522705,-0.3462069630622864,0.9999403953552246,0.5254848599433899,0.4283357858657837,-0.2679499089717865,0.999958336353302,0.4363574981689453,0.4062155485153198,-0.17323888838291168,0.9999528527259827,0.5331685543060303,0.6279367208480835,-0.028671134263277054,0.9992936849594116,0.479047954082489,0.617565393447876,0.028447261080145836,0.9988231062889099,0.5230543613433838,0.8102269768714905,-0.01713157445192337,0.9812293648719788,0.47175654768943787,0.7964965105056763,0.04013616591691971,0.9563859701156616,0.5270715355873108,0.9382279515266418,0.1594964563846588,0.9467149376869202,0.48259440064430237,0.8723780512809753,0.2919541299343109,0.8124681711196899,0.579298198223114,0.6322804093360901,-0.0789547711610794,0.9759973287582397,0.4427630305290222,0.5873500108718872,0.09584677219390869,0.8837236762046814,-173.01157365485108,0.5061082541942596,0.6227510571479797,129.39568541499736,110.3684243017474,0.7789514612022627,-0.010771932843252108,0.08384068211105905,-0.038626384615374626,1.1079235728632204,-166.06157417900505,3.3905942017984327,43,1762115108.1212518
0.4366299510002136,0.39002281427383423,-0.34277334809303284,0.9999372363090515,0.5216399431228638,0.44156354665756226,-0.2759439945220947,0.9999576807022095,0.43647170066833496,0.41187912225723267,-0.1698421686887741,0.999936580657959,0.5320659279823303,0.6323395371437073,-0.03239283338189125,0.99925696849823,0.4791317880153656,0.6208425760269165,0.032213158905506134,0.9986313581466675,0.5220014452934265,0.809253454208374,-0.01471082866191864,0.9797236919403076,0.47056517004966736,0.791101336479187,0.0595114529132843,0.950979471206665,0.5302568674087524,0.9309343099594116,0.16315478086471558,0.9416261315345764,0.4838811457157135,0.8692595362663269,0.2963752746582031,0.784106433391571,0.5777658224105835,0.6329957842826843,-0.09106414020061493,0.9736014604568481,0.4427138864994049,0.5814255475997925,0.1080002561211586,0.8473649024963379,-172.43528778241532,0.505598857998848,0.6265910565853119,129.80920727448162,117.12060324576552,0.7700243170721979,-0.009314226612667675,0.07021376538339139,0.02665392142434057,-0.24916595682633888,-160.78457935447022,2.4607191108456408,44,1762115108.175942
0.440006822347641,0.4119044542312622,-0.3423081040382385,0.999935507774353,0.5212650299072266,0.45136362314224243,-0.2773798108100891,0.9999575018882751,0.4360996186733246,0.42235276103019714,-0.16970977187156677,0.9999287724494934,0.5312627553939819,0.6390684247016907,-0.03464633598923683,0.9992830157279968,0.4791947305202484,0.6255393624305725,0.03445417433977127,0.9986400008201599,0.521338701248169,0.8067008256912231,0.02880335971713066,0.9800332188606262,0.46896934509277344,0.7837636470794678,0.12168461084365845,0.9509701132774353,0.5335874557495117,0.927251935005188,0.17358101904392242,0.9434111714363098,0.4844886362552643,0.8650554418563843,0.33309242129325867,0.7845242023468018,0.5768179297447205,0.6377242803573608,-0.07127536833286285,0.9692335724830627,0.4491890072822571,0.5980187058448792,0.08515777438879013,0.8066261410713196,-172.26513255498915,0.5052287429571152,0.6323038935661316,149.7355574645654,139.29236274973312,0.7707498863227171,-0.004605907310704961,0.07109356456206978,0.05859281533794036,0.01094868625186178,-161.18903343039392,1.9118743258973023,45,1762115108.2562985
0.44121280312538147,0.4351081848144531,-0.33628055453300476,0.9999304413795471,0.5209501385688782,0.4623405933380127,-0.2663954794406891,0.9999561905860901,0.4362238049507141,0.4367419481277466,-0.16846662759780884,0.9999030232429504,0.5312013626098633,0.6446559429168701,-0.03435521572828293,0.999319314956665,0.4793841242790222,0.6302902102470398,0.034158214926719666,0.9986361265182495,0.5208886861801147,0.8044859766960144,0.017436113208532333,0.98027104139328,0.46869754791259766,0.7783212661743164,0.10854661464691162,0.9505361318588257,0.5365041494369507,0.9260668158531189,0.15031923353672028,0.944487452507019,0.4851112365722656,0.8582133054733276,0.32807034254074097,0.7785170674324036,0.5758510828018188,0.6409164667129517,-0.054510705173015594,0.9618769884109497,0.45398059487342834,0.6088151931762695,0.09004177153110504,0.7546257376670837,-171.91221775870113,0.5052927434444427,0.637473076581955,149.24863451192522,136.02900101128503,0.7381689875273841,0.001041804118510009,0.08414429920905359,0.09193381601919566,0.21244071213424656,-163.18868590286465,1.6674874356227305,46,1762115108.317731
0.44134289026260376,0.43611034750938416,-0.3384961485862732,0.9999318718910217,0.5196224451065063,0.4642283618450165,-0.2658902108669281,0.9999572038650513,0.43618178367614746,0.441355437040329,-0.16872915625572205,0.9998904466629028,0.5309790372848511,0.6436077952384949,-0.03402993455529213,0.9993592500686646,0.47946101427078247,0.6297191977500916,0.03382397070527077,0.9986778497695923,0.5201801061630249,0.8021939396858215,0.013112815096974373,0.9809766411781311,0.4682464599609375,0.7779552936553955,0.10319796949625015,0.9516207575798035,0.5374112725257874,0.925404965877533,0.1515045166015625,0.9470683932304382,0.4848202168941498,0.858453094959259,0.3105848431587219,0.7834534645080566,0.5749476552009583,0.6427484154701233,-0.05515513941645622,0.9596902132034302,0.46064361929893494,0.6199952363967896,0.08536498248577118,0.7170230746269226,-171.54934819819556,0.5052200257778168,0.6366634964942932,147.00320567352685,135.56979163211298,0.7328135357625774,-0.0008918285116113148,-0.009928902261443183,-0.023714577083365173,-1.1537383849439187,-164.67052561049118,1.6161134302181537,47,1762115108.3992686
0.44241929054260254,0.4476642906665802,-0.33823925256729126,0.9999306201934814,0.5197207927703857,0.4705812335014343,-0.2615395486354828,0.9999569654464722,0.43637609481811523,0.44666731357574463,-0.16971257328987122,0.9998359680175781,0.5308966040611267,0.6432304978370667,-0.03271282836794853,0.9993948340415955,0.47938117384910583,0.6302584409713745,0.03245947137475014,0.9986957311630249,0.5188255310058594,0.8015702962875366,0.009295717813074589,0.9813929796218872,0.4678876996040344,0.779266357421875,0.07498519867658615,0.9526863694190979,0.5366527438163757,0.9221189618110657,0.1475665420293808,0.9492170810699463,0.48458975553512573,0.8595491051673889,0.28819379210472107,0.7858670353889465,0.5737988948822021,0.6434879899024963,-0.06982509046792984,0.9589186310768127,0.4580608010292053,0.6092835068702698,0.09312281757593155,0.6769583225250244,-171.35211186252099,0.5051388889551163,0.6367444694042206,144.60884321674752,125.94762286790146,0.7143666685096165,-0.0013295274744593987,0.0013268415603695817,-0.007172240387043422,0.18443932309028407,-163.99033718802093,1.5690385061481258,48,1762115108.4602954
0.44577693939208984,0.4653159976005554,-0.3376149833202362,0.9999295473098755,0.5210537314414978,0.48148223757743835,-0.2612727880477905,0.9999557137489319,0.43828529119491577,0.45651277899742126,-0.17576298117637634,0.9998145699501038,0.5317578911781311,0.6442051529884338,-0.03213925659656525,0.9994345307350159,0.48022693395614624,0.6299511194229126,0.03184746950864792,0.9987533092498779,0.518521785736084,0.8008768558502197,0.008444937877357006,0.981228768825531,0.46797212958335876,0.7800361514091492,0.07775479555130005,0.9522000551223755,0.5364584922790527,0.9198222756385803,0.1504131704568863,0.9489753842353821,0.484220415353775,0.8609573245048523,0.2872436046600342,0.7823852300643921,0.5741696953773499,0.6468879580497742,-0.0614139623939991,0.9559742212295532,0.4581260085105896,0.639861524105072,0.057081930339336395,0.6501002907752991,-171.09927555402228,0.5059924125671387,0.6370781362056732,143.0864929152783,127.46730957083803,0.7031964738328322,0.013497025324330133,0.0052763733840046146,0.23445673415362797,0.062455133392901166,-163.21256653643394,1.539936652375579,49,1762115108.5235333
0.4507684111595154,0.48720216751098633,-0.3267868757247925,0.9999279975891113,0.5219497680664062,0.49280697107315063,-0.2555549442768097,0.9999545216560364,0.44145146012306213,0.47097378969192505,-0.17693588137626648,0.9997820854187012,0.5342254638671875,0.6475954055786133,-0.031432777643203735,0.9994627833366394,0.4824594557285309,0.63430255651474,0.03115389309823513,0.9987813234329224,0.5186176300048828,0.8011137843132019,-0.021535422652959824,0.9801790714263916,0.46801599860191345,0.7825220823287964,0.0353752002120018,0.9505583643913269,0.5361098051071167,0.920863926410675,0.12649117410182953,0.9450274705886841,0.48409539461135864,0.8616054058074951,0.2567915916442871,0.7660154104232788,0.5742614269256592,0.6467829942703247,-0.06006842851638794,0.9545644521713257,0.45888257026672363,0.6433018445968628,0.057293880730867386,0.6230911612510681,-170.4913926917095,0.5083424597978592,0.6409489810466766,131.46114074803603,110.72333015690099,0.6599474715345737,0.0286141802115115,0.04713141523428541,0.18406651090774706,0.5096270809404515,-164.82500829605104,1.587072499050137,50,1762115108.605662
0.4506317973136902,0.4949498176574707,-0.32932764291763306,0.9999222755432129,0.5224363803863525,0.5026594400405884,-0.27153435349464417,0.9999530911445618,0.44459429383277893,0.4753565192222595,-0.18023397028446198,0.9997146725654602,0.5360897779464722,0.6524539589881897,-0.03234904631972313,0.9994863867759705,0.4838380217552185,0.6377243399620056,0.03212214261293411,0.9987183809280396,0.5186328291893005,0.8013299703598022,-0.016393182799220085,0.978834331035614,0.4684053957462311,0.7826602458953857,0.08488357812166214,0.9431213140487671,0.5356894731521606,0.9210634827613831,0.12837299704551697,0.9368500113487244,0.4855172038078308,0.8508715033531189,0.32531604170799255,0.7238536477088928,0.5756876468658447,0.6470849514007568,-0.06604016572237015,0.9497839212417603,0.4611198902130127,0.668384313583374,0.027537494897842407,0.5819576978683472,-170.38236786408424,0.5099638998508453,0.6450891494750977,134.23485619547986,125.06220942772109,0.6825092543959567,0.026264149085305805,0.06706260934042381,-0.038065895646345466,0.322846257860549,-160.67180569022258,1.5480370421993384,51,1762115108.667398
0.45057907700538635,0.49633538722991943,-0.3337676227092743,0.9999251961708069,0.5225657224655151,0.5052507519721985,-0.27115705609321594,0.9999553561210632,0.4450742304325104,0.4819985330104828,-0.17928877472877502,0.9997074007987976,0.5377849340438843,0.6530954241752625,-0.03275521472096443,0.9995202422142029,0.4856277406215668,0.6385058164596558,0.03251761943101883,0.9987597465515137,0.5186768770217896,0.8010917901992798,-0.014031810685992241,0.9791847467422485,0.46845120191574097,0.7829373478889465,0.08618240058422089,0.9404518604278564,0.5354613065719604,0.9218255877494812,0.13021425902843475,0.9370030164718628,0.485576331615448,0.8523352146148682,0.30693647265434265,0.7190670371055603,0.5763341784477234,0.6470919251441956,-0.06330127269029617,0.9491783976554871,0.4598734378814697,0.6782022714614868,0.007758595980703831,0.5595968961715698,-169.61572049435105,0.5117063373327255,0.6458006203174591,135.46963736768922,126.85195839247724,0.6792328139977044,0.027238823354018747,0.011122137120068579,0.015236690273978382,-0.8744948711195275,-163.29751926168194,1.644652236615345,52,1762115108.7313669
0.45056837797164917,0.5056436061859131,-0.34488445520401,0.9999294281005859,0.5252242088317871,0.5107539892196655,-0.2824796140193939,0.999957799911499,0.4453524649143219,0.4876914620399475,-0.18713636696338654,0.9997124671936035,0.537990152835846,0.6560796499252319,-0.033842265605926514,0.9995564818382263,0.48591336607933044,0.6427735686302185,0.033623721450567245,0.9988216161727905,0.5184847712516785,0.8009292483329773,-0.004095221869647503,0.9799926280975342,0.46800217032432556,0.7831364274024963,0.11805121600627899,0.9404776692390442,0.535276472568512,0.9224928021430969,0.1280137598514557,0.9389309883117676,0.48552554845809937,0.8548063635826111,0.342620849609375,0.7169702649116516,0.5775648355484009,0.6484689712524414,-0.07328171283006668,0.9494187831878662,0.45922303199768066,0.697695255279541,-0.0324183851480484,0.5514146685600281,-169.93400479316588,0.5119517594575882,0.6494266092777252,142.05911828201744,137.4753447405379,0.6977876498750367,0.0031268985419198054,0.046198359659781287,-0.30720760233015143,0.4469026139222575,-163.89421741284033,1.5539447418834376,53,1762115108.8098543
0.4519844651222229,0.5139760971069336,-0.34368306398391724,0.9999293088912964,0.5292403101921082,0.5183719992637634,-0.28250569105148315,0.9999595880508423,0.4473794102668762,0.49299031496047974,-0.18390081822872162,0.9996597170829773,0.5393950939178467,0.6610112190246582,-0.03445842117071152,0.9995821118354797,0.4864829182624817,0.6513680815696716,0.03429596498608589,0.9988142251968384,0.5185081958770752,0.8004371523857117,-0.02170507237315178,0.9798324108123779,0.46793192625045776,0.7871342897415161,0.1023445576429367,0.9378320574760437,0.5357334017753601,0.9155683517456055,0.13326093554496765,0.9365513324737549,0.48584017157554626,0.8377565145492554,0.3381594121456146,0.6982436180114746,0.5796786546707153,0.6500463485717773,-0.09416015446186066,0.9497137665748596,0.45959678292274475,0.6834378838539124,-0.0058073801919817924,0.5166242122650146,-170.70651220076883,0.5129390060901642,0.6561896502971649,130.0878393988322,127.62024265736365,0.6860726021440757,0.015586594018783054,0.10677450925037171,0.19671296775032251,0.9563728249201505,-162.77349541131798,1.4019541518958931,54,1762115108.8731937
0.4556521773338318,0.5197569727897644,-0.3210124373435974,0.9999275207519531,0.533135175704956,0.5261746048927307,-0.271438866853714,0.9999606013298035,0.450113445520401,0.49453312158584595,-0.1681688129901886,0.9995967149734497,0.5420836806297302,0.6614792346954346,-0.03495483100414276,0.9996143579483032,0.4897404611110687,0.6531209945678711,0.0348459891974926,0.998842179775238,0.5188642740249634,0.7984732985496521,-0.11338867992162704,0.9803043007850647,0.46569013595581055,0.7907674908638,0.06568987667560577,0.9340991973876953,0.5357016324996948,0.9167763590812683,0.008768521249294281,0.9375246167182922,0.48572292923927307,0.8376024961471558,0.3300725519657135,0.6711757779121399,0.5806370377540588,0.6528913974761963,-0.08977676928043365,0.9481089115142822,0.45919427275657654,0.6520555019378662,0.03022298775613308,0.4842310845851898,-170.61481434532072,0.5159120708703995,0.6573001146316528,103.21772280463583,111.49779435147224,0.6093554600573536,0.03712042169248538,0.013864785135086863,0.26886220886108014,-1.1600312786386402,-159.137010160193,1.3174040081522262,55,1762115108.9532862
0.4577527642250061,0.5279638171195984,-0.3063729405403137,0.9999118447303772,0.5346955060958862,0.5278176069259644,-0.2610723674297333,0.9999598264694214,0.4510861337184906,0.49904173612594604,-0.1614106148481369,0.9994068741798401,0.5436224937438965,0.6614852547645569,-0.03485127538442612,0.9996435046195984,0.49185866117477417,0.6571336388587952,0.03472650423645973,0.998807430267334,0.5196347236633301,0.7923992872238159,-0.14572134613990784,0.9797679781913757,0.46913042664527893,0.7920395731925964,0.0732743963599205,0.9163455963134766,0.5366454124450684,0.9228377342224121,-0.06214365363121033,0.9339612126350403,0.48580116033554077,0.8400996923446655,0.32678544521331787,0.6274510025978088,0.5811518430709839,0.6541262269020081,-0.08762767910957336,0.9453861117362976,0.45078960061073303,0.6247849464416504,0.06237529590725899,0.4546360671520233,-170.33279463328827,0.5177405774593353,0.659309446811676,105.91257069336258,115.59493711504547,0.5659302875687434,0.02990836573371759,0.03286607884505142,-0.11796556195753016,0.31079879346901523,-161.0080534895229,1.4754888742557954,56,1762115109.0144231
0.45786890387535095,0.5302450656890869,-0.3096786141395569,0.9999005794525146,0.5371031165122986,0.53217613697052,-0.26810890436172485,0.9999583959579468,0.45267564058303833,0.5038576126098633,-0.16214188933372498,0.9992915391921997,0.5445355176925659,0.6640244722366333,-0.03505126014351845,0.9996612071990967,0.49302953481674194,0.6587342023849487,0.03498261421918869,0.99875408411026,0.5200804471969604,0.7909913063049316,-0.10885272920131683,0.9788740873336792,0.46969062089920044,0.793601930141449,0.07460268586874008,0.9071643948554993,0.5366421937942505,0.9176077246665955,0.022560905665159225,0.9296760559082031,0.48694485425949097,0.8276395797729492,0.33570802211761475,0.592566967010498,0.5814094543457031,0.6544129848480225,-0.09327217936515808,0.9420759677886963,0.456962913274765,0.6301761865615845,0.05273484066128731,0.42141208052635193,-170.53790956791582,0.5187825262546539,0.661379337310791,102.64590449877305,112.736764991115,0.5992238199765771,0.014904693857366489,0.029609021428108576,-0.21462200163589926,-0.04659100705668927,-161.45760231257208,1.413044051534464,57,1762115109.0843306
0.4585459232330322,0.5347341895103455,-0.32771119475364685,0.9997873306274414,0.5393972396850586,0.5340791940689087,-0.281173974275589,0.9999515414237976,0.45520609617233276,0.5082630515098572,-0.17801223695278168,0.9988181591033936,0.5459441542625427,0.6645730137825012,-0.03517015278339386,0.9996774196624756,0.4947913587093353,0.6579832434654236,0.03513888642191887,0.9984279870986938,0.5214053988456726,0.7864838242530823,-0.1164138913154602,0.978255569934845,0.4743322432041168,0.7796833515167236,0.1616719663143158,0.8809066414833069,0.5366213917732239,0.9180383682250977,-0.020576471462845802,0.9287131428718567,0.482938677072525,0.8279421329498291,0.4105188846588135,0.5599249005317688,0.5821160674095154,0.6550528407096863,-0.09180866181850433,0.9322155714035034,0.4569137990474701,0.6191614866256714,0.05215747281908989,0.3890913128852844,-170.65114533791072,0.520367756485939,0.6612781286239624,108.93117512204948,146.0432952283392,0.6246911154222758,0.02752168972925092,-0.001757116425002794,0.21904770603557427,-0.5445575645491162,-162.95250846618637,1.9363394347145648,58,1762115109.1419299
0.46123117208480835,0.5417028665542603,-0.306692510843277,0.9997639656066895,0.540195882320404,0.5388546586036682,-0.26544490456581116,0.9999513626098633,0.45845431089401245,0.5170913338661194,-0.16252389550209045,0.9987042546272278,0.547812819480896,0.6696698665618896,-0.0348629355430603,0.9996981024742126,0.4995778501033783,0.6621025204658508,0.034868545830249786,0.9983250498771667,0.5245026350021362,0.7822422385215759,-0.1224510669708252,0.9770246744155884,0.4807322025299072,0.780381441116333,0.17746958136558533,0.8538256287574768,0.5373384356498718,0.9115006327629089,-0.034886978566646576,0.9259510636329651,0.48305636644363403,0.8317148685455322,0.4029868543148041,0.5366986989974976,0.5825200080871582,0.6559911966323853,-0.09135522693395615,0.9307718276977539,0.4599383771419525,0.6383774876594543,0.03921624273061752,0.36649420857429504,-169.97888005864965,0.5236953347921371,0.6658861935138702,106.90075652727697,152.44016329395066,0.5933490331203619,0.043121360048197985,0.05971490584400538,0.20215271845099395,0.7966025022507532,-165.09111472798062,3.214654418448045,59,1762115109.2190976
0.4641208052635193,0.547573983669281,-0.2926855981349945,0.9997345209121704,0.5415961742401123,0.5373864769935608,-0.2541029751300812,0.9999534487724304,0.4639515280723572,0.5239720344543457,-0.14382219314575195,0.9987475275993347,0.5485207438468933,0.6707356572151184,-0.03673741966485977,0.9997054934501648,0.5034321546554565,0.6633992791175842,0.03672550246119499,0.9982010126113892,0.5247389078140259,0.777108907699585,-0.20211951434612274,0.973115086555481,0.4790276885032654,0.7789126038551331,0.04202985018491745,0.8147943019866943,0.5374045968055725,0.9088086485862732,-0.0904528945684433,0.9090622663497925,0.48417776823043823,0.8339096903800964,0.24692270159721375,0.4987514913082123,0.5831016302108765,0.6575416326522827,-0.1071973666548729,0.9329656958580017,0.4616034924983978,0.6480927467346191,0.03772612288594246,0.3604847192764282,-170.34517633732406,0.5259764492511749,0.6670674681663513,82.02222947216451,106.95529627878584,0.49456747690224007,0.03480804562156656,0.018025339251282423,-0.1268547602607702,-0.6361506018049414,-170.19793395041125,2.604433637143731,60,1762115109.2846317
0.46705880761146545,0.5462729334831238,-0.32598820328712463,0.9997542500495911,0.5430439710617065,0.5358679890632629,-0.25626832246780396,0.9999571442604065,0.46527647972106934,0.5347208380699158,-0.1495826691389084,0.9988629221916199,0.5498493909835815,0.6695069074630737,-0.03689716011285782,0.9997212290763855,0.5056246519088745,0.6625301241874695,0.03686515614390373,0.9982984066009521,0.5246409177780151,0.775844931602478,-0.23022615909576416,0.969046413898468,0.47533297538757324,0.7753966450691223,-0.00919026043266058,0.7935661673545837,0.5373256802558899,0.9101982712745667,-0.10607481002807617,0.9005250334739685,0.48305171728134155,0.8587971329689026,0.1791718304157257,0.48799142241477966,0.5834314227104187,0.6592035889625549,-0.10868571698665619,0.9370833039283752,0.46748265624046326,0.7045028805732727,-0.0426316075026989,0.3949466943740845,-169.7763043550303,0.527737021446228,0.6660185158252716,75.73466832031697,91.11572647662454,0.4976836849379709,0.021494386535836227,-0.01280639734069958,-0.16254314103058098,-0.3764169772425374,-179.15488923928223,2.310827081304991,61,1762115109.3665402
0.46853169798851013,0.5470752120018005,-0.3435869812965393,0.9997715950012207,0.5436443090438843,0.5351132154464722,-0.25746268033981323,0.9999606609344482,0.46627965569496155,0.5565809011459351,-0.14979466795921326,0.9989496469497681,0.5518137812614441,0.6687597036361694,-0.0388169027864933,0.9997328519821167,0.5078456997871399,0.6626622676849365,0.038791220635175705,0.9982784390449524,0.5248585343360901,0.774707019329071,-0.2631511688232422,0.9653760194778442,0.4803033471107483,0.7764986753463745,0.01361491996794939,0.7709823250770569,0.536634624004364,0.9154145121574402,-0.1824701726436615,0.8982006907463074,0.486157089471817,0.8615580201148987,0.20008671283721924,0.46149370074272156,0.5838130712509155,0.6592392921447754,-0.11510713398456573,0.9399650692939758,0.46970367431640625,0.7217403650283813,-0.03196443244814873,0.4092666208744049,-168.27931524709763,0.529829740524292,0.665710985660553,85.03942762507016,101.33269503878128,0.4925253873609056,0.033940807077784484,-0.004987684252857563,0.20186252557799228,0.12680795778690904,164.49135697487296,2.8207798388147642,62,1762115109.428198
0.47147780656814575,0.5463241338729858,-0.3423845171928406,0.9997884631156921,0.544453501701355,0.5344931483268738,-0.2585195004940033,0.9999640583992004,0.4669751226902008,0.5473838448524475,-0.1490001678466797,0.9990395307540894,0.5541630983352661,0.6693130731582642,-0.03903082013130188,0.9997479319572449,0.5090880990028381,0.6636669635772705,0.03898053243756294,0.9983711242675781,0.5288146138191223,0.7763236165046692,-0.24272310733795166,0.9624319076538086,0.47775036096572876,0.7757723331451416,-0.022206498309969902,0.7595910429954529,0.5366268157958984,0.9119904637336731,-0.11983795464038849,0.8939185738563538,0.48343366384506226,0.8663663268089294,0.149563267827034,0.46369469165802,0.583756685256958,0.6590675115585327,-0.12496016174554825,0.9437654614448547,0.4695216715335846,0.7105788588523865,-0.04060191288590431,0.4236730635166168,-168.3390310845614,0.5316255986690521,0.6664900183677673,75.37169858072805,88.80664158152493,0.4966496530219882,0.02202403751969989,0.009553898019631177,-0.14614482810162494,0.17833499516626447,170.55377179238297,3.8394187295358573,63,1762115109.509739
0.47348552942276,0.5424385666847229,-0.3139127492904663,0.9997132420539856,0.5467798113822937,0.5340396165847778,-0.2512669265270233,0.9999664425849915,0.4701235294342041,0.5385591983795166,-0.13350334763526917,0.9990171194076538,0.556698739528656,0.6691189408302307,-0.03867209702730179,0.9997134804725647,0.5119160413742065,0.6633183360099792,0.03868447244167328,0.9979944825172424,0.5367764234542847,0.7723988890647888,-0.23471593856811523,0.9611621499061584,0.4773215651512146,0.7583116888999939,-0.04981418326497078,0.7548988461494446,0.5357348322868347,0.910794734954834,-0.1482355296611786,0.894321084022522,0.4804876744747162,0.8713940978050232,0.0544670931994915,0.4805867373943329,0.5835703015327454,0.6589468121528625,-0.1291494071483612,0.9475152492523193,0.4682075083255768,0.622831404209137,0.0859745517373085,0.4051702618598938,-168.7444095553183,0.5343073904514313,0.666218638420105,85.83087988565651,93.89359518890082,0.4405270464865494,0.042819157035615854,-0.004333021180698308,0.3320278233295433,-0.22172719667754923,176.62580124067128,24.317422326823106,64,1762115109.5723696
0.47944170236587524,0.5393156409263611,-0.31488874554634094,0.9997191429138184,0.5480137467384338,0.5343669652938843,-0.25111648440361023,0.9999691247940063,0.47175413370132446,0.5345792174339294,-0.1333169788122177,0.9990756511688232,0.5580483675003052,0.668709397315979,-0.03694360703229904,0.9996924996376038,0.5128802061080933,0.6628860235214233,0.036982033401727676,0.9979153871536255,0.5339769721031189,0.7660988569259644,-0.22335484623908997,0.9588123559951782,0.47799134254455566,0.7615153193473816,-0.058685190975666046,0.7626503705978394,0.5339725017547607,0.9021852016448975,-0.10117857158184052,0.8934298157691956,0.47832241654396057,0.873738169670105,0.06013141945004463,0.5147387385368347,0.5836696028709412,0.6594884395599365,-0.1370076686143875,0.951837420463562,0.4679746627807617,0.6078352332115173,0.10296261310577393,0.4030303955078125,-168.97754083889004,0.5354642868041992,0.6657977104187012,75.76300414363585,89.23354694057306,0.4570756118579253,0.01534653543630826,-0.005583721025848628,-0.3644315758220997,-0.016590863518466496,179.84053000100286,155.69118908347465,65,1762115109.6477544
0.48434072732925415,0.5281881093978882,-0.3396032154560089,0.9997402429580688,0.5477616786956787,0.5337812304496765,-0.2528810203075409,0.9999717473983765,0.46978941559791565,0.5281849503517151,-0.1346912682056427,0.9991648197174072,0.5564934611320496,0.6660892367362976,-0.029975080862641335,0.9996601939201355,0.5120567083358765,0.656711220741272,0.029978742823004723,0.9978760480880737,0.5329656004905701,0.7674964070320129,-0.21070978045463562,0.957172155380249,0.4790191650390625,0.7566002011299133,-0.08521027117967606,0.7796854972839355,0.5335278511047363,0.903204083442688,-0.09052926301956177,0.8958010077476501,0.47738558053970337,0.8734994530677795,0.03995329141616821,0.5526406764984131,0.5836355090141296,0.6602074503898621,-0.12805236876010895,0.9558704495429993,0.46748703718185425,0.6039696335792542,0.10417477786540985,0.44146913290023804,-168.93693115913513,0.534275084733963,0.6614002287387848,77.8276097353594,84.2295534853209,0.4784953601908679,-0.01780557241280834,-0.0658421982650912,-0.4963767485095532,-0.9022324353638099,-175.89476648965342,47.51464188160561,66,1762115109.7145426
0.4860754609107971,0.5235185027122498,-0.3407745957374573,0.9997594952583313,0.5481557250022888,0.5333881974220276,-0.25387465953826904,0.9999741911888123,0.4689684808254242,0.523307740688324,-0.13508640229701996,0.9992443323135376,0.5556306838989258,0.664341151714325,-0.02837800420820713,0.9996433258056641,0.5105772614479065,0.652529776096344,0.028347346931695938,0.9978783130645752,0.5323306322097778,0.7684062719345093,-0.20275218784809113,0.9559563398361206,0.4788169264793396,0.757137656211853,-0.08495485037565231,0.795168399810791,0.5334721803665161,0.9029151201248169,-0.07295404374599457,0.8979517817497253,0.47694602608680725,0.874625563621521,0.04885372146964073,0.5867651700973511,0.5836501717567444,0.6604911088943481,-0.12347938120365143,0.9595173597335815,0.46729254722595215,0.6034657955169678,0.11803356558084488,0.4728381037712097,-169.3163382370594,0.5331039726734161,0.6584354639053345,76.89637218910194,84.24566981947817,0.4917669734552352,-0.01699030805310163,-0.043012338035184325,0.011827726041573977,0.3312119917322343,-172.74532425781172,67.11367945136105,67,1762115109.7834709
0.4874459207057953,0.5151273608207703,-0.3380919098854065,0.999781608581543,0.5505195260047913,0.5330918431282043,-0.24588315188884735,0.9999762177467346,0.4685567319393158,0.5203781127929688,-0.14838340878486633,0.9993181228637695,0.5549244284629822,0.6610970497131348,-0.023694049566984177,0.99961918592453,0.5066280961036682,0.6464609503746033,0.023587163537740707,0.9979153871536255,0.5330042243003845,0.7693617939949036,-0.14359846711158752,0.9499545693397522,0.47756457328796387,0.7647246718406677,-0.0732671469449997,0.8089385628700256,0.5335143804550171,0.898960292339325,-0.004257926717400551,0.8912508487701416,0.4760713577270508,0.8726599812507629,0.09106485545635223,0.6047758460044861,0.5836575031280518,0.6609140634536743,-0.08375585079193115,0.9628304839134216,0.4659935534000397,0.5996294021606445,0.10024406760931015,0.5127660036087036,-170.50953984996303,0.5307762622833252,0.653779000043869,85.03002466054873,84.16937325408749,0.5322080021947683,-0.030429602640543816,-0.060872841233874514,-0.17568869211822327,-0.23348609758753988,-171.1827838680118,43.12051268352365,68,1762115109.8599658
0.49148911237716675,0.502623438835144,-0.3303062617778778,0.9998018145561218,0.5513936281204224,0.5284655690193176,-0.23577983677387238,0.9999780654907227,0.46841877698898315,0.5159257054328918,-0.14862656593322754,0.9993848204612732,0.5529884099960327,0.6611602306365967,-0.02201412245631218,0.9995893239974976,0.5025761127471924,0.6454252600669861,0.02189992554485798,0.9979552030563354,0.533135712146759,0.769858717918396,-0.12537972629070282,0.9459377527236938,0.4775462746620178,0.7607898116111755,-0.08657166361808777,0.8232614994049072,0.5345375537872314,0.8991764783859253,0.015761153772473335,0.8901902437210083,0.47532138228416443,0.8713400363922119,0.0855097621679306,0.6301981210708618,0.5836433172225952,0.6609519720077515,-0.08668548613786697,0.9658821821212769,0.4642527997493744,0.5940061807632446,0.09710326790809631,0.5509990453720093,-172.23518563198522,0.5277822613716125,0.6532927453517914,88.89163904775492,79.71201632630493,0.5400987329874485,-0.04881554447247608,-0.00792811633864466,-0.2997727080355641,0.8632347313574092,-171.40601020594502,43.33323517449379,69,1762115109.9212987
0.49732381105422974,0.4932349622249603,-0.3259757459163666,0.9998193383216858,0.5553694367408752,0.521976113319397,-0.23072683811187744,0.9999793171882629,0.4690956175327301,0.5119538903236389,-0.15219691395759583,0.9994446635246277,0.5506607890129089,0.6572058200836182,-0.0194840244948864,0.9995746612548828,0.5010358095169067,0.64140784740448,0.019321676343679428,0.9980153441429138,0.5331335663795471,0.7704398036003113,-0.1132902279496193,0.9425893425941467,0.4774676263332367,0.7618825435638428,-0.08410006016492844,0.8365268707275391,0.5348285436630249,0.9006935954093933,0.01005946658551693,0.8909719586372375,0.4743441939353943,0.8704941868782043,0.07593782246112823,0.6509994864463806,0.5836313366889954,0.6608486771583557,-0.07516686618328094,0.9679219126701355,0.4641417860984802,0.5927025675773621,0.08638979494571686,0.5841435790061951,-174.1258854062148,0.5258482992649078,0.6493068337440491,96.80615563203544,83.72700023449613,0.5386467995334954,-0.025178792591281998,-0.05189369600913829,0.3077334716564074,-0.572400156053247,-173.37378669898143,19.03697919826444,70,1762115109.998108
0.5047079920768738,0.47704505920410156,-0.29615625739097595,0.999835729598999,0.5587522387504578,0.510491132736206,-0.22012774646282196,0.9999803304672241,0.4721899926662445,0.5039939880371094,-0.15359988808631897,0.9994981288909912,0.5506707429885864,0.6542862057685852,-0.017965301871299744,0.9996036887168884,0.5011144876480103,0.641426146030426,0.017734862864017487,0.9981760382652283,0.5332156419754028,0.7709681391716003,-0.10320111364126205,0.9455352425575256,0.47754764556884766,0.7622007727622986,-0.06231784075498581,0.8500658869743347,0.5352316498756409,0.9010369181632996,0.01598260924220085,0.898045539855957,0.4745948910713196,0.8700324296951294,0.09860504418611526,0.6745918393135071,0.5836257934570312,0.6605173945426941,-0.08553878217935562,0.9697920083999634,0.46417927742004395,0.591610312461853,0.07782943546772003,0.6195163130760193,-175.76130493439257,0.5258926153182983,0.6478561758995056,101.18829821950817,90.42427273555498,0.5401766094819522,0.0007007355131061575,-0.022938131698692212,0.40921298305548076,0.45785196699638925,-175.7075713209004,22.203009076212574,71,1762115110.06135
0.5075982213020325,0.4732179045677185,-0.30483341217041016,0.9998512268066406,0.5592907667160034,0.5078868865966797,-0.22561757266521454,0.9999816417694092,0.4716719686985016,0.5034935474395752,-0.17164920270442963,0.9995444416999817,0.5502540469169617,0.6482966542243958,-0.015860309824347496,0.9996345639228821,0.49988946318626404,0.6380531191825867,0.015600807964801788,0.9983218908309937,0.5331765413284302,0.7710579037666321,-0.09740763902664185,0.9483745694160461,0.47765153646469116,0.7722570896148682,-0.048113368451595306,0.8610603213310242,0.5351703763008118,0.9018287658691406,0.006032583303749561,0.9052627086639404,0.4749637544155121,0.8696038722991943,0.1279447376728058,0.6937662959098816,0.5833154916763306,0.6604290008544922,-0.0827883705496788,0.9716793894767761,0.46420127153396606,0.5923224091529846,0.08263680338859558,0.6521682143211365,-176.00973650752124,0.5250717550516129,0.6431748867034912,107.85166990722041,93.61695414335028,0.5553494417438437,-0.010322195972381704,-0.05886651656288319,-0.13861172674707817,-0.45179410502692474,-177.12950691572127,27.560680011739088,72,1762115110.140874
0.5103585720062256,0.46364131569862366,-0.309734046459198,0.9998648762702942,0.5610176920890808,0.5040757656097412,-0.2303091287612915,0.9999819397926331,0.4736267626285553,0.4968964159488678,-0.1794506311416626,0.9995874762535095,0.5503785014152527,0.646266758441925,-0.01636592671275139,0.9996601343154907,0.49998560547828674,0.6343616843223572,0.016104446724057198,0.9984580278396606,0.533025860786438,0.7717739343643188,-0.08726740628480911,0.9516691565513611,0.47777849435806274,0.7694344520568848,-0.036933783441782,0.8720715641975403,0.5350434184074402,0.9038251042366028,0.012414980679750443,0.9123810529708862,0.47516384720802307,0.8693895936012268,0.14762337505817413,0.7109185457229614,0.5833103656768799,0.6600092053413391,-0.07592292129993439,0.9720941185951233,0.46389418840408325,0.5929282307624817,0.06168030574917793,0.6812933087348938,-176.7827542285304,0.5251820534467697,0.6403142213821411,113.21662424439566,97.02860609281755,0.5751829756853775,0.001791793672126449,-0.04647141069983075,0.19679134912494675,0.20135807251927576,-175.30357694113872,26.239237065550494,73,1762115110.2024314
0.5148354768753052,0.45353811979293823,-0.28480052947998047,0.9998776912689209,0.5631616115570068,0.4973606467247009,-0.20901146531105042,0.9999828934669495,0.47729000449180603,0.49095451831817627,-0.1663089245557785,0.9996269941329956,0.5507084727287292,0.6479892730712891,-0.015840444713830948,0.9996813535690308,0.5001084804534912,0.6355938911437988,0.015545611269772053,0.9985736608505249,0.5329633951187134,0.7717939019203186,-0.11097954213619232,0.9541946649551392,0.4780431389808655,0.7669139504432678,-0.034698039293289185,0.8813685774803162,0.535043478012085,0.9046036005020142,-0.00038617412792518735,0.9180073142051697,0.47441792488098145,0.8692624568939209,0.1433732956647873,0.7278681397438049,0.5833234786987305,0.6589692831039429,-0.0903160572052002,0.9726507067680359,0.4637705385684967,0.593311071395874,0.011891687288880348,0.7100958824157715,-177.98946620458202,0.5254084765911102,0.641791582107544,102.51069251372249,98.99942030861268,0.5611405637602825,0.0028879136016834476,0.018842994809167735,0.013980459739943371,0.8330524717545571,-175.7335667880542,6.699714342116577,74,1762115110.2808352
0.5184263586997986,0.44000160694122314,-0.25675326585769653,0.9998894333839417,0.5638997554779053,0.4949418902397156,-0.18828479945659637,0.9999839067459106,0.479208767414093,0.48889023065567017,-0.1349305510520935,0.999661386013031,0.5517317056655884,0.6489703059196472,-0.01709056831896305,0.999696671962738,0.500449538230896,0.6364046931266785,0.01683158054947853,0.998671293258667,0.5325477719306946,0.7723898887634277,-0.13233885169029236,0.9556020498275757,0.47609204053878784,0.7503588199615479,-0.05883803963661194,0.8861293196678162,0.5350406169891357,0.9068001508712769,-0.025012169033288956,0.9226109981536865,0.4741930365562439,0.8675065636634827,0.08357258141040802,0.7458741664886475,0.5833438634872437,0.6570019721984863,-0.11276984214782715,0.9733284115791321,0.4638972878456116,0.594180703163147,0.002365690656006336,0.735390305519104,-178.27662371182936,0.5260906219482422,0.6426874995231628,98.20385375941369,95.86775890203033,0.5309901487999826,0.009019627314311295,0.011846215925677231,0.08107622797358802,-0.09251450188719733,-175.9128328913784,15.226746479041228,75,1762115110.3569853
0.5207746028900146,0.4320920407772064,-0.2631624639034271,0.9998997449874878,0.5653222799301147,0.4920463562011719,-0.18939264118671417,0.9999845623970032,0.4810276925563812,0.48522821068763733,-0.13388745486736298,0.999691903591156,0.5517405271530151,0.6495455503463745,-0.017686929553747177,0.9997134208679199,0.5000566244125366,0.6369666457176208,0.017424561083316803,0.99876868724823,0.5324802398681641,0.7724804282188416,-0.1500374674797058,0.9572178721427917,0.4735027253627777,0.7519999742507935,-0.07453972101211548,0.8919602632522583,0.5349181890487671,0.9061459302902222,-0.018507514148950577,0.9267914891242981,0.4734428822994232,0.8668617010116577,0.08947698771953583,0.7626911401748657,0.5836313366889954,0.6562984585762024,-0.11629849672317505,0.9727103114128113,0.46388569474220276,0.5961002111434937,-0.014733786694705486,0.7576793432235718,-178.990846946859,0.5258985757827759,0.6432560980319977,88.27959774107065,86.42384500846622,0.5440179911453954,-0.002850046173932427,0.008438241923100057,-0.1761509657266807,-0.05057577298313838,-175.37571297417492,2.2886286622181653,76,1762115110.4238477
0.5209076404571533,0.43147727847099304,-0.26035791635513306,0.999908983707428,0.5667274594306946,0.49283871054649353,-0.17718102037906647,0.9999849796295166,0.48192453384399414,0.48322758078575134,-0.12444021552801132,0.99972003698349,0.5517134070396423,0.651415228843689,-0.017510417848825455,0.999727189540863,0.49939608573913574,0.6373379826545715,0.017237603664398193,0.9988595247268677,0.5324829816818237,0.7722471356391907,-0.17346301674842834,0.9583340883255005,0.47312426567077637,0.752197802066803,-0.10176018625497818,0.8975828886032104,0.5348876118659973,0.9044703841209412,-0.023955492302775383,0.9302980899810791,0.4727870523929596,0.8663591146469116,0.06830736994743347,0.7775099277496338,0.5843328833580017,0.6558272838592529,-0.11141578108072281,0.9706386923789978,0.4638754725456238,0.59722900390625,-0.02189307101070881,0.7766981720924377,-179.5497046992605,0.525554746389389,0.6443766057491302,79.2419467063626,78.02667325719496,0.5349542057472502,-0.005592796698907133,0.018226399435339376,-0.044614120773397006,0.15921609983252316,-173.53398016344835,1.18753234137618,77,1762115110.4853249
0.522297203540802,0.4236312806606293,-0.2689574062824249,0.9999173283576965,0.567995011806488,0.4884590208530426,-0.1669188141822815,0.9999856352806091,0.4845506548881531,0.47898784279823303,-0.11448244005441666,0.9997460842132568,0.5517092943191528,0.6527519226074219,-0.016811400651931763,0.9997423887252808,0.49939531087875366,0.6377454996109009,0.01657065376639366,0.9989532828330994,0.5330025553703308,0.7740390300750732,-0.18146760761737823,0.9605951309204102,0.4741862416267395,0.7508581280708313,-0.150876984000206,0.9051872491836548,0.5350565910339355,0.9014638066291809,0.009316450916230679,0.9341452121734619,0.4729359745979309,0.8648936152458191,0.03404124826192856,0.7953937649726868,0.5844209790229797,0.6554930210113525,-0.1363222748041153,0.9701914191246033,0.4638661742210388,0.5974913835525513,-0.06949669867753983,0.7949817180633545,179.74441711384628,0.5255523025989532,0.6452487111091614,70.15238315064892,65.94530576987229,0.5440479736203968,-3.4701297997819744e-05,0.012383708333051208,0.07892375793869394,-0.08296495561988934,-173.52447478111338,1.7884308652684204,78,1762115110.5557485
0.5227711796760559,0.4182658791542053,-0.27609676122665405,0.9999247789382935,0.5681154131889343,0.4856176972389221,-0.1704331487417221,0.9999864101409912,0.4864324629306793,0.4744693636894226,-0.11092444509267807,0.9997695088386536,0.5516898036003113,0.6531131863594055,-0.01694289967417717,0.999756395816803,0.49948540329933167,0.6380333304405212,0.016718978062272072,0.999038577079773,0.5337860584259033,0.7766985297203064,-0.17567689716815948,0.9627022743225098,0.4758581221103668,0.7519338130950928,-0.1575528085231781,0.9125128388404846,0.5350110530853271,0.8994256854057312,0.040233489125967026,0.9369941353797913,0.4724569320678711,0.864561915397644,0.054576463997364044,0.8103429079055786,0.5841971635818481,0.6557140946388245,-0.1631166785955429,0.970291018486023,0.46386170387268066,0.5979664921760559,-0.06037745624780655,0.809863269329071,179.41631926276318,0.5255876034498215,0.6455732583999634,67.58483461700507,61.44270368340358,0.5657379020264008,0.0004806849466275355,0.004419298496221074,0.007017916095424727,-0.1084498481814923,-172.22812028594637,1.5483777287298455,79,1762115110.629187
0.5247642993927002,0.4136255979537964,-0.264110267162323,0.999931275844574,0.5691203474998474,0.48315027356147766,-0.15907825529575348,0.9999873042106628,0.4882785677909851,0.47080689668655396,-0.10559231042861938,0.999789834022522,0.5514639019966125,0.6540451645851135,-0.016353022307157516,0.999771237373352,0.49951308965682983,0.6382171511650085,0.01613544300198555,0.9991150498390198,0.5350416302680969,0.7799010276794434,-0.16613826155662537,0.9647834300994873,0.47630614042282104,0.7535868883132935,-0.14711707830429077,0.9194456338882446,0.5347772836685181,0.8990733623504639,0.046757910400629044,0.940153181552887,0.47176608443260193,0.8645423650741577,0.06571324914693832,0.8229422569274902,0.5836374163627625,0.6572490930557251,-0.15951599180698395,0.9710883498191833,0.46392279863357544,0.6009183526039124,-0.07461291551589966,0.8234599828720093,178.91250564892005,0.5254884958267212,0.646131157875061,69.35902952774751,63.12558297733932,0.5676953656092614,-0.001381824981301421,0.007778608825729245,-0.02596836313721311,0.04683775867131202,-171.31880557038434,1.3361185455045428,80,1762115110.7009094
0.5265325307846069,0.4085119962692261,-0.23792490363121033,0.9999377131462097,0.5699069499969482,0.4810771048069,-0.13634902238845825,0.999988317489624,0.49051618576049805,0.4669651985168457,-0.09316892921924591,0.9998088479042053,0.5512793660163879,0.6540650129318237,-0.015145172365009785,0.9997882843017578,0.4997267723083496,0.6384050846099854,0.014929063618183136,0.9991891980171204,0.5362915992736816,0.781230092048645,-0.16240829229354858,0.9670963287353516,0.47625836730003357,0.7569520473480225,-0.14176759123802185,0.926211953163147,0.5347082614898682,0.8994148373603821,0.038137856870889664,0.9437647461891174,0.470695436000824,0.8647224307060242,0.06644438207149506,0.8348532915115356,0.583398699760437,0.6591755151748657,-0.14380255341529846,0.9727194905281067,0.4639185965061188,0.6064644455909729,-0.08641181886196136,0.8376461863517761,178.43386673893255,0.5255030691623688,0.6462350487709045,71.41247001163703,64.85428078719852,0.5559218745850475,0.00020803694804266587,0.001483060942488207,0.022695560686192204,-0.08987006129260092,-169.92080632786482,1.31738149800122,81,1762115110.770961
0.5265833735466003,0.4088001251220703,-0.2421044558286667,0.9999434947967529,0.5702944397926331,0.4823000133037567,-0.1402459740638733,0.9999890923500061,0.4914683401584625,0.46732401847839355,-0.09373579919338226,0.9998259544372559,0.5512775182723999,0.6537988185882568,-0.014740225858986378,0.9998019337654114,0.5000990629196167,0.6383616328239441,0.01451392937451601,0.999256432056427,0.5364313721656799,0.781276524066925,-0.16119012236595154,0.9687277674674988,0.4764094352722168,0.7571037411689758,-0.1526174247264862,0.9321355819702148,0.5347102284431458,0.8994851112365723,0.04930787533521652,0.9462641477584839,0.470383882522583,0.8648276329040527,0.06122191622853279,0.8459944725036621,0.5831788778305054,0.6601517796516418,-0.14041107892990112,0.9740539789199829,0.4639214873313904,0.608268678188324,-0.08389515429735184,0.8503984808921814,178.2632413702828,0.5256882905960083,0.6460802257061005,70.44864811246211,62.52672391726636,0.5595287413424445,0.0026999106835661237,-0.0022568038618062773,0.036323207246798266,-0.054514754268983466,-169.2427092690758,1.3403801266941453,82,1762115110.8395638
0.5270782113075256,0.4065147042274475,-0.21836936473846436,0.9999488592147827,0.5703400373458862,0.48244979977607727,-0.12005934864282608,0.9999898672103882,0.49178481101989746,0.4658604562282562,-0.08769570291042328,0.9998415112495422,0.5511606931686401,0.6541650295257568,-0.013312140479683876,0.9998159408569336,0.5003761053085327,0.6396757960319519,0.01307616662234068,0.999319314956665,0.536919355392456,0.7844094038009644,-0.1404048353433609,0.9705321192741394,0.47605079412460327,0.7630093097686768,-0.1378328949213028,0.9377260804176331,0.534692108631134,0.8996189832687378,0.05200592428445816,0.9490103721618652,0.46958404779434204,0.8672638535499573,0.06172267720103264,0.8566464781761169,0.5829163193702698,0.6612355709075928,-0.12874570488929749,0.9757716059684753,0.4637485146522522,0.6137027740478516,-0.08734984695911407,0.8631969690322876,178.2448418360485,0.5257683992385864,0.6469204127788544,76.70172678130865,67.2623769810761,0.5512120023669224,0.0011175934487736407,0.011721426528209256,-0.022074863817110657,0.19500990413231412,-168.07544736939087,1.2175780013968602,83,1762115110.9112434
0.5285642743110657,0.405065655708313,-0.23385794460773468,0.9999536275863647,0.5704911947250366,0.4816545844078064,-0.12189866602420807,0.9999905824661255,0.4923015534877777,0.4633368253707886,-0.09425156563520432,0.999855637550354,0.551307737827301,0.6545102596282959,-0.01238233596086502,0.9998276829719543,0.5011030435562134,0.6412626504898071,0.0121745765209198,0.9993746876716614,0.5371831655502319,0.7848442792892456,-0.14358210563659668,0.9723027944564819,0.47663450241088867,0.7624030113220215,-0.1441965103149414,0.9426372647285461,0.5348667502403259,0.9015921950340271,0.04390070587396622,0.9519466161727905,0.4689818322658539,0.8698186874389648,0.04752511903643608,0.8673664331436157,0.5828169584274292,0.6625470519065857,-0.12762020528316498,0.9771077632904053,0.46343597769737244,0.6192973852157593,-0.0963665097951889,0.8744025826454163,178.30473019195085,0.5262053906917572,0.6478864550590515,76.80871711807822,67.48939952789705,0.556672395802784,0.006124916039819682,0.013540145497562231,0.07018313569273339,0.025491347500018583,-166.81490341757797,1.0412072864299378,84,1762115110.98259
0.5291742086410522,0.4036369323730469,-0.23038241267204285,0.9999580979347229,0.5702313780784607,0.48052534461021423,-0.11449601501226425,0.9999913573265076,0.49208641052246094,0.46308115124702454,-0.09157031029462814,0.9998687505722046,0.5516840219497681,0.6548326015472412,-0.012296420522034168,0.9998406767845154,0.5017825365066528,0.6429895758628845,0.012095218524336815,0.9994271993637085,0.537260115146637,0.7841367721557617,-0.17416176199913025,0.974144697189331,0.4767173230648041,0.7609130144119263,-0.14485879242420197,0.9469789266586304,0.5351098775863647,0.9030306339263916,0.011350379325449467,0.9549025893211365,0.46833714842796326,0.8712388873100281,0.03408319503068924,0.8769875168800354,0.5827009081840515,0.6632182598114014,-0.12287668138742447,0.9782105684280396,0.46284955739974976,0.6262312531471252,-0.10047201067209244,0.8844825029373169,178.56857659831786,0.5267332792282104,0.6489110887050629,71.36403142583764,69.08306159061497,0.5464273927735875,0.007055645312913269,0.013695034240573088,0.012439928469398669,0.0020702098230624606,-167.41625512595436,0.8403801502306261,85,1762115111.0574079
0.5293682813644409,0.40286046266555786,-0.23640084266662598,0.9999619126319885,0.5699652433395386,0.48028260469436646,-0.11745259910821915,0.9999918937683105,0.49199026823043823,0.4629744291305542,-0.09434771537780762,0.9998795390129089,0.5515574216842651,0.6548405289649963,-0.01157110370695591,0.9998484253883362,0.5018705725669861,0.6435698866844177,0.011403956450521946,0.9994670152664185,0.5371878743171692,0.7839415669441223,-0.1669449806213379,0.9756141304969788,0.47750240564346313,0.7588918209075928,-0.13996616005897522,0.9506889581680298,0.5350010395050049,0.9031985998153687,0.014662263914942741,0.9574434161186218,0.46793001890182495,0.8725146651268005,0.030581703409552574,0.8860471248626709,0.582669734954834,0.6633608341217041,-0.12317641824483871,0.9790805578231812,0.46285080909729004,0.6323490738868713,-0.10158883035182953,0.8935854434967041,178.62454670103125,0.5267139971256256,0.649205207824707,73.10346084139788,71.51473295740135,0.5505385298628869,-0.00025758994547215,0.003929142460378128,-0.09769763764838135,-0.1304627189944161,-167.48491497749123,0.7250537097457004,86,1762115111.1322637
0.5295774340629578,0.40285149216651917,-0.238530233502388,0.9999653100967407,0.5698010921478271,0.48010796308517456,-0.11686732620000839,0.9999923706054688,0.49193835258483887,0.462929368019104,-0.09454748034477234,0.999889075756073,0.5515069365501404,0.654849648475647,-0.010967457666993141,0.999854326248169,0.5019498467445374,0.6439778804779053,0.010823652148246765,0.9995003938674927,0.537150502204895,0.7837989926338196,-0.1641388237476349,0.9768580794334412,0.47826462984085083,0.756331205368042,-0.14041276276111603,0.9539320468902588,0.5348995923995972,0.9034662246704102,0.016123194247484207,0.9596125483512878,0.4677008092403412,0.8737525939941406,0.025673191994428635,0.8942644596099854,0.582645058631897,0.6634092330932617,-0.12395262718200684,0.9799088835716248,0.46285295486450195,0.6341246962547302,-0.10041805356740952,0.901677131652832,178.66641676421804,0.5267283916473389,0.6494137644767761,73.75972632584869,72.42979787776225,0.5514194996092866,0.0002074236182924441,0.003005280498572513,0.0067007989478584,-0.013312758474218105,-167.5583393539491,0.6462382507659875,87,1762115111.2016604
0.5301748514175415,0.4026554524898529,-0.2386939525604248,0.9999684691429138,0.5696914792060852,0.47897782921791077,-0.11562483012676239,0.9999929070472717,0.491779088973999,0.46300262212753296,-0.09439205378293991,0.9998982548713684,0.5514171719551086,0.6547644138336182,-0.011127122677862644,0.9998631477355957,0.5019543766975403,0.644309401512146,0.010980364866554737,0.9995352625846863,0.5371977090835571,0.7828997373580933,-0.176640123128891,0.9780823588371277,0.47898203134536743,0.7564201354980469,-0.1315276324748993,0.9564546942710876,0.5347826480865479,0.9035638570785522,0.0067007155157625675,0.9614401459693909,0.4673989713191986,0.8739708065986633,0.03476658836007118,0.9007109999656677,0.5826335549354553,0.6633796095848083,-0.12104891240596771,0.9806778430938721,0.46303772926330566,0.6379575133323669,-0.1023445725440979,0.9092286825180054,178.7007316824117,0.5266857743263245,0.6495369076728821,71.18840547014682,74.03640084035796,0.5517728905103865,-0.0005808399188936259,0.001678343038369554,-0.010743400056779928,-0.018085093769753795,-168.41263868377592,0.5784963939973701,88,1762115111.2750323
0.5306969285011292,0.40241873264312744,-0.2376721203327179,0.9999711513519287,0.569644570350647,0.47748658061027527,-0.11538368463516235,0.9999932646751404,0.4915143847465515,0.46280401945114136,-0.09602068364620209,0.9999067187309265,0.5511165857315063,0.6545096635818481,-0.011319877579808235,0.999872624874115,0.5019551515579224,0.6443086862564087,0.011165453121066093,0.9995718002319336,0.5371540188789368,0.7805487513542175,-0.17804186046123505,0.979541003704071,0.47895580530166626,0.7573565244674683,-0.11177796125411987,0.9590702652931213,0.5345092415809631,0.9036507606506348,-0.0037953886203467846,0.9639482498168945,0.4656231999397278,0.8737139105796814,0.04115201160311699,0.9070273041725159,0.5821075439453125,0.663361668586731,-0.1212754026055336,0.97995924949646,0.46540719270706177,0.6491391658782959,-0.10861698538064957,0.9155391454696655,178.7078130348336,0.5265358686447144,0.6494091749191284,72.42126841644442,80.53399684889766,0.5505507022322704,-0.0023610589560645887,-0.002011828764551258,-0.028038977951491996,-0.05812130061463753,-169.35686106326054,0.5061032694372097,89,1762115111.3385231
0.5312600135803223,0.40094253420829773,-0.22643467783927917,0.9999735951423645,0.5692907571792603,0.4748202860355377,-0.10099698603153229,0.9999935626983643,0.4914451241493225,0.46131622791290283,-0.09691258519887924,0.9999146461486816,0.5509294271469116,0.6535130739212036,-0.011226060800254345,0.9998832941055298,0.501954197883606,0.6443431973457336,0.01108391024172306,0.99960857629776,0.53711998462677,0.7782666683197021,-0.17590658366680145,0.9811041355133057,0.4793996810913086,0.7630065083503723,-0.05286867544054985,0.9609683752059937,0.5342563986778259,0.9034729599952698,-0.014149041846394539,0.966505229473114,0.4643399119377136,0.8736683130264282,0.13045315444469452,0.910305917263031,0.5817046165466309,0.662124514579773,-0.10419753938913345,0.978455126285553,0.46828722953796387,0.6558916568756104,-0.10870267450809479,0.9217621088027954,178.75641159887468,0.5264418125152588,0.6489281356334686,74.97862151452338,93.4141506135821,0.5655018441941627,-0.0011939530590318237,-0.006106335971429869,0.014815298737491078,-0.051975872632416154,-170.15870831617667,0.4380530401293385,90,1762115111.4173002
0.5316071510314941,0.4000493884086609,-0.19523121416568756,0.9999755620956421,0.5685864686965942,0.47236883640289307,-0.07012248039245605,0.9999937415122986,0.4912211298942566,0.45997557044029236,-0.08044220507144928,0.9999209642410278,0.550801157951355,0.6519483923912048,-0.009015596471726894,0.9998927712440491,0.501936674118042,0.6444724798202515,0.00892004556953907,0.9996393322944641,0.5371071100234985,0.7712677717208862,-0.18744811415672302,0.9824077486991882,0.4805801510810852,0.7634795904159546,-0.03546391800045967,0.9619693160057068,0.534134030342102,0.9027377367019653,-0.05532083660364151,0.9685460329055786,0.46284931898117065,0.8738417625427246,0.131102055311203,0.9118335247039795,0.5815693736076355,0.6577163934707642,-0.06359583884477615,0.9758187532424927,0.47062426805496216,0.6545082330703735,-0.10193916410207748,0.9262510538101196,178.88754995022083,0.5263689160346985,0.6482104361057281,78.71257607310153,103.70110160047919,0.5420526447627697,-0.000992524013724911,-0.009771857440115824,0.0027425626448921614,-0.04990800725263308,-170.8990278102454,0.3414371024141503,91,1762115111.4907458
0.5315369367599487,0.39984554052352905,-0.1945575773715973,0.999977171421051,0.5681440234184265,0.4714876711368561,-0.06750123202800751,0.9999938011169434,0.4910496771335602,0.45897647738456726,-0.07804268598556519,0.9999265074729919,0.5507006645202637,0.6512448787689209,-0.007814202457666397,0.999901294708252,0.5019199252128601,0.6446632742881775,0.007738790009170771,0.9996667504310608,0.5370873212814331,0.7677083611488342,-0.19645200669765472,0.9835777282714844,0.4811142086982727,0.7640531659126282,-0.03015182912349701,0.9627101421356201,0.5340082049369812,0.901817262172699,-0.06626875698566437,0.9703099727630615,0.462269127368927,0.8739822506904602,0.13799835741519928,0.9127019643783569,0.5815027952194214,0.6561121344566345,-0.055937666445970535,0.9725504517555237,0.4715496003627777,0.6541211009025574,-0.09557700902223587,0.9301097989082336,178.96955238641084,0.5263102948665619,0.6479540765285492,77.62687159514205,106.19302887407157,0.5407465526822277,-0.0010540632073530421,-0.004609583990671514,-0.0011065320237638246,0.0928224851588675,-170.7821609033083,0.29978343334548874,92,1762115111.5463603
0.5312414169311523,0.39979124069213867,-0.16991761326789856,0.999978244304657,0.5672909021377563,0.4713570475578308,-0.05355511233210564,0.9999935626983643,0.4903627932071686,0.4586399793624878,-0.06525778770446777,0.9999300241470337,0.5505196452140808,0.6505272388458252,-0.0058595770969986916,0.9999054074287415,0.50175940990448,0.6446784138679504,0.005791875999420881,0.9996799826622009,0.5371199250221252,0.7648611068725586,-0.19312229752540588,0.9843268394470215,0.48128247261047363,0.7639017105102539,-0.034467071294784546,0.963097333908081,0.5339796543121338,0.9018179178237915,-0.06951119005680084,0.9715081453323364,0.4599336087703705,0.8787438869476318,0.12020786106586456,0.9152028560638428,0.5813804268836975,0.653643786907196,-0.03613555431365967,0.9699806571006775,0.47267431020736694,0.6509354114532471,-0.07207868248224258,0.9316616058349609,179.15686007646943,0.5261395275592804,0.6476028263568878,79.42064557544171,108.64823473766188,0.5290409676835099,-0.0021762182264543064,-0.004476249217624861,-0.014300478495276913,0.0016991868522349197,-170.6132650023036,0.21945248046270582,93,1762115111.62483
0.5310778021812439,0.3994818329811096,-0.14398789405822754,0.999977707862854,0.5665592551231384,0.4719570577144623,-0.03732471913099289,0.9999924898147583,0.48946624994277954,0.45864295959472656,-0.056846968829631805,0.9999301433563232,0.5497211813926697,0.6503888368606567,-0.0015189900295808911,0.9999049305915833,0.50062096118927,0.6450095176696777,0.0014514254871755838,0.9996758699417114,0.5374988317489624,0.7642183899879456,-0.16399931907653809,0.9845240712165833,0.4812113344669342,0.7670438289642334,-0.021699141710996628,0.9621959924697876,0.5339788794517517,0.902290940284729,-0.07306860387325287,0.9715689420700073,0.4584583640098572,0.8870435953140259,0.0928942859172821,0.9155001044273376,0.5813824534416199,0.6525036096572876,-0.021004799753427505,0.9652166962623596,0.47340092062950134,0.6499903798103333,-0.060558538883924484,0.9308596253395081,179.10743468769672,0.5251710712909698,0.6476991772651672,91.7178073377495,126.18958964320461,0.5197203224582161,-0.015539105984965858,0.0015459727243166733,-0.21441064087173559,0.09662795118675291,-170.20157044216484,0.21630368001941402,94,1762115111.6871538
0.5311333537101746,0.39968258142471313,-0.1478762924671173,0.999978244304657,0.5655903816223145,0.4723799526691437,-0.04060325026512146,0.9999920725822449,0.4884633421897888,0.45882466435432434,-0.05988404154777527,0.9999316334724426,0.5495842099189758,0.650300145149231,-8.548634650651366e-05,0.9998989701271057,0.5002622604370117,0.6455901861190796,5.8712437748908997e-05,0.9996684789657593,0.5377339124679565,0.7639585137367249,-0.15343590080738068,0.9843724370002747,0.4811449944972992,0.7702895402908325,-0.031476013362407684,0.9614377021789551,0.5339935421943665,0.899619996547699,-0.05270180106163025,0.9698812961578369,0.45836693048477173,0.8976936936378479,0.06622393429279327,0.9156092405319214,0.5814098119735718,0.6514309644699097,-0.03788807988166809,0.9649617075920105,0.4735299050807953,0.6492966413497925,-0.06537656486034393,0.9322659969329834,179.33902765222194,0.5249232351779938,0.6479451656341553,90.02795544424325,128.8974394935747,0.5235549150195019,-0.0038888306946398108,0.0038598374884027177,0.18280607941263768,0.03630717174252967,-170.0319127353317,0.1586419517390053,95,1762115111.750884
0.5310294032096863,0.3990025818347931,-0.1295095980167389,0.9999788403511047,0.5640284419059753,0.4726567566394806,-0.025603482499718666,0.9999916553497314,0.48702722787857056,0.459004670381546,-0.04925042763352394,0.9999330043792725,0.5489881634712219,0.6499202847480774,0.001272037043236196,0.9998908638954163,0.49930351972579956,0.6461533308029175,-0.0012467296328395605,0.9996567964553833,0.5378612279891968,0.7630645036697388,-0.15018755197525024,0.9841201305389404,0.4806841313838959,0.7738926410675049,-0.02761898934841156,0.9597490429878235,0.5343959331512451,0.899088978767395,-0.06965459883213043,0.9676584005355835,0.4579738974571228,0.9058592319488525,0.056138575077056885,0.9129112958908081,0.5813199281692505,0.6508212089538574,-0.042654745280742645,0.9641273617744446,0.4734729826450348,0.6507708430290222,-0.062441933900117874,0.9320691227912903,179.56543240227703,0.5241458415985107,0.6480368077754974,96.19501779957201,136.40229806551213,0.5193897045918319,-0.009732773159410773,0.0011473366864170262,-0.07316469786653942,-0.033959831541190075,-169.94610537321893,0.1055862305554601,96,1762115111.8307579
0.530951976776123,0.3992626667022705,-0.13317903876304626,0.9999794960021973,0.5633789896965027,0.47287291288375854,-0.027317514643073082,0.999991238117218,0.48635369539260864,0.4591273069381714,-0.05143530294299126,0.9999340772628784,0.5489444732666016,0.6497950553894043,0.0016682632267475128,0.9998806118965149,0.4991910457611084,0.6465528011322021,-0.0016411158721894026,0.999639093875885,0.5379343628883362,0.7620941400527954,-0.15172408521175385,0.983860194683075,0.48059096932411194,0.7742704749107361,-0.029208946973085403,0.9584792852401733,0.5347123742103577,0.8990611433982849,-0.0828602984547615,0.9658611416816711,0.45787376165390015,0.9080108404159546,0.04367292672395706,0.9111563563346863,0.5813134908676147,0.6510298252105713,-0.03664744645357132,0.9633802175521851,0.4733640253543854,0.6499903798103333,-0.06301522254943848,0.9312806129455566,179.74883798020272,0.524067759513855,0.6481739282608032,99.56788661815085,139.6712331613258,0.5180680060265199,-0.0011800441030223542,0.002072283556490783,0.12925625042202762,0.013978598348795232,-169.88175206747582,0.061568712559117875,97,1762115111.8969266
0.5308948159217834,0.3994237780570984,-0.1409321129322052,0.9999802112579346,0.5631245374679565,0.4730421304702759,-0.03189309686422348,0.9999911189079285,0.48599424958229065,0.4589588940143585,-0.05169108510017395,0.9999369978904724,0.5489538908004761,0.6498227715492249,0.0013900042977184057,0.9998604655265808,0.49923357367515564,0.6473075747489929,-0.001350026810541749,0.9996134042739868,0.5384894013404846,0.7626427412033081,-0.15439122915267944,0.9827746748924255,0.48056548833847046,0.7735922932624817,-0.03848354518413544,0.9563744068145752,0.5367283225059509,0.8908743858337402,-0.06620478630065918,0.9586364030838013,0.45825427770614624,0.9091973900794983,0.03742068633437157,0.906735360622406,0.5811859369277954,0.6501418948173523,-0.04174267500638962,0.9635787606239319,0.47320985794067383,0.6498403549194336,-0.06551207602024078,0.9333082437515259,179.8538579785755,0.5240937322378159,0.6485651731491089,91.42908841102893,134.85661862044557,0.5174366308815549,0.0003434986331001037,0.005174354624599153,0.020149401661372603,0.04102600764092693,-169.65234017236511,0.038685360824359624,98,1762115111.972539
0.5307339429855347,0.3993534445762634,-0.14719316363334656,0.9999809861183167,0.5628949403762817,0.4728005826473236,-0.04134664312005043,0.9999909400939941,0.4856136441230774,0.4590011239051819,-0.054868631064891815,0.9999407529830933,0.5488327741622925,0.6504776477813721,0.0006795483059249818,0.9998490214347839,0.4992637634277344,0.6489432454109192,-0.0006695620832033455,0.9996227025985718,0.539065957069397,0.7731555700302124,-0.14425519108772278,0.9804160594940186,0.48046308755874634,0.7749501466751099,-0.04202728718519211,0.9530174732208252,0.5410054326057434,0.8770887851715088,0.022182365879416466,0.9376534223556519,0.4583986699581146,0.9119609594345093,0.04871706664562225,0.9025940895080566,0.5809687376022339,0.6496241092681885,-0.04694690182805061,0.9646773934364319,0.47320669889450073,0.6501556634902954,-0.07669059932231903,0.9363734722137451,179.93577990529985,0.5240482687950134,0.6497104465961456,72.22388451794241,128.82902347254642,0.5286928623655739,-0.000537620387495489,0.013543240820101046,-0.010419526548854703,0.09896487291743271,-169.87588353919114,0.02047240499904065,99,1762115112.0571032
0.5296721458435059,0.39889365434646606,-0.1360280066728592,0.9999818801879883,0.5624912977218628,0.4723704159259796,-0.04021226242184639,0.9999908208847046,0.48511114716529846,0.45905813574790955,-0.051675945520401,0.999943733215332,0.5484305024147034,0.651034951210022,-0.0002285451628267765,0.9998435974121094,0.49924835562705994,0.6498652100563049,0.0002248796372441575,0.9996342658996582,0.5398865342140198,0.780686616897583,-0.08416080474853516,0.9787484407424927,0.4801742434501648,0.7756322026252747,-0.042634863406419754,0.952602207660675,0.5455999374389648,0.9020333290100098,0.02225991152226925,0.9368603229522705,0.45988431572914124,0.9135176539421082,0.050038743764162064,0.9043522477149963,0.5804710984230042,0.6493500471115112,-0.04497188329696655,0.9655502438545227,0.47341570258140564,0.6512640118598938,-0.06465541571378708,0.9385321736335754,-179.98815023649482,0.5238394290208817,0.6504500806331635,105.67971182014783,127.75532176687157,0.5378949567990886,-0.0023683587941057183,0.008387859943220225,-0.02076158827037694,-0.05846487666195683,-170.23853726567427,0.005241487547152342,100,1762115112.1452823
0.5294199585914612,0.3984846770763397,-0.13056613504886627,0.9999827146530151,0.5622172951698303,0.47200724482536316,-0.03718538582324982,0.999990701675415,0.4848993420600891,0.45907530188560486,-0.04856190085411072,0.9999464750289917,0.5481114983558655,0.6511561274528503,-0.0005255619180388749,0.9998359084129333,0.4991814196109772,0.6500004529953003,0.0005208113580010831,0.9996444582939148,0.5403003096580505,0.7821924090385437,-0.08034094423055649,0.9771322011947632,0.479971706867218,0.7760616540908813,-0.04372340813279152,0.9525063037872314,0.5462547540664673,0.9023634195327759,0.03163282200694084,0.9352846145629883,0.46078094840049744,0.9142893552780151,0.04815569519996643,0.9063258767127991,0.5801401138305664,0.6491362452507019,-0.04207514971494675,0.9664703607559204,0.4734712243080139,0.6510976552963257,-0.0604594349861145,0.9405849575996399,-179.97270778128026,0.5236464589834213,0.6505782902240753,105.53481844159134,127.49778854634097,0.5382064980664438,-0.0020494190094928456,0.00136163715503293,0.0033872681275897965,-0.07462129736075376,-170.50479019080566,0.013315950667648978,101,1762115112.2394407
0.5293110013008118,0.3977731168270111,-0.11459410190582275,0.9999836087226868,0.561861515045166,0.47151100635528564,-0.031759485602378845,0.9999905824661255,0.48485055565834045,0.45900261402130127,-0.04187898710370064,0.9999483823776245,0.5480119585990906,0.6510204076766968,-0.0009458274580538273,0.9998257756233215,0.4991287589073181,0.6499459743499756,0.0009168085525743663,0.9996501803398132,0.5408462285995483,0.7813210487365723,-0.05547674372792244,0.9776506423950195,0.4799628257751465,0.7761608362197876,-0.03647737205028534,0.9549380540847778,0.5493588447570801,0.9050190448760986,0.021612580865621567,0.9390342235565186,0.46199092268943787,0.9159383773803711,0.025159860029816628,0.9123702049255371,0.5795214176177979,0.6478492021560669,-0.04516810178756714,0.9675555229187012,0.473562091588974,0.6510270833969116,-0.05620204284787178,0.9416059851646423,-179.9337037153183,0.5235703587532043,0.6504831910133362,125.02914034552637,140.02712135176145,0.5314736699392533,-0.0011132182404743221,-0.0013911413375185281,0.013695040998508917,-0.04026851457815869,-170.77438216149014,0.04530533807463957,102,1762115112.3078012
0.5291334986686707,0.39726847410202026,-0.1028183251619339,0.999984860420227,0.5615203976631165,0.4712968170642853,-0.02412247657775879,0.9999907612800598,0.4846664369106293,0.45903700590133667,-0.03553082421422005,0.9999514222145081,0.5475497245788574,0.6508832573890686,-0.0010170713067054749,0.9998268485069275,0.49868330359458923,0.6499015688896179,0.0009740842506289482,0.9996652603149414,0.5412129163742065,0.7808777093887329,-0.05310968682169914,0.9788013696670532,0.4799574315547943,0.778635561466217,-0.018223999068140984,0.9576783776283264,0.5530416965484619,0.9087369441986084,-0.0034987349063158035,0.9435834288597107,0.4633602499961853,0.9185270667076111,0.021905656903982162,0.9187031984329224,0.5790628790855408,0.6477579474449158,-0.04028962180018425,0.9681023955345154,0.47361770272254944,0.6510685086250305,-0.047513704746961594,0.9430537223815918,-179.992855470046,0.5231165140867233,0.6503924131393433,136.34063841742181,155.65212878142316,0.5287895117184955,-0.005464166178682558,-0.0010929408792899544,-0.0523842281842931,0.003590252301419,-170.9364916229508,0.009683377975789914,103,1762115112.3908596
0.5289282202720642,0.39664778113365173,-0.10776233673095703,0.9999855160713196,0.5613158345222473,0.4711555540561676,-0.023406432941555977,0.9999905228614807,0.4845835268497467,0.4590560793876648,-0.03902474045753479,0.9999534487724304,0.5471125841140747,0.6506489515304565,-0.0011191719677299261,0.9998194575309753,0.49850407242774963,0.6497966051101685,0.001074394560419023,0.9996664524078369,0.5417482852935791,0.783292829990387,-0.04258299991488457,0.9785301685333252,0.47999149560928345,0.7798476219177246,-0.013573604635894299,0.9576677680015564,0.5573433637619019,0.9221534132957458,-0.011034967377781868,0.9456515908241272,0.46441978216171265,0.9202895164489746,0.032915905117988586,0.9198290705680847,0.578964114189148,0.6478821039199829,-0.029790809378027916,0.9674094915390015,0.4737091660499573,0.6508921980857849,-0.04628307372331619,0.9428505301475525,179.95624984785638,0.5228083282709122,0.6502227783203125,148.71725393631186,155.35708553219823,0.5381390036114299,-0.00476250566471518,-0.0026214275450690268,0.010843010940270615,-0.023620251259957287,-171.039141674072,11.145460235742533,104,1762115112.4555705
0.5277625918388367,0.3965744376182556,-0.1121501699090004,0.9999856948852539,0.5612359642982483,0.47122907638549805,-0.026593279093503952,0.9999898672103882,0.48455533385276794,0.45906588435173035,-0.0410180501639843,0.9999551177024841,0.5469536781311035,0.65064537525177,-0.001076884800568223,0.999810516834259,0.4983583986759186,0.6497625708580017,0.0010305175092071295,0.9996680021286011,0.5424281358718872,0.7860121130943298,-0.04810898378491402,0.9778121113777161,0.48014917969703674,0.7827210426330566,-0.01640913262963295,0.9569574594497681,0.5584003925323486,0.9261916875839233,-0.008232520893216133,0.9461775422096252,0.4653567373752594,0.920831561088562,0.04071507975459099,0.9190492630004883,0.5788522958755493,0.6479695439338684,-0.033146508038043976,0.9671649932861328,0.4736863672733307,0.6519454717636108,-0.04738627001643181,0.9437981247901917,179.92581361312753,0.522656038403511,0.6502039730548859,144.09679102655463,150.18965556077643,0.5425859059355457,-0.0018239889889604048,-0.00022523229981096193,0.03519486983553389,0.028699438888064567,-170.9867536988771,0.4054963020060668,105,1762115112.5390632
0.5271259546279907,0.39662694931030273,-0.11730040609836578,0.9999860525131226,0.5610913038253784,0.47126370668411255,-0.02971627190709114,0.9999895691871643,0.48455578088760376,0.45911920070648193,-0.043069351464509964,0.9999566674232483,0.5469449758529663,0.6504937410354614,-0.0011680674506351352,0.9998049139976501,0.49836650490760803,0.6497430801391602,0.001120688277296722,0.9996717572212219,0.542829155921936,0.7865906357765198,-0.04992194101214409,0.9773948192596436,0.48014459013938904,0.7857558131217957,-0.017717160284519196,0.9566547274589539,0.5589147210121155,0.9277125597000122,-0.0027302545495331287,0.9468313455581665,0.4661060869693756,0.9204939007759094,0.05290602520108223,0.9184744954109192,0.5787398815155029,0.6480324268341064,-0.03632591292262077,0.967547595500946,0.47366863489151,0.652215301990509,-0.0497979111969471,0.9450806975364685,179.94801005460042,0.5226557403802872,0.6501184105873108,141.0690307703681,144.60796771105882,0.5465521629235305,-4.489233023516398e-06,-0.001288858801051558,0.027407791528368773,-0.01602179572430879,-170.9835909654799,0.1637841927103141,106,1762115112.6054494
