nose_x,nose_y,nose_z,nose_visibility,left_shoulder_x,left_shoulder_y,left_shoulder_z,left_shoulder_visibility,right_shoulder_x,right_shoulder_y,right_shoulder_z,right_shoulder_visibility,left_hip_x,left_hip_y,left_hip_z,left_hip_visibility,right_hip_x,right_hip_y,right_hip_z,right_hip_visibility,left_knee_x,left_knee_y,left_knee_z,left_knee_visibility,right_knee_x,right_knee_y,right_knee_z,right_knee_visibility,left_ankle_x,left_ankle_y,left_ankle_z,left_ankle_visibility,right_ankle_x,right_ankle_y,right_ankle_z,right_ankle_visibility,left_wrist_x,left_wrist_y,left_wrist_z,left_wrist_visibility,right_wrist_x,right_wrist_y,right_wrist_z,right_wrist_visibility,trunk_lateral_inclination,center_mass_x,center_mass_y,left_knee_angle,right_knee_angle,person_height,center_mass_velocity_x,center_mass_velocity_y,center_mass_acceleration_x,center_mass_acceleration_y,body_orientation,torso_leg_ratio,frame,timestamp
0.5281294584274292,0.17788022756576538,-0.6007158160209656,0.9999823570251465,0.6009389162063599,0.36646541953086853,-0.333777517080307,0.9999339580535889,0.44171208143234253,0.34872451424598694,-0.30847200751304626,0.9998748302459717,0.5489792823791504,0.7256065607070923,0.0006762291886843741,0.9997133612632751,0.46042078733444214,0.7200711369514465,-0.0006493614055216312,0.9995632767677307,0.5465680956840515,0.9523566961288452,0.06938010454177856,0.9533283710479736,0.46628132462501526,0.9528313279151917,0.1219150573015213,0.9357191324234009,0.55534827709198,1.1085000038146973,0.4977421760559082,0.7980786561965942,0.4674474596977234,1.0940804481506348,0.5275910496711731,0.6745337843894958,0.6170706152915955,0.7851941585540771,-0.2638604938983917,0.9686323404312134,0.37987130880355835,0.7313976883888245,-0.27941665053367615,0.9057409763336182,177.39376376740105,0.5047000348567963,0.7228388488292694,126.85928378968342,136.9562097359371,1.446577479511582,0.0,0.0,0.0,0.0,-173.64237947965128,3.3423673231374846,0,1762115134.6786215
0.5291882157325745,0.17888464033603668,-0.42768850922584534,0.999981164932251,0.6020206212997437,0.3662165701389313,-0.24448776245117188,0.9999284148216248,0.44263672828674316,0.34805065393447876,-0.23910219967365265,0.9998716115951538,0.55193030834198,0.7261950373649597,0.001022876356728375,0.9996828436851501,0.4636000692844391,0.722090482711792,-0.0009923160541802645,0.999531090259552,0.54975426197052,0.9585886001586914,0.031401991844177246,0.9522489309310913,0.4675041139125824,0.9543747901916504,0.09061528742313385,0.9357638955116272,0.5618034601211548,1.1132551431655884,0.336108535528183,0.7881733775138855,0.47187677025794983,1.0140132904052734,0.40922030806541443,0.6624913215637207,0.6213313937187195,0.7851763963699341,-0.14425677061080933,0.9693043828010559,0.38734012842178345,0.7332674860954285,-0.17046219110488892,0.9099795818328857,177.72760779872394,0.5077651888132095,0.7241427600383759,124.31040597908816,122.13158393088078,1.1931048163556044,0.04680014670336071,0.01990870172986196,0.7145656507313058,0.30397499599702565,-173.49772333792322,1.7734553096021202,1,1762115134.744116
0.5297025442123413,0.17956407368183136,-0.4209132790565491,0.9999802708625793,0.6024435758590698,0.3650114834308624,-0.23513901233673096,0.999924898147583,0.4432193338871002,0.34752005338668823,-0.2335667610168457,0.999870240688324,0.5539635419845581,0.7263649106025696,0.0011334613664075732,0.9996634721755981,0.4655744433403015,0.7236613035202026,-0.0010992682073265314,0.9995055794715881,0.5516636967658997,0.9643446803092957,0.021355412900447845,0.9511427283287048,0.46757715940475464,0.9577383995056152,0.092046357691288,0.9350973963737488,0.566919207572937,1.1333867311477661,0.29871493577957153,0.7806673049926758,0.47196492552757263,1.005347490310669,0.40967226028442383,0.6480834484100342,0.6236506700515747,0.7836859822273254,-0.13611721992492676,0.9700266718864441,0.39016589522361755,0.7340389490127563,-0.1691492646932602,0.9140224456787109,177.9712093941506,0.5097689926624298,0.7250131070613861,126.13723742787296,120.22619723448881,1.180103975525278,0.0235126199821513,0.01021264572008874,-0.2732556713737499,-0.11377345161412078,-173.7309632019328,1.329832331434729,2,1762115134.8293386
0.5305761694908142,0.17973819375038147,-0.45030418038368225,0.9999797344207764,0.6064936518669128,0.3650570809841156,-0.25989919900894165,0.9999211430549622,0.4440764784812927,0.3474825620651245,-0.2479935884475708,0.9998697638511658,0.5567317605018616,0.7264920473098755,-0.0009298577788285911,0.9996485710144043,0.46804600954055786,0.7240418195724487,0.0009523302433080971,0.9994806051254272,0.5535246729850769,0.9638477563858032,0.014594679698348045,0.9504392147064209,0.4679422378540039,0.9576106667518616,0.1036703959107399,0.9340035915374756,0.5692504048347473,1.1302495002746582,0.33087512850761414,0.7743244171142578,0.4723983705043793,1.0043643712997437,0.44893065094947815,0.6398011445999146,0.6292392015457153,0.7850327491760254,-0.13982443511486053,0.9699710607528687,0.4003581404685974,0.734254777431488,-0.1309354305267334,0.9174817204475403,177.99836896045696,0.5123888850212097,0.7252669334411621,121.41464446642043,121.44699336560411,1.2222198205544232,0.03455162167685946,0.0033475089219739966,0.14558438210926855,-0.09053868515377195,-173.82427878418568,1.2778702664064971,3,1762115134.905164
0.5305033922195435,0.18051916360855103,-0.45385822653770447,0.9999802112579346,0.6080492734909058,0.36630627512931824,-0.26027435064315796,0.9999157786369324,0.44443613290786743,0.34881532192230225,-0.2520750164985657,0.9998717308044434,0.557376503944397,0.7265498042106628,-0.001108952215872705,0.9996285438537598,0.4683169424533844,0.7255421876907349,0.0011242632754147053,0.9994563460350037,0.5542349219322205,0.9634628891944885,0.02310148812830448,0.9491462111473083,0.4681169390678406,0.958400547504425,0.10525619983673096,0.933738112449646,0.5688510537147522,1.1295408010482788,0.3684781789779663,0.7646081447601318,0.4723207950592041,1.00059175491333,0.4599224925041199,0.629831850528717,0.6360587477684021,0.7882996201515198,-0.11133144050836563,0.9684974551200867,0.40703922510147095,0.7379953265190125,-0.12233829498291016,0.9200590252876282,177.9179753789589,0.5128467231988907,0.7260459959506989,121.45319299058903,120.87438318027202,1.2393738827561023,0.005588574679727834,0.009509580517673902,-0.3535357228525531,0.07521696305194346,-173.89800825533035,1.4234394540490742,4,1762115134.987088
0.529549777507782,0.1809203028678894,-0.4834328591823578,0.9999803900718689,0.6082786321640015,0.3673965036869049,-0.27063775062561035,0.9999110698699951,0.44420868158340454,0.34951749444007874,-0.26086941361427307,0.9998734593391418,0.557476818561554,0.7264593243598938,-0.0008076525991782546,0.9995843172073364,0.46812891960144043,0.7261332273483276,0.0007993752951733768,0.999422013759613,0.5541192293167114,0.9619317650794983,0.036917392164468765,0.9449925422668457,0.4681302607059479,0.9593930840492249,0.10607105493545532,0.9329625368118286,0.5694574117660522,1.1144909858703613,0.44682687520980835,0.7491529583930969,0.4710922837257385,1.0151883363723755,0.47317710518836975,0.6297591924667358,0.6426662802696228,0.7894610166549683,-0.13664108514785767,0.967707633972168,0.4100167751312256,0.7394714951515198,-0.15006253123283386,0.9202105402946472,177.90735247432633,0.5128028690814972,0.7262962758541107,119.46024010952472,122.93045568262256,1.2928529580910288,-0.0005208289090306742,0.0029724234984978607,-0.07255770256211484,-0.07763787212748262,-173.78091127250033,1.4687615451454816,5,1762115135.0712886
0.527023196220398,0.1822473257780075,-0.4911623001098633,0.9999801516532898,0.608083963394165,0.36798205971717834,-0.2742869555950165,0.9999046921730042,0.4431988596916199,0.3499739170074463,-0.2642371952533722,0.999874472618103,0.5572683811187744,0.7264986038208008,-0.0007729767239652574,0.9995334148406982,0.4680027365684509,0.7276371717453003,0.0007572814356535673,0.9993821382522583,0.5539562702178955,0.9617339372634888,0.03945041075348854,0.9408188462257385,0.4681337773799896,0.9618777632713318,0.11214761435985565,0.9318780899047852,0.569412350654602,1.1105248928070068,0.46050649881362915,0.7357912063598633,0.47055119276046753,1.0264220237731934,0.4797501564025879,0.6328134536743164,0.6436394453048706,0.792995035648346,-0.13712503015995026,0.965991735458374,0.4098215103149414,0.7409422397613525,-0.13166721165180206,0.9190618395805359,177.97638947451705,0.5126355588436127,0.7270678877830505,119.11145717834862,125.39039806816275,1.3074884361037094,-0.0018709391888108906,0.008628515592715135,-0.01509754730849576,0.06324899473216013,-173.76707055233032,1.4551599387555703,6,1762115135.1628275
0.5259850025177002,0.18329299986362457,-0.492573082447052,0.9999799132347107,0.6080204248428345,0.367989718914032,-0.27082282304763794,0.9998989701271057,0.4424196779727936,0.35025325417518616,-0.26594239473342896,0.9998761415481567,0.5571109056472778,0.7267690300941467,-0.0005852301837876439,0.9994954466819763,0.4679511487483978,0.7290664911270142,0.0005651204264722764,0.9993497133255005,0.5538166761398315,0.9617233872413635,0.040238700807094574,0.9369189143180847,0.46819162368774414,0.9647693037986755,0.11261328309774399,0.930292010307312,0.5709483623504639,1.1120827198028564,0.4493671953678131,0.7215508222579956,0.4702227711677551,1.0377154350280762,0.4837639331817627,0.629644513130188,0.6436849236488342,0.7929321527481079,-0.12967844307422638,0.9639113545417786,0.40961140394210815,0.7417820692062378,-0.14399078488349915,0.9185197353363037,178.02942464535164,0.5125310271978378,0.7279177606105804,119.97091956788103,126.5439393082721,1.3095562206599969,-0.0011941222290917112,0.009708562681969589,0.007731650742090006,0.012337969312398884,-173.8867104055659,1.3241987292768687,7,1762115135.2482529
0.5218217968940735,0.18310269713401794,-0.504423975944519,0.9999796152114868,0.6076391935348511,0.3683258891105652,-0.27254873514175415,0.9998878240585327,0.44075411558151245,0.35078394412994385,-0.27492398023605347,0.9998754262924194,0.557110071182251,0.7259174585342407,-0.000550094700884074,0.9994591474533081,0.46778956055641174,0.72902512550354,0.0005195370758883655,0.999321699142456,0.5537262558937073,0.9578230381011963,0.05891064926981926,0.9352797269821167,0.4681686758995056,0.9644749164581299,0.12752123177051544,0.9297738075256348,0.5711490511894226,1.108335018157959,0.4745195806026459,0.7183912396430969,0.46930021047592163,1.0386897325515747,0.5125234127044678,0.6353815197944641,0.6440138816833496,0.7892112731933594,-0.11580823361873627,0.9610763788223267,0.40896135568618774,0.7421346306800842,-0.1441018432378769,0.9174176454544067,178.17128085547301,0.5124498158693314,0.7274712920188904,124.21548744794912,129.25282603598538,1.3374330309542988,-0.0010022361820134465,-0.005509908345960896,0.0023680826646008094,-0.18781249586257173,-173.99945108501313,1.2660734929585709,8,1762115135.329283
0.5181853175163269,0.18324460089206696,-0.500933825969696,0.9999796748161316,0.6051144599914551,0.36835402250289917,-0.2733221650123596,0.9998844265937805,0.43789392709732056,0.3518771231174469,-0.27473005652427673,0.9998735189437866,0.5569735765457153,0.725944459438324,-0.0005304812802933156,0.9994387626647949,0.4676816463470459,0.7299470901489258,0.0004952740273438394,0.999304473400116,0.5534130334854126,0.9523535966873169,0.06584640592336655,0.9351875185966492,0.4677618145942688,0.9603630900382996,0.12997768819332123,0.9298543334007263,0.5696607232093811,1.090327501296997,0.4948437213897705,0.7190521359443665,0.4675423204898834,1.013249397277832,0.5216711163520813,0.6392155289649963,0.6435626745223999,0.7892018556594849,-0.13308927416801453,0.960940420627594,0.4084944725036621,0.744626522064209,-0.13127079606056213,0.917392909526825,178.57088846602772,0.5123276114463806,0.7279457747936249,124.10081261879115,127.0229552923525,1.3314787112358994,-0.0012757419557166182,0.004953319760264426,-0.002855238642094868,0.1092299179116057,-174.37258576925197,1.1449120541981062,9,1762115135.4250739
0.5133488774299622,0.18329524993896484,-0.4433268904685974,0.9999801516532898,0.5993527173995972,0.36440685391426086,-0.25053268671035767,0.9998849034309387,0.4345221519470215,0.3532258868217468,-0.24417603015899658,0.9998741149902344,0.5567706823348999,0.7253661155700684,-0.0005052809137851,0.9994136095046997,0.46759551763534546,0.7303959131240845,0.0004713023081421852,0.999290943145752,0.5530669093132019,0.9473280906677246,0.06720031052827835,0.9352997541427612,0.4671657085418701,0.9589369297027588,0.12842926383018494,0.930615246295929,0.5695117712020874,1.0929471254348755,0.441687673330307,0.725121796131134,0.4622986316680908,1.0186432600021362,0.4471030831336975,0.6476500630378723,0.643231987953186,0.7824421525001526,-0.1358591616153717,0.9620318412780762,0.4011222720146179,0.7496044635772705,-0.14279687404632568,0.9198842644691467,179.2619497705402,0.5121830999851227,0.7278810143470764,128.1204406797164,129.8517129813152,1.2447142287648443,-0.0016902820459907305,-0.0007574722387993106,-0.004848678892555565,-0.06679642638984765,-176.1193947481171,0.8211438609584657,10,1762115135.5105693
0.5069025158882141,0.18353159725666046,-0.4637317657470703,0.9999786019325256,0.595984935760498,0.36281144618988037,-0.25145238637924194,0.9998730421066284,0.4313097596168518,0.3541676104068756,-0.2479778528213501,0.9998711943626404,0.555383563041687,0.7261922359466553,-0.0008329306729137897,0.999367356300354,0.46640029549598694,0.7320984601974487,0.0008008706499822438,0.9992607235908508,0.5517392754554749,0.9438219666481018,0.06958014518022537,0.936206042766571,0.4661482870578766,0.9584983587265015,0.13350163400173187,0.9318520426750183,0.5662485361099243,1.0947003364562988,0.4393501877784729,0.7337509989738464,0.46125978231430054,1.0181341171264648,0.4614712595939636,0.6581314206123352,0.6414819955825806,0.7745000123977661,-0.13990150392055511,0.9611438512802124,0.389726847410202,0.7544150352478027,-0.21051795780658722,0.9213754534721375,179.57407673173824,0.510891929268837,0.729145348072052,130.04404293839232,130.67689499796043,1.2639749832381,-0.018517085921979873,0.01813220817676082,-0.24131849431988583,0.2709028565175955,-176.99528960621828,0.5726880002691153,11,1762115135.580298
0.504604160785675,0.1836167722940445,-0.527626633644104,0.9999776482582092,0.5933899879455566,0.3622342348098755,-0.25614410638809204,0.9998686909675598,0.43003541231155396,0.3551301956176758,-0.2763616144657135,0.9998728036880493,0.5539029836654663,0.7283622622489929,-0.00039210994145832956,0.999298632144928,0.464926153421402,0.7356576919555664,0.00040627323323860765,0.9992161989212036,0.550960898399353,0.9455740451812744,0.06369815021753311,0.9328272342681885,0.4650057852268219,0.963706374168396,0.13026265799999237,0.9302647113800049,0.5647681951522827,1.123434066772461,0.4367811679840088,0.7270135283470154,0.46091365814208984,1.1279644966125488,0.46720489859580994,0.6559474468231201,0.640103280544281,0.773883044719696,-0.14570102095603943,0.9611281752586365,0.3867325484752655,0.7573692202568054,-0.2667047381401062,0.9221630096435547,179.6473030112707,0.5094145685434341,0.7320099771022797,131.86077542350426,145.64110278073164,1.3591328083267893,-0.018451574480756346,0.03577793493635078,0.0008182085906933821,0.22038723242955466,-177.50986372131487,0.47300431372367274,12,1762115135.6603649
0.5014735460281372,0.1847846508026123,-0.5738579034805298,0.9999769926071167,0.5897903442382812,0.36185047030448914,-0.29171860218048096,0.9998669028282166,0.42805901169776917,0.3567233681678772,-0.3048449754714966,0.9998746514320374,0.5521040558815002,0.7292979955673218,-0.0006370841292664409,0.9992395043373108,0.46307817101478577,0.7374985814094543,0.0006760421674698591,0.999169111251831,0.5494020581245422,0.9459199905395508,0.06270729005336761,0.9294933676719666,0.4642345905303955,0.9663333296775818,0.134889155626297,0.9272943139076233,0.5636840462684631,1.137607455253601,0.43809789419174194,0.7199328541755676,0.4610973298549652,1.145611047744751,0.49207639694213867,0.6512061953544617,0.6361621618270874,0.7718724608421326,-0.1670641154050827,0.9616012573242188,0.379912793636322,0.7610962986946106,-0.2940102219581604,0.9236375093460083,179.79576323695233,0.507591113448143,0.7333982884883881,133.28298418734101,147.03668142611434,1.4124586066248348,-0.02365277563012216,0.018008350085047163,-0.06746688970338528,-0.23049649240810935,-178.18425433976282,0.23927462542740047,13,1762115135.7374575
0.4973311424255371,0.18614256381988525,-0.551281750202179,0.9999773502349854,0.5878487825393677,0.36184829473495483,-0.305754691362381,0.99986732006073,0.4253672957420349,0.3599799573421478,-0.30761992931365967,0.9998747706413269,0.5496331453323364,0.7310901284217834,-0.0005549812922254205,0.9992222785949707,0.46028628945350647,0.7396942973136902,0.0006016872357577085,0.9991710782051086,0.5458959341049194,0.9463340044021606,0.07352608442306519,0.9281604886054993,0.4627528786659241,0.9663164615631104,0.13663029670715332,0.9272353053092957,0.562301516532898,1.1340527534484863,0.4403846859931946,0.721169114112854,0.46124696731567383,1.1341052055358887,0.48585397005081177,0.6548908352851868,0.629910945892334,0.7697167992591858,-0.19510924816131592,0.9632127285003662,0.37006503343582153,0.7692937254905701,-0.2921048700809479,0.9249305725097656,179.7478056184493,0.5049597173929214,0.7353922128677368,135.98095245437992,146.62748564086547,1.3884529515915063,-0.03434672944603329,0.026026025636636925,-0.13958458959251915,0.10465202773641114,-179.3411979925761,0.22122643013418725,14,1762115135.8140702
0.4948970675468445,0.18684667348861694,-0.573777973651886,0.9999774694442749,0.5854799151420593,0.36189141869544983,-0.31508713960647583,0.9998703598976135,0.42303866147994995,0.3620966076850891,-0.31855443120002747,0.999876856803894,0.5480972528457642,0.7329303026199341,-0.00021050548821222037,0.9992267489433289,0.45838189125061035,0.7408496141433716,0.00027095546829514205,0.999187171459198,0.5433394908905029,0.9455152750015259,0.08698476105928421,0.9284822940826416,0.46151381731033325,0.9660447239875793,0.13852131366729736,0.9280510544776917,0.560484766960144,1.1243897676467896,0.4911026060581207,0.7265552282333374,0.4607798457145691,1.1247748136520386,0.49962037801742554,0.6618235111236572,0.6233324408531189,0.7662365436553955,-0.2094365358352661,0.9644128680229187,0.3647572994232178,0.7708441019058228,-0.31379932165145874,0.9267662763595581,179.84415597227553,0.5032395720481873,0.7368899583816528,136.05288424184195,145.26645986513918,1.4222007180869038,-0.026836527266843473,0.023366797722090587,0.11716902073323307,-0.041487449101867496,179.92762640898724,0.12425484026575397,15,1762115135.8781674
0.49322018027305603,0.18697166442871094,-0.6006548404693604,0.9999746084213257,0.5837656259536743,0.3613632619380951,-0.32458963990211487,0.9998649954795837,0.42137032747268677,0.36371922492980957,-0.3273685574531555,0.9998684525489807,0.546143651008606,0.7341451048851013,-0.0001703975722193718,0.9992153644561768,0.45700889825820923,0.7405956983566284,0.00023794651497155428,0.9991631507873535,0.5426594018936157,0.9486472010612488,0.08535097539424896,0.9271142482757568,0.4607425630092621,0.9658887982368469,0.13928566873073578,0.9243290424346924,0.5602658987045288,1.12654447555542,0.4837269186973572,0.7267138361930847,0.45910781621932983,1.1184182167053223,0.5311762690544128,0.6538434624671936,0.615093469619751,0.7617250084877014,-0.23757262527942657,0.9625898003578186,0.36335963010787964,0.7719314694404602,-0.3314895033836365,0.9251585006713867,179.84841037607467,0.5015762746334076,0.7373704016208649,135.69538196872787,142.93498615505158,1.4502928620980375,-0.02156103583835037,0.006227902362438343,0.0683852801933909,-0.22216852728539283,179.1688351303459,0.12416647042433883,16,1762115135.955311
0.49187034368515015,0.1871020495891571,-0.6103648543357849,0.9999726414680481,0.5832928419113159,0.36073222756385803,-0.33327752351760864,0.9998588562011719,0.4204472005367279,0.3644627034664154,-0.32805758714675903,0.9998617768287659,0.5453264713287354,0.7340620160102844,-0.00038187773316167295,0.9992002844810486,0.4567510485649109,0.7400524616241455,0.000450766587164253,0.9991365671157837,0.5420288443565369,0.9491900205612183,0.08239826560020447,0.9265023469924927,0.4602469801902771,0.9644660949707031,0.13843785226345062,0.9220426082611084,0.5602863430976868,1.1256886720657349,0.4823458194732666,0.7290706038475037,0.45863232016563416,1.1168460845947266,0.530037522315979,0.6503348350524902,0.6135400533676147,0.7591699361801147,-0.242804616689682,0.9599353075027466,0.36320075392723083,0.7706694602966309,-0.32437148690223694,0.9231136441230774,179.87280960995915,0.5010387599468231,0.737057238817215,134.7543482498757,142.83582374927968,1.4559095809676859,-0.007469733415502057,-0.004351960452988224,0.1958239936563173,-0.14702622416885314,178.68769501024985,0.09988216664117222,17,1762115136.02727
0.49066638946533203,0.18728673458099365,-0.5933469533920288,0.9999720454216003,0.5815032720565796,0.3593543469905853,-0.32330700755119324,0.9998615980148315,0.41961780190467834,0.3645986020565033,-0.3205849528312683,0.9998599886894226,0.5445482134819031,0.7343434691429138,-4.035445090266876e-05,0.999203085899353,0.45660337805747986,0.7391266822814941,0.00011408651334932074,0.9991233348846436,0.5406237840652466,0.9505075216293335,0.07052963227033615,0.9254347085952759,0.4601450562477112,0.962572455406189,0.1355060338973999,0.9180383086204529,0.5570407509803772,1.130293846130371,0.4639585018157959,0.727689802646637,0.4575743079185486,1.1162067651748657,0.5213131308555603,0.640106737613678,0.6087756156921387,0.7549120783805847,-0.22873273491859436,0.9611310362815857,0.36286163330078125,0.7697960734367371,-0.3099197745323181,0.9250521659851074,-179.99766712702387,0.5005757957696915,0.736735075712204,132.54192416042287,142.90894333613002,1.4337584559675949,-0.005941426018737799,-0.004134462986420909,0.019613451278288493,0.0027912421105210678,178.14456084596483,0.0022037186902814014,18,1762115136.1051915
0.48948097229003906,0.18808817863464355,-0.5847995281219482,0.9999719262123108,0.5783149003982544,0.35767602920532227,-0.3221898674964905,0.9998655319213867,0.4190475046634674,0.3644567131996155,-0.3180963397026062,0.9998597502708435,0.5437508225440979,0.7343178391456604,0.0004612963239196688,0.9992043972015381,0.4559341073036194,0.7380852699279785,-0.0003712361794896424,0.9991108179092407,0.5395612120628357,0.9509528875350952,0.05693110078573227,0.9243281483650208,0.4599716067314148,0.9623487591743469,0.1284501850605011,0.9147995114326477,0.5552842020988464,1.1358109712600708,0.4397031366825104,0.7244436144828796,0.45646849274635315,1.1245580911636353,0.5074950456619263,0.6308499574661255,0.605802059173584,0.7527264356613159,-0.22676046192646027,0.9624039530754089,0.36334124207496643,0.7691606879234314,-0.30684763193130493,0.9265407919883728,-179.82263668017617,0.49984246492385864,0.7362015545368195,130.29376440140229,143.01667911174516,1.4170469234251974,-0.010653308233957584,-0.007750615650511397,-0.0684508689169234,-0.052532890400719706,177.5621495002693,0.19003013746119005,19,1762115136.1740274
0.4886472225189209,0.1886070817708969,-0.5787568688392639,0.9999715685844421,0.5759514570236206,0.35622408986091614,-0.3085241913795471,0.9998680949211121,0.418489933013916,0.3645142912864685,-0.31374114751815796,0.9998597502708435,0.543235182762146,0.7345320582389832,0.0024873490910977125,0.9992077946662903,0.45554834604263306,0.7380216121673584,-0.0023709824308753014,0.9991078972816467,0.5395984053611755,0.951594352722168,0.054382093250751495,0.9229075908660889,0.45981651544570923,0.9624786376953125,0.12383468449115753,0.9117528200149536,0.554621696472168,1.139254093170166,0.4368746280670166,0.7200777530670166,0.45580077171325684,1.1273165941238403,0.5020601153373718,0.6207910776138306,0.6037842631340027,0.7510792016983032,-0.2197471559047699,0.9633693695068359,0.3646647334098816,0.7695502638816833,-0.2956703305244446,0.9279301166534424,-179.66908965168594,0.4993917644023895,0.7362768352031708,129.50056060609805,142.86627481212258,1.4111929150188485,-0.005743516279182821,0.000959341540779991,0.06256808829004658,0.11099561357528966,176.9862136003481,0.39439757311968954,20,1762115136.2524986
0.48812898993492126,0.1902497410774231,-0.5959564447402954,0.9999697804450989,0.5766675472259521,0.3560347557067871,-0.3226611614227295,0.9998643398284912,0.4177882671356201,0.3653026223182678,-0.3167511820793152,0.9998545050621033,0.5433541536331177,0.7347940802574158,0.0021490317303687334,0.9991904497146606,0.45510441064834595,0.7379260659217834,-0.002042365726083517,0.9990895986557007,0.539710521697998,0.9512222409248352,0.06080658361315727,0.9230843782424927,0.45948368310928345,0.9624270796775818,0.12395155429840088,0.9115139842033386,0.5536854863166809,1.1385053396224976,0.466973215341568,0.7237704396247864,0.45581379532814026,1.1307066679000854,0.5018600225448608,0.623806893825531,0.6028086543083191,0.7511714696884155,-0.22567179799079895,0.962070107460022,0.36612778902053833,0.7704001665115356,-0.2923594117164612,0.9256032109260559,-179.69477805834802,0.4992292821407318,0.7363600730895996,129.85065758854753,143.27560669673147,1.435022980178039,-0.0011284924896879135,0.0005781143660488523,0.032052850773010975,-0.002647747508926954,176.66156230331546,0.38834967304336354,21,1762115136.3964803
0.4881114065647125,0.191678985953331,-0.59465491771698,0.999968409538269,0.5770495533943176,0.3559013903141022,-0.32418766617774963,0.9998626112937927,0.4174996316432953,0.36616024374961853,-0.3150392472743988,0.9998498558998108,0.5433889627456665,0.734825074672699,0.001848246669396758,0.9991732835769653,0.45496001839637756,0.7378590106964111,-0.0017517494270578027,0.9990741014480591,0.5398017168045044,0.9508312940597534,0.06549004465341568,0.922705888748169,0.45928317308425903,0.9622032046318054,0.12399282306432724,0.9112308025360107,0.5530976057052612,1.1352895498275757,0.47421127557754517,0.7263779640197754,0.45588308572769165,1.1322994232177734,0.4944041669368744,0.6269459128379822,0.602789044380188,0.7504330277442932,-0.23010973632335663,0.9616317749023438,0.3668457567691803,0.7704032063484192,-0.2892252802848816,0.923596203327179,-179.70996015405598,0.49917449057102203,0.736342042684555,130.64241751823081,143.90733978463237,1.4324839483787977,-0.0007475351872151763,-0.00024599335777273956,0.0051974964384735615,-0.011243509263844091,176.32101999878233,0.38390304023238764,22,1762115136.4697766
0.48871248960494995,0.19258564710617065,-0.6009894609451294,0.9999673366546631,0.5771231055259705,0.3556654155254364,-0.3275502324104309,0.9998576045036316,0.41715604066848755,0.3662267327308655,-0.31572988629341125,0.9998490810394287,0.5434870719909668,0.7348134517669678,0.001718774437904358,0.9991344213485718,0.45499682426452637,0.7380177974700928,-0.001632121973671019,0.9990520477294922,0.539880633354187,0.9511816501617432,0.06726257503032684,0.9213728308677673,0.45930781960487366,0.9637200236320496,0.12179054319858551,0.9109055399894714,0.553249180316925,1.1344505548477173,0.4894298017024994,0.7242068648338318,0.4559379518032074,1.1438826322555542,0.4900575280189514,0.6300526261329651,0.6037195920944214,0.7510592937469482,-0.23563751578330994,0.9591354727745056,0.3707309067249298,0.7703010439872742,-0.2874423861503601,0.9214044213294983,-179.67918581628254,0.4992419481277466,0.7364156246185303,130.257424851272,144.7116778572811,1.4442875227921816,0.00092932758314885,0.001013699934965545,0.023101263984670647,0.01735413762507754,176.2227100870536,0.42044645101728584,23,1762115136.5423641
0.4890688955783844,0.1938745528459549,-0.5793088674545288,0.9999668598175049,0.577171266078949,0.3556969463825226,-0.3232024908065796,0.9998546242713928,0.41671910881996155,0.36616548895835876,-0.3051440715789795,0.9998490214347839,0.5435550212860107,0.7348036766052246,0.001631524064578116,0.9991146922111511,0.45507341623306274,0.7381621599197388,-0.001561801298521459,0.9990437030792236,0.5399222373962402,0.9513252973556519,0.06711770594120026,0.9186281561851501,0.459155797958374,0.9637013077735901,0.12067212909460068,0.9088317155838013,0.5534120798110962,1.129332423210144,0.49282580614089966,0.7163205146789551,0.45598578453063965,1.1401464939117432,0.48957619071006775,0.6279783844947815,0.6047300100326538,0.7530067563056946,-0.2282114028930664,0.9589133858680725,0.37343916296958923,0.769122302532196,-0.23427939414978027,0.9215971827507019,-179.63857520812977,0.49931421875953674,0.7364829182624817,129.45813020071466,143.99251618985028,1.425293808937792,0.0011397176320192507,0.0010612298610719456,0.0033178795087222637,0.0007495533592306539,176.26708417351261,0.4590332416933652,24,1762115136.605775
0.48942461609840393,0.1950301229953766,-0.529712438583374,0.9999678730964661,0.5772961974143982,0.35583415627479553,-0.30525651574134827,0.9998579025268555,0.4165527820587158,0.3661339282989502,-0.2749069631099701,0.9998515248298645,0.5438776016235352,0.7347976565361023,0.0004739423166029155,0.9991015195846558,0.45530349016189575,0.7381607294082642,-0.00045919613330625,0.9990437030792236,0.5400069355964661,0.9513604044914246,0.06572089344263077,0.9174203872680664,0.4592510759830475,0.9636666774749756,0.11296723037958145,0.9091870188713074,0.5535960793495178,1.1231449842453003,0.48801836371421814,0.711317777633667,0.4560430645942688,1.1405690908432007,0.45900073647499084,0.6328362822532654,0.6061041951179504,0.7557467222213745,-0.20330798625946045,0.9607239961624146,0.3785906136035919,0.7679576277732849,-0.16508366167545319,0.9221885204315186,-179.59320060820758,0.49959054589271545,0.7364791929721832,128.83727451568953,143.75368339614602,1.3727111972503567,0.0034830954169797145,-4.695717505634861e-05,0.0295382083154645,-0.013968665119101574,176.33373591474862,0.5135360048634224,25,1762115136.685109
0.48957425355911255,0.1955484002828598,-0.46421298384666443,0.9999698400497437,0.5771157145500183,0.35584741830825806,-0.2641599774360657,0.9998654723167419,0.4166333079338074,0.36610254645347595,-0.24279236793518066,0.9998564720153809,0.5444146394729614,0.733622670173645,0.0009241077350452542,0.9991005063056946,0.45624488592147827,0.7381710410118103,-0.0009216821636073291,0.9990578889846802,0.5402654409408569,0.9514615535736084,0.06094594672322273,0.9175911545753479,0.4601307809352875,0.9644256830215454,0.09000013023614883,0.9116169810295105,0.5552209615707397,1.1171444654464722,0.4599635601043701,0.7075536847114563,0.4562607407569885,1.1417279243469238,0.3981081545352936,0.640745222568512,0.610015869140625,0.7558867335319519,-0.17363116145133972,0.9634764790534973,0.3824205994606018,0.7653612494468689,-0.1474643051624298,0.9245911240577698,-179.47198140414622,0.5003297626972198,0.7358968555927277,127.87335220403793,141.7810430274873,1.2924013556369016,0.009318814357075446,-0.007341139837818667,0.07356702541317553,-0.09195290705877913,176.3436631550701,0.6232708089804874,26,1762115136.764434
0.49020805954933167,0.19595423340797424,-0.47288697957992554,0.9999715089797974,0.5771225094795227,0.35599738359451294,-0.26731523871421814,0.9998717308044434,0.41660743951797485,0.36608096957206726,-0.2465335577726364,0.9998606443405151,0.5447661876678467,0.732369065284729,0.001104329596273601,0.9990957975387573,0.456748902797699,0.7380487322807312,-0.0011087761959061027,0.9990675449371338,0.540345311164856,0.9514983296394348,0.06026200205087662,0.9171775579452515,0.4606224000453949,0.9643996357917786,0.08789555728435516,0.9134346842765808,0.5552613735198975,1.1133167743682861,0.45906728506088257,0.703000009059906,0.4565158486366272,1.141455888748169,0.3997436761856079,0.6468241810798645,0.6123901009559631,0.755999743938446,-0.17320731282234192,0.9658639430999756,0.3836522102355957,0.7642691731452942,-0.14892849326133728,0.9263099431991577,-179.40396078056327,0.5007575452327728,0.7352088987827301,127.10982191640517,141.0207557987106,1.2968975737892046,0.006748065936793649,-0.01085219131147726,-0.04055233303188758,-0.055385166252983856,176.4053922697502,0.7200789516595043,27,1762115136.8278275
0.49110960960388184,0.19600526988506317,-0.4515495300292969,0.9999728798866272,0.576878011226654,0.35598504543304443,-0.25652748346328735,0.9998785853385925,0.4165221154689789,0.3660257160663605,-0.2359570562839508,0.9998639225959778,0.5451189875602722,0.7300758957862854,0.0009070485830307007,0.9991108775138855,0.4571049213409424,0.7374632358551025,-0.0009225570829585195,0.9990789890289307,0.5403847098350525,0.950905442237854,0.05801869556307793,0.919190526008606,0.461259126663208,0.9638069868087769,0.09435751289129257,0.9157215356826782,0.5554899573326111,1.112863540649414,0.43612736463546753,0.706300675868988,0.45656222105026245,1.1383435726165771,0.41620469093322754,0.6537351012229919,0.6133753061294556,0.7537754774093628,-0.1609598845243454,0.9680572152137756,0.38477781414985657,0.7637583613395691,-0.13699504733085632,0.927933394908905,-179.32190122450115,0.5011119544506073,0.733769565820694,127.59267985900132,141.26284846971703,1.2785773643061629,0.004443242176874815,-0.01804497344217508,-0.028895665307208735,-0.09017618990687393,176.4171071998258,0.8475977353465807,28,1762115136.907591
0.49212998151779175,0.19599094986915588,-0.45487990975379944,0.999974250793457,0.5767689347267151,0.35566288232803345,-0.25757497549057007,0.9998846054077148,0.4164751172065735,0.3659925162792206,-0.24146020412445068,0.9998660087585449,0.5453784465789795,0.7278139591217041,0.0008680086466483772,0.9991307854652405,0.45754218101501465,0.7369053959846497,-0.0008880812674760818,0.9990943670272827,0.5404070615768433,0.9500409364700317,0.05812867358326912,0.9217789173126221,0.4613364338874817,0.9633471965789795,0.09762906283140182,0.9180278778076172,0.556389331817627,1.1104110479354858,0.43286022543907166,0.7126227617263794,0.4574635624885559,1.1260416507720947,0.42402711510658264,0.6615596413612366,0.616226851940155,0.7492191791534424,-0.16169250011444092,0.9700949788093567,0.3855724036693573,0.7630395889282227,-0.14993277192115784,0.9302987456321716,-179.25390593535244,0.5014603137969971,0.7323596775531769,127.51192592982545,139.97916867418692,1.2771051697056652,0.005480917834528704,-0.0221825015754884,0.0163262880052829,-0.06509787083871722,176.3128509128671,0.7989643299717444,29,1762115136.9711497
0.4929641783237457,0.19610323011875153,-0.44188380241394043,0.9999753832817078,0.5764144659042358,0.35476651787757874,-0.2487695962190628,0.9998908638954163,0.4164634644985199,0.3658267855644226,-0.2349063903093338,0.9998666644096375,0.545744776725769,0.7261732220649719,0.0009514717385172844,0.9991487860679626,0.4581994414329529,0.7365475296974182,-0.0009758385131135583,0.9991067051887512,0.5407960414886475,0.9496312737464905,0.057112038135528564,0.9238952398300171,0.46150702238082886,0.9632930159568787,0.09957803785800934,0.9200884699821472,0.5567945837974548,1.1055408716201782,0.4303540289402008,0.7174219489097595,0.4580685496330261,1.1177794933319092,0.41250282526016235,0.6687226891517639,0.6188388466835022,0.744844913482666,-0.15783223509788513,0.9722038507461548,0.3874577581882477,0.7626680731773376,-0.15693216025829315,0.9326523542404175,-179.1456931068268,0.501972109079361,0.7313603758811951,126.67437555821142,140.16855016363925,1.2584760005519722,0.006458287577884548,-0.012610076327610017,0.012333319766764219,0.12079336640826184,176.04441651550962,0.8809287118038511,30,1762115137.050396
0.4935990869998932,0.19627495110034943,-0.45703181624412537,0.9999761581420898,0.57632976770401,0.35330966114997864,-0.25509607791900635,0.9998952746391296,0.4164377748966217,0.36576029658317566,-0.24267514050006866,0.9998689889907837,0.5463370084762573,0.7243947386741638,0.0009391832863911986,0.9991509914398193,0.45937681198120117,0.7358823418617249,-0.000966914463788271,0.9991087913513184,0.5411691069602966,0.9491333961486816,0.057232730090618134,0.9250181317329407,0.4617235064506531,0.9628201723098755,0.10097463428974152,0.9211134314537048,0.5582302212715149,1.1019127368927002,0.4361470341682434,0.7188613414764404,0.4586489796638489,1.1164629459381104,0.4199751019477844,0.6733177900314331,0.6195498704910278,0.7427220940589905,-0.1595177799463272,0.9738531708717346,0.3892078101634979,0.7622618079185486,-0.16800445318222046,0.9351476430892944,-178.99934628209718,0.5028569102287292,0.7301385402679443,125.90889951381078,139.89342955334195,1.271620855438309,0.013933996906163643,-0.019241672173495133,0.11772872438738405,-0.10443548368519211,175.54741788413205,0.9254885694664916,31,1762115137.1138954
0.49396929144859314,0.19628117978572845,-0.4416953921318054,0.9999767541885376,0.5762746334075928,0.3519117534160614,-0.24572321772575378,0.9998990297317505,0.41638851165771484,0.36569905281066895,-0.2368442267179489,0.9998700618743896,0.5467051267623901,0.7233613729476929,0.0010637665400281549,0.9991530776023865,0.4599267542362213,0.7355616092681885,-0.001096521271392703,0.9991106986999512,0.5415235757827759,0.9486656188964844,0.056081485003232956,0.9256258606910706,0.46186256408691406,0.9623061418533325,0.09809158742427826,0.9218709468841553,0.5589209794998169,1.0989820957183838,0.42992591857910156,0.7183854579925537,0.458931028842926,1.114753246307373,0.4028659462928772,0.6762632131576538,0.6201913356781006,0.7410003542900085,-0.15298670530319214,0.975381076335907,0.3902183175086975,0.7620686292648315,-0.1711869090795517,0.9376240968704224,-178.9204886498061,0.5033159404993057,0.7294614911079407,125.51016844918625,140.1892786899492,1.2512842133421793,0.007219560896955152,-0.010648530073496325,-0.1056036666085466,0.13515168097567645,175.0714625773927,0.96550061671636,32,1762115137.177477
0.49452534317970276,0.19686198234558105,-0.41709691286087036,0.9999777674674988,0.5760444402694702,0.3513951599597931,-0.22927215695381165,0.9999033808708191,0.41630464792251587,0.36566898226737976,-0.2286607325077057,0.9998719692230225,0.5475443601608276,0.7210404872894287,0.0013553373282775283,0.9991632103919983,0.46127885580062866,0.7350224256515503,-0.001380779198370874,0.9991176128387451,0.542249321937561,0.9485090374946594,0.05574799329042435,0.9265351891517639,0.46204525232315063,0.962280809879303,0.09656819701194763,0.9222546815872192,0.5603618621826172,1.0987679958343506,0.3993797302246094,0.7178937196731567,0.4592475891113281,1.1118634939193726,0.37366145849227905,0.6768243908882141,0.6201369166374207,0.7384870052337646,-0.14650404453277588,0.9769538640975952,0.3920908570289612,0.7620245814323425,-0.17401911318302155,0.9407265782356262,-178.72294553394556,0.5044116079807281,0.7280314564704895,126.92611388793333,141.6709050715999,1.2129809545475998,0.013452776143346008,-0.017558188210428944,0.07653238850725586,-0.08483785976976184,174.89379918703264,1.0755539614064693,33,1762115137.2589223
0.4945618212223053,0.1987466663122177,-0.42737308144569397,0.9999790787696838,0.5757968425750732,0.35115474462509155,-0.23266775906085968,0.999909520149231,0.41631269454956055,0.3656659424304962,-0.2292475402355194,0.9998753666877747,0.5479708313941956,0.7184908390045166,0.00035027082776650786,0.9991929531097412,0.4616689085960388,0.7329794764518738,-0.00037135332240723073,0.9991329312324524,0.5423489809036255,0.9475902915000916,0.05687474086880684,0.9290152788162231,0.4621484875679016,0.9614008665084839,0.11579786241054535,0.9225896596908569,0.5604872703552246,1.0994709730148315,0.4014059007167816,0.7228826880455017,0.45934993028640747,1.0265663862228394,0.3874090313911438,0.6779398322105408,0.6200312376022339,0.7277891635894775,-0.15155082941055298,0.9786044955253601,0.39356130361557007,0.758550763130188,-0.183113232254982,0.9440922737121582,-178.63306802330177,0.5048198699951172,0.7257351577281952,127.50193863016945,130.44359384881497,1.192696613518371,0.006674416701096828,-0.03754073153049213,-0.11081509881610983,-0.3266819252469785,174.8010677327774,1.1426482141149665,34,1762115137.3200905
0.49539652466773987,0.20279933512210846,-0.37266457080841064,0.9999803900718689,0.5757598876953125,0.3513182997703552,-0.19850879907608032,0.9999159574508667,0.41652417182922363,0.36579445004463196,-0.1991492062807083,0.9998785257339478,0.5479721426963806,0.7184663414955139,0.00033002454438246787,0.9992336630821228,0.461761474609375,0.7321570515632629,-0.0003501533064991236,0.9991625547409058,0.5427051782608032,0.947801947593689,0.05730307102203369,0.9312277436256409,0.46215128898620605,0.9610056281089783,0.11448099464178085,0.9232079982757568,0.5531558990478516,1.0321943759918213,0.3723002076148987,0.726652979850769,0.4592265188694,1.0451356172561646,0.3702933192253113,0.6790128350257874,0.6193286180496216,0.7198614478111267,-0.13676655292510986,0.9803745746612549,0.39478224515914917,0.7523167729377747,-0.17250487208366394,0.9478549957275391,-178.6372420245023,0.5048668086528778,0.7253116965293884,118.87828129717587,134.84557837151405,1.119047092893769,0.0007376192367350304,-0.006654496339535267,-0.093294018688087,0.4853628611060491,174.80550824615193,2.3179691984694974,35,1762115137.383726
0.495492547750473,0.21271614730358124,-0.34289947152137756,0.999980628490448,0.5759949088096619,0.35232579708099365,-0.19071955978870392,0.9999196529388428,0.4172738194465637,0.3685131072998047,-0.17524921894073486,0.9998766183853149,0.5480129718780518,0.7185416221618652,-0.0015689646825194359,0.9992524981498718,0.46196264028549194,0.7319777607917786,0.0015822186833247542,0.9991658926010132,0.5434054136276245,0.9501007795333862,0.05109437182545662,0.9325330257415771,0.46219706535339355,0.9603005051612854,0.11424069106578827,0.9231733679771423,0.5545104742050171,1.0806275606155396,0.3124944865703583,0.7288271188735962,0.4589744210243225,1.0588858127593994,0.3397845923900604,0.675068736076355,0.6163612008094788,0.7113953232765198,-0.13282211124897003,0.9815100431442261,0.39659085869789124,0.7417073845863342,-0.13726823031902313,0.9502438902854919,-178.68837560305704,0.5049878060817719,0.7252596914768219,129.2495326777527,139.86468887744275,1.0873169936298992,0.0015210823512486363,-0.000653765690376569,0.009849068093707291,0.07543635900747181,174.17677308333543,2.11897537891594,36,1762115137.4632728
0.4955609440803528,0.2167537957429886,-0.34271419048309326,0.9999808669090271,0.5761021375656128,0.35319265723228455,-0.18918770551681519,0.9999226331710815,0.417834997177124,0.36996278166770935,-0.17509029805660248,0.9998751878738403,0.5480149388313293,0.7186645269393921,-0.0022078054025769234,0.9992685317993164,0.46212252974510193,0.7319008708000183,0.002237088978290558,0.9991693496704102,0.5437947511672974,0.9515647888183594,0.04891657084226608,0.9334638118743896,0.462212473154068,0.9596906304359436,0.11368856579065323,0.9229177832603455,0.5555237531661987,1.0986971855163574,0.3077571392059326,0.72944176197052,0.45842671394348145,1.0664418935775757,0.3347890377044678,0.6705902218818665,0.6141304969787598,0.7092068791389465,-0.1274290233850479,0.9824576377868652,0.3973754942417145,0.7377344965934753,-0.13504759967327118,0.9523321390151978,-178.72416190783497,0.5050687342882156,0.7252826988697052,131.8934881190295,141.83300778820333,1.0911673999964084,0.0012762823453327217,0.0003628392452943698,-0.003860630791377376,0.01603241920944044,173.95145885831104,2.038997959574063,37,1762115137.5266821
0.4965730607509613,0.2297036051750183,-0.42574724555015564,0.9999771118164062,0.5764007568359375,0.3586735129356384,-0.2175259292125702,0.9999188184738159,0.4186740815639496,0.3759715259075165,-0.18029826879501343,0.999874472618103,0.5481022596359253,0.7192129492759705,-0.003974341321736574,0.9992004036903381,0.46212834119796753,0.7317206263542175,0.004123730584979057,0.9990934729576111,0.5442607402801514,0.9539156556129456,0.04541713371872902,0.9328530430793762,0.46220558881759644,0.959674596786499,0.12346378713846207,0.9205124378204346,0.5557299256324768,1.1148847341537476,0.3465394377708435,0.723531186580658,0.45757150650024414,1.0748614072799683,0.40243077278137207,0.6577321290969849,0.607323408126831,0.700144350528717,-0.18869373202323914,0.9776007533073425,0.39892664551734924,0.7312819361686707,-0.14302733540534973,0.9500086307525635,-178.78787440147073,0.5051153004169464,0.725466787815094,129.93737827862577,140.05987521427656,1.17855486870639,0.0005878869330700604,0.002324081654767208,-0.00869083771155631,0.02476024562355239,173.74133761788624,2.216693584472984,38,1762115137.6058915
0.49767714738845825,0.24937660992145538,-0.46507272124290466,0.9999669790267944,0.5767107605934143,0.37349802255630493,-0.23249132931232452,0.99989914894104,0.41933053731918335,0.3875860571861267,-0.18920469284057617,0.9998742341995239,0.5480803847312927,0.7222315669059753,-0.005366946570575237,0.9990609288215637,0.46224385499954224,0.7334772944450378,0.0056093670427799225,0.9989679455757141,0.5445906519889832,0.9540153741836548,0.04732506722211838,0.932041585445404,0.46242475509643555,0.9590772986412048,0.12951737642288208,0.9181392192840576,0.5557963848114014,1.1181997060775757,0.3847218155860901,0.7180837392807007,0.4579090178012848,1.0351568460464478,0.44818297028541565,0.6429338455200195,0.6013339757919312,0.690967321395874,-0.2320258617401123,0.9517198801040649,0.40060800313949585,0.7282640933990479,-0.08008988201618195,0.9409026503562927,-178.8220446447286,0.5051621198654175,0.7278544306755066,128.6979152082557,132.19861161813134,1.2089659898096123,0.0004919558486066157,0.025088182537853356,-0.0010079968817686706,0.23919403011817403,174.88474982132803,2.1343322421599797,39,1762115137.7010615
0.49976247549057007,0.2735433280467987,-0.5847495794296265,0.9999513626098633,0.5769492983818054,0.3974432945251465,-0.32524189352989197,0.9998970031738281,0.4203271269798279,0.41109514236450195,-0.2703506052494049,0.9998758435249329,0.5476636290550232,0.7247287034988403,-0.009410493075847626,0.9988545179367065,0.4622216820716858,0.7352292537689209,0.00982233788818121,0.998677134513855,0.5452913641929626,0.9539744853973389,0.03859822824597359,0.9223877787590027,0.46242842078208923,0.9589740037918091,0.12816467881202698,0.909187912940979,0.5564479827880859,1.1258635520935059,0.42507869005203247,0.6925017833709717,0.45807600021362305,1.0357309579849243,0.480936199426651,0.6114310622215271,0.5976828336715698,0.6625875234603882,-0.5105375647544861,0.9314316511154175,0.40161561965942383,0.7249701023101807,-0.05010697990655899,0.9226905703544617,-178.89112052234344,0.5049426555633545,0.7299789786338806,125.76954050954069,130.14555799421765,1.3147831709438247,-0.0034469071450771577,0.03336815814207773,-0.061863796839779016,0.13004532765913898,175.01844912598986,1.8525593460095953,40,1762115137.7647314
0.5026851892471313,0.30651170015335083,-0.578592836856842,0.999920666217804,0.5768871307373047,0.42687147855758667,-0.33340975642204285,0.999875545501709,0.4215107858181,0.4350229501724243,-0.297235906124115,0.9998726844787598,0.5464053153991699,0.7336978316307068,-0.009027364663779736,0.9986257553100586,0.4620644152164459,0.74033522605896,0.009399174712598324,0.9984006285667419,0.5452588796615601,0.9539366960525513,0.027844542637467384,0.911308228969574,0.4620280861854553,0.9589687585830688,0.10088881105184555,0.8973418474197388,0.5562659502029419,1.1350544691085815,0.3919243812561035,0.664588451385498,0.45850586891174316,1.034001111984253,0.45213794708251953,0.576536238193512,0.5986422300338745,0.6734656691551208,-0.39844784140586853,0.9053428769111633,0.40318459272384644,0.7258361577987671,-0.012667154893279076,0.9056462049484253,-179.0573697780636,0.5042348653078079,0.7370165288448334,125.9269809144864,124.76319238012081,1.2675091814703097,-0.008916369823515985,0.08865536059684996,-0.06890141760883588,0.6964791330924378,176.99685857681138,1.345266656113602,41,1762115137.8441124
0.5031284093856812,0.3096635043621063,-0.6320971250534058,0.9999039173126221,0.5770288705825806,0.4286656975746155,-0.3768470585346222,0.9998620748519897,0.4219217300415039,0.4406556785106659,-0.3344857096672058,0.9998729228973389,0.5459226369857788,0.7350600361824036,-0.010273342952132225,0.998477041721344,0.4616319537162781,0.7407492995262146,0.010644359514117241,0.998214840888977,0.5458296537399292,0.9539346694946289,0.01934032514691353,0.903855562210083,0.4614832401275635,0.9589700698852539,0.09914641827344894,0.8888553977012634,0.5563060641288757,1.1343332529067993,0.38535571098327637,0.6436788439750671,0.45928820967674255,1.0314444303512573,0.4720965325832367,0.5465788245201111,0.5980314016342163,0.6801525950431824,-0.4372692108154297,0.8794772028923035,0.402890145778656,0.7242646813392639,-0.06386201083660126,0.8886700868606567,-179.18722335225806,0.5037772953510284,0.7379046678543091,123.9288089753905,123.07187784680642,1.3127243352041786,-0.0071958647504564936,0.013967106225183441,0.027057112524057174,-1.1745670119798068,175.57975313645028,1.0387052317099619,42,1762115137.9077003
0.5053995847702026,0.3400248885154724,-0.692182183265686,0.9998965859413147,0.5764363408088684,0.453870564699173,-0.421612024307251,0.9998456835746765,0.4239727556705475,0.46252861618995667,-0.38009631633758545,0.9998742938041687,0.5450462102890015,0.7401418685913086,-0.009948418475687504,0.9983435273170471,0.4615360200405121,0.7418465614318848,0.010296288877725601,0.9981240630149841,0.5473341345787048,0.9539129734039307,0.022392496466636658,0.894995927810669,0.46068626642227173,0.9589723944664001,0.09164245426654816,0.880742609500885,0.555118203163147,1.132296085357666,0.41271671652793884,0.6256819367408752,0.45961934328079224,1.0871145725250244,0.4621639847755432,0.5286548137664795,0.5934442281723022,0.6922048926353455,-0.3648014962673187,0.8566262125968933,0.4028832018375397,0.7236438393592834,-0.036824800074100494,0.8751604557037354,-179.37466903286168,0.5032911151647568,0.7409942150115967,123.16838069208517,129.61575378559738,1.366915844963161,-0.006117146534035686,0.03887285664574809,0.013572493460464666,0.31336555697805346,176.74979707628665,0.9187379410819481,43,1762115137.9871786
0.5072736740112305,0.3811413645744324,-0.8695290684700012,0.9998812079429626,0.5767480731010437,0.48323121666908264,-0.5026314854621887,0.9996328949928284,0.4258909225463867,0.4840099811553955,-0.4893346428871155,0.9998699426651001,0.5452288389205933,0.7367697954177856,-0.00951304379850626,0.998029887676239,0.46164655685424805,0.7336130142211914,0.009917269460856915,0.9979760646820068,0.5474815964698792,0.9539239406585693,0.02343514747917652,0.8943955898284912,0.4568914771080017,0.9579306840896606,0.08347473293542862,0.8672311902046204,0.5498831272125244,1.1309731006622314,0.4454304575920105,0.6034863591194153,0.4551980495452881,1.0855083465576172,0.5339504480361938,0.5002927184104919,0.5845910310745239,0.6931586265563965,-0.09325116872787476,0.7957108616828918,0.40381354093551636,0.7208656072616577,0.02955697849392891,0.8296067714691162,-179.51758688580222,0.5034376978874207,0.7351914048194885,121.3890734378464,123.96424120948042,1.5414842156341444,0.002003011950062552,-0.07929377997289408,0.11095969691698543,-1.6147140736946066,179.704226668843,5.965893756198519,44,1762115138.0603597
0.5080368518829346,0.4101881980895996,-0.9097909927368164,0.9998856782913208,0.575697124004364,0.5000329613685608,-0.4946703016757965,0.9990594387054443,0.42655056715011597,0.5016970038414001,-0.5084960460662842,0.9998384714126587,0.546547532081604,0.7191872596740723,-0.008229728788137436,0.9979029893875122,0.4616398215293884,0.7178166508674622,0.008544640615582466,0.9978722333908081,0.5478628873825073,0.9542714357376099,0.020522279664874077,0.8863298892974854,0.45320358872413635,0.95658940076828,0.07961364835500717,0.846794068813324,0.5441842079162598,1.114867091178894,0.42883390188217163,0.5802870988845825,0.4504822790622711,1.0661948919296265,0.5384880900382996,0.4682401418685913,0.560813844203949,0.6098300218582153,0.1609453558921814,0.7453247904777527,0.40432605147361755,0.7162007093429565,0.0724109560251236,0.7932306528091431,-179.21820161022458,0.5040936768054962,0.7185019552707672,118.43856474394653,120.00219847952262,1.5507060742306105,0.009539804445060852,-0.24271219791269374,0.1096064592383806,-2.3765698971553464,179.36077200290407,0.9277839024171182,45,1762115138.129122
0.5100933313369751,0.4425409436225891,-0.9426810145378113,0.999876081943512,0.5757154822349548,0.5286283493041992,-0.5466732382774353,0.9987066388130188,0.42746829986572266,0.5192386507987976,-0.5407667756080627,0.9997831583023071,0.549940824508667,0.7019223570823669,-0.008569336496293545,0.9977489709854126,0.461752325296402,0.7037784457206726,0.008854308165609837,0.9977284669876099,0.5478946566581726,0.9542442560195923,0.0271119624376297,0.8748800754547119,0.4520780146121979,0.9484882950782776,0.05863890051841736,0.8298521637916565,0.545678973197937,1.1112751960754395,0.43400946259498596,0.555138111114502,0.4485706686973572,1.0579497814178467,0.5041463971138,0.43787291646003723,0.5720711350440979,0.6358499526977539,-0.0027988830115646124,0.6985747218132019,0.40431031584739685,0.7169363498687744,0.0692652016878128,0.746783971786499,-178.6377503184382,0.5058465749025345,0.7028504014015198,119.15260566333075,115.30109893127724,1.5509633678430639,0.027524221595780125,-0.2457626246176769,0.28239353089818486,-0.04789817544528295,-176.3758339829766,1.4863448109867698,46,1762115138.1928077
0.5111271739006042,0.44559410214424133,-0.950676441192627,0.9998621940612793,0.5760496854782104,0.5326570868492126,-0.5801945328712463,0.9986624121665955,0.42763152718544006,0.5221219658851624,-0.5532933473587036,0.9997678399085999,0.5514694452285767,0.6945701837539673,-0.010856606997549534,0.9977249503135681,0.46180248260498047,0.6998282074928284,0.011247789487242699,0.9977427124977112,0.5478857755661011,0.954736590385437,0.026358038187026978,0.8661788702011108,0.4510560631752014,0.9422361850738525,0.033936671912670135,0.8208175301551819,0.5460666418075562,1.1100298166275024,0.4278526306152344,0.5295838117599487,0.4479445815086365,1.0550295114517212,0.47848010063171387,0.4170173704624176,0.5726892948150635,0.8156057000160217,-0.28621670603752136,0.6602463722229004,0.40445685386657715,0.7166067361831665,0.07178550958633423,0.7141609787940979,-178.3824198552785,0.5066359639167786,0.6971991956233978,119.28655622514707,109.58202706054578,1.541642291446511,0.011502461385602023,-0.08234568137128881,-0.23345863043638213,2.3812050149249897,-175.93980114294672,1.9443468309092844,47,1762115138.2614355
0.5110803246498108,0.4767334759235382,-0.9595268964767456,0.9996947050094604,0.5769089460372925,0.5481303930282593,-0.5984276533126831,0.9985105991363525,0.42815399169921875,0.535839855670929,-0.5248454809188843,0.9997159838676453,0.5508903861045837,0.6982688903808594,-0.01068008691072464,0.9960455298423767,0.4611910879611969,0.7037639021873474,0.011102919466793537,0.9971329569816589,0.5539771914482117,0.9588350057601929,-0.1729496419429779,0.8165409564971924,0.4479009211063385,0.9149125218391418,-0.27125415205955505,0.8001201152801514,0.5466336011886597,1.1349780559539795,0.14374974370002747,0.49520185589790344,0.4481434226036072,1.1114050149917603,0.04665997251868248,0.40660804510116577,0.5477904081344604,0.9549064040184021,-0.47155818343162537,0.6190662980079651,0.4045288562774658,0.717154860496521,0.030596252530813217,0.6771040558815002,-178.7358861755846,0.5060407370328903,0.7010163962841034,87.15825972933447,68.52295821706383,1.2371558360307902,-0.008008630755708393,0.05135949238774083,-0.2625169272927138,1.7989700998870608,-175.27679563718368,0.9880963851299619,48,1762115138.3357587
0.5107874870300293,0.49862703680992126,-0.8685907125473022,0.9991466999053955,0.5772222280502319,0.560888409614563,-0.537066638469696,0.998234748840332,0.42973870038986206,0.5485612154006958,-0.4796144366264343,0.9996834993362427,0.5494021773338318,0.7008054256439209,-0.00860113836824894,0.9948185682296753,0.46153807640075684,0.7062491774559021,0.009226985275745392,0.9969809055328369,0.5471737384796143,0.9492958188056946,-0.21414270997047424,0.7719680070877075,0.4388684332370758,0.8810979127883911,-0.3807569444179535,0.7848026752471924,0.5444168448448181,1.1420830488204956,0.04872284084558487,0.4674048125743866,0.44539958238601685,1.1053978204727173,-0.14574863016605377,0.40621697902679443,0.5322156548500061,0.9238020181655884,-0.4548148214817047,0.5741158723831177,0.40482163429260254,0.7172267436981201,-0.0007552477763965726,0.6389475464820862,-179.23393432528098,0.5054701268672943,0.7035273015499115,86.66391123487172,67.78524966604627,1.0312839273786423,-0.008997888986638395,0.039594189167850936,-0.015599504316101721,-0.18552577337302364,-175.22212211780862,1.0537754343129282,49,1762115138.3991747
0.5098568797111511,0.5148026943206787,-0.8827334642410278,0.9987648129463196,0.5765389800071716,0.5707390308380127,-0.5400198698043823,0.9981220364570618,0.430281400680542,0.5620613694190979,-0.47609010338783264,0.9996753931045532,0.5439764857292175,0.7041910290718079,-0.003261073026806116,0.9929123520851135,0.4609808027744293,0.7068554162979126,0.003974761348217726,0.9968929290771484,0.5400261878967285,0.9483130574226379,-0.1717388778924942,0.7234525680541992,0.43973422050476074,0.8926033973693848,-0.42072826623916626,0.7649681568145752,0.542691171169281,1.1411993503570557,0.12378716468811035,0.43602368235588074,0.4460834860801697,1.1336040496826172,-0.17119529843330383,0.40496551990509033,0.5328421592712402,0.8955377340316772,-0.4799951910972595,0.5359859466552734,0.404775470495224,0.7175304889678955,-0.027550097554922104,0.6009695529937744,179.61636211693255,0.5024786442518234,0.7055232226848602,88.51540676328483,67.60304111239672,1.0610373859820235,-0.038011183245882964,0.025361111447717605,-0.36865654473518455,-0.18085217095193495,-176.60454385802146,0.2066371742266206,50,1762115138.4778748
0.5083847045898438,0.5256291031837463,-0.7514110803604126,0.9987156391143799,0.571167528629303,0.5730535984039307,-0.4443577826023102,0.9979734420776367,0.4315306544303894,0.5640159845352173,-0.4098264276981354,0.999687910079956,0.5412100553512573,0.712081253528595,-0.0034453466068953276,0.9912538528442383,0.46130862832069397,0.7076511383056641,0.004151816014200449,0.9968900084495544,0.5329542756080627,0.9373385310173035,-0.1235162764787674,0.7060244083404541,0.4388435482978821,0.881836473941803,-0.3458672761917114,0.7658509016036987,0.5334998965263367,1.1395894289016724,0.14360550045967102,0.43345826864242554,0.4462485909461975,1.1197116374969482,-0.14995673298835754,0.42238959670066833,0.5319490432739258,0.8345081806182861,-0.16975386440753937,0.4924245774745941,0.4046255648136139,0.7194209694862366,0.012426855973899364,0.5732665061950684,179.96361546111962,0.5012593418359756,0.7098661959171295,99.06382286256404,76.9273326710375,0.9617904318561913,-0.019231600876945584,0.06850009213193292,0.2962033274608196,0.6804150044927556,-176.2968527754746,0.022570977162318265,51,1762115138.5412757
0.5071457624435425,0.52815842628479,-0.6170483827590942,0.9987093210220337,0.5698171257972717,0.5698990225791931,-0.36001935601234436,0.9974561333656311,0.4320565164089203,0.562826931476593,-0.3660650849342346,0.9996693134307861,0.5380748510360718,0.7187427878379822,-0.0026984058786183596,0.9886714816093445,0.4609924852848053,0.7107473611831665,0.003045937977731228,0.9948413968086243,0.5323805809020996,0.9387422204017639,-0.04112706705927849,0.7032929062843323,0.4378621578216553,0.9183624982833862,-0.053094662725925446,0.7609238028526306,0.53328937292099,1.1380901336669922,0.16582459211349487,0.43451380729675293,0.4436274468898773,1.114942193031311,0.11292193084955215,0.41754859685897827,0.5486359596252441,0.6908038854598999,0.11742253601551056,0.44748008251190186,0.40463653206825256,0.7195395827293396,0.07917997241020203,0.5425130128860474,179.45820724500678,0.49953366816043854,0.7147450745105743,124.0006822433945,124.28286052779676,0.9646527367531524,-0.021762334144134123,0.061527151804157035,-0.031914876938185587,-0.08793519860174963,-177.06123846767213,0.42035227683682,52,1762115138.620572
0.5045141577720642,0.531303346157074,-0.6426833271980286,0.9987759590148926,0.5649268627166748,0.5692321062088013,-0.36659353971481323,0.9972406029701233,0.43192213773727417,0.5642090439796448,-0.377614289522171,0.9996834397315979,0.5340633392333984,0.723583459854126,0.0010830152314156294,0.9862894415855408,0.46094030141830444,0.717738687992096,-0.0010212979977950454,0.9940721392631531,0.5312044620513916,0.9365870356559753,-0.02489040046930313,0.693897545337677,0.4332626461982727,0.9183534383773804,-0.0559643991291523,0.7618848085403442,0.5319396257400513,1.099827527999878,0.19570471346378326,0.415255606174469,0.4442756772041321,1.1084039211273193,0.1345117688179016,0.4173141121864319,0.5470960736274719,0.7273406982421875,0.060652125626802444,0.4101160764694214,0.40420764684677124,0.7199028730392456,0.044657640159130096,0.5241933465003967,179.65658789255573,0.49750182032585144,0.720661073923111,119.54329819452302,118.95414347830646,0.9904092145088733,-0.03195564667326614,0.09304318154547636,-0.16031411804876314,0.495664632859876,-177.83719295964775,0.15704929579650914,53,1762115138.6841555
0.5000430345535278,0.5343881845474243,-0.5613400936126709,0.9988071322441101,0.5616382956504822,0.5673889517784119,-0.3295711874961853,0.9973915219306946,0.43101492524147034,0.5690375566482544,-0.3445761799812317,0.9996933937072754,0.5301917195320129,0.7344792485237122,0.0005363840609788895,0.9858692288398743,0.4594027101993561,0.7339338660240173,-0.0004884338122792542,0.992659866809845,0.5331898927688599,0.9606437683105469,-0.034109968692064285,0.6981456875801086,0.4319722652435303,0.9259800314903259,-0.049573369324207306,0.7568507790565491,0.5329211354255676,1.1064038276672363,0.12046705186367035,0.4226556420326233,0.4444182813167572,1.0941554307937622,0.15035969018936157,0.40243715047836304,0.5611807107925415,0.7126318216323853,0.10329841077327728,0.3874454200267792,0.40285101532936096,0.7255781292915344,0.07024131715297699,0.534072995185852,179.4721146523495,0.4947972148656845,0.7342065572738647,124.60357972682414,115.02694422864137,0.897679157717644,-0.034373380784859145,0.17215230242923935,-0.03072747447947549,1.005413904446234,179.27690515206632,0.2511475639371607,54,1762115138.7628386
0.49340105056762695,0.5301621556282043,-0.5737601518630981,0.9988256096839905,0.5591979622840881,0.5677554607391357,-0.3342095911502838,0.99754399061203,0.4304562211036682,0.572051465511322,-0.3421902358531952,0.999665379524231,0.528474748134613,0.7656589150428772,0.0003753508790396154,0.985927402973175,0.4591519236564636,0.7416382431983948,-0.00016626394062768668,0.9904869198799133,0.5338696241378784,0.9676510095596313,-0.04268541932106018,0.7145172953605652,0.4337241053581238,0.9500431418418884,-0.02809244953095913,0.7601053714752197,0.533328652381897,1.111701488494873,0.10609398782253265,0.44321104884147644,0.44308820366859436,1.0808411836624146,0.22429649531841278,0.38196128606796265,0.5700467824935913,0.7102993130683899,0.1054864376783371,0.37934330105781555,0.4021504521369934,0.7284739017486572,0.06609633564949036,0.5308759808540344,179.68389179188466,0.49381333589553833,0.753648579120636,122.02281304419485,109.36239319249215,0.9308929267126802,-0.015501158824722595,0.30631193232613874,0.2973346507609875,2.1137048295572978,178.08879668101167,0.22974306194491223,55,1762115138.82631
0.4910812973976135,0.522304117679596,-0.5358884930610657,0.9988560676574707,0.5556808710098267,0.5634049773216248,-0.30617445707321167,0.9977527856826782,0.42999815940856934,0.5673915147781372,-0.3071615695953369,0.9996593594551086,0.5280483365058899,0.7584242224693298,-0.00222917553037405,0.9854949712753296,0.4587838649749756,0.7484171390533447,0.002119137439876795,0.987709105014801,0.5348049402236938,0.9648059606552124,-0.07528211176395416,0.7361600399017334,0.43466082215309143,0.962483823299408,-0.040483422577381134,0.7685278654098511,0.5374736785888672,1.11332368850708,0.06926890462636948,0.47739362716674805,0.44336628913879395,1.08883798122406,0.18448582291603088,0.3797420561313629,0.5718308687210083,0.7037593722343445,0.10010912269353867,0.4044269323348999,0.40211448073387146,0.7284762859344482,0.05962158367037773,0.5457897186279297,-179.82429855264976,0.49341610074043274,0.7534206807613373,116.29196974527932,107.71820959714213,0.8799099423661324,-0.004981328892529763,-0.002857845452860312,0.13191866860777257,-3.8769890503224973,178.18324085446585,0.1013669344831842,56,1762115138.9060547
0.49118536710739136,0.5189115405082703,-0.5194181203842163,0.9988887310028076,0.5535370707511902,0.5622566342353821,-0.29930925369262695,0.9979231357574463,0.4299851357936859,0.5660801529884338,-0.2953290045261383,0.9996619820594788,0.5279301404953003,0.7545730471611023,-0.003684006631374359,0.9845243692398071,0.4587932527065277,0.7512068748474121,0.0033921946305781603,0.9843893051147461,0.535240650177002,0.9387468099594116,-0.0853593647480011,0.754375696182251,0.43689170479774475,0.9642541408538818,-0.039591435343027115,0.7718721628189087,0.5412976145744324,1.1118890047073364,0.04319410398602486,0.5023340582847595,0.44353556632995605,1.0915971994400024,0.17653198540210724,0.367025226354599,0.5701488852500916,0.7035151124000549,0.1073513776063919,0.41441527009010315,0.4020208716392517,0.7284387350082397,0.05555538460612297,0.5612465143203735,-179.51407226571092,0.493361696600914,0.7528899610042572,119.52349105361111,108.83255263961246,0.8577231078792077,-0.0008573127296499177,-0.008363201911589008,0.0649871790087073,-0.08675465166952806,178.22745315080638,0.25200586662232505,57,1762115138.9695137
0.4877908229827881,0.5145837664604187,-0.46474161744117737,0.9989462494850159,0.548234760761261,0.5570868849754333,-0.25365155935287476,0.9981017708778381,0.4296225607395172,0.5651427507400513,-0.24853761494159698,0.9996587634086609,0.5262569189071655,0.7601585984230042,-0.004959027748554945,0.9846455454826355,0.45859670639038086,0.7593052387237549,0.004651094786822796,0.9831572771072388,0.5381516814231873,0.939850926399231,-0.12327782809734344,0.7707039713859558,0.4367164671421051,0.957616925239563,-0.0545618012547493,0.777347981929779,0.5415995121002197,1.1003313064575195,0.030295025557279587,0.5252225399017334,0.44541722536087036,1.0779423713684082,0.1700620949268341,0.3587699830532074,0.5689945816993713,0.7032694220542908,0.08597561717033386,0.44551801681518555,0.40199780464172363,0.7284262776374817,0.054804883897304535,0.5820877552032471,-178.99098003894971,0.4924268126487732,0.7597319185733795,102.92551592108362,101.27044296470783,0.8057783383460332,-0.014725473738762082,0.10776852707239584,-0.21843913383791558,1.8292053484015067,176.11457034793477,0.5757995646768902,58,1762115139.0330012
0.48634228110313416,0.4948903024196625,-0.40475067496299744,0.9990420937538147,0.5442476868629456,0.5460748672485352,-0.1958395093679428,0.9982668161392212,0.42859286069869995,0.5570764541625977,-0.2024368941783905,0.9996681809425354,0.5250982642173767,0.7563350200653076,-0.004956640303134918,0.9847167134284973,0.45832085609436035,0.7594995498657227,0.004661931190639734,0.9818883538246155,0.5398167967796326,0.9226847887039185,-0.1963503062725067,0.7862437963485718,0.4385434091091156,0.9539361000061035,-0.06366485357284546,0.7814241647720337,0.5435513257980347,1.0917587280273438,-0.07561831176280975,0.5445436239242554,0.4512268900871277,1.0797849893569946,0.12697497010231018,0.3486594259738922,0.5682331323623657,0.7003052830696106,0.12077741324901581,0.449194073677063,0.4026918411254883,0.7284930944442749,0.09981133788824081,0.5929800868034363,-178.53162232308088,0.49170956015586853,0.7579172849655151,95.51547507790701,103.66804341175553,0.7311170723796218,-0.011296897120176041,-0.0285809103232808,0.05400089607489985,-2.1475360237717327,174.56612817473058,0.6442488617486659,59,1762115139.0964923
0.4842941164970398,0.4815717339515686,-0.4240027070045471,0.9991077780723572,0.5416504740715027,0.5326703190803528,-0.210783451795578,0.9984171390533447,0.4273165166378021,0.5448988080024719,-0.2251615822315216,0.9996888041496277,0.5235128998756409,0.7543794512748718,-0.003594383131712675,0.9857345223426819,0.45719465613365173,0.759638786315918,0.003326828358694911,0.9826412200927734,0.5408596992492676,0.9282847046852112,-0.11858278512954712,0.8035072684288025,0.4465409815311432,0.9583045840263367,-0.061215974390506744,0.7938201427459717,0.5445941686630249,1.096929907798767,0.0028580271173268557,0.5646615028381348,0.4545263350009918,1.0777616500854492,0.1858479380607605,0.3375179171562195,0.5679084062576294,0.699499785900116,0.07527314871549606,0.46775877475738525,0.40263253450393677,0.7284851670265198,0.02859669364988804,0.6167849898338318,-178.45910407685076,0.4903537780046463,0.7570091187953949,110.78174737670753,97.70675295537563,0.7974257767380691,-0.020025081698195595,-0.013413734452692519,-0.12891644066431102,0.22402119371878884,173.89518720519465,1.0015989335931743,60,1762115139.1641965
0.48316699266433716,0.4781144857406616,-0.4292334020137787,0.9991633296012878,0.5412961840629578,0.5302117466926575,-0.21320530772209167,0.9985456466674805,0.4261729121208191,0.5411621928215027,-0.22706350684165955,0.9997058510780334,0.5229114890098572,0.7541749477386475,-0.0025288977194577456,0.986669659614563,0.4560219645500183,0.7620264887809753,0.002294220495969057,0.9833829998970032,0.5425084829330444,0.9419437050819397,-0.06871207803487778,0.8187571167945862,0.44871312379837036,0.9614966511726379,-0.05436909198760986,0.8049753308296204,0.5446879267692566,1.0973570346832275,0.07050064951181412,0.580680251121521,0.45362725853919983,1.075778841972351,0.2101239413022995,0.3230401873588562,0.567608118057251,0.6997377872467041,0.08530046045780182,0.48523133993148804,0.402641624212265,0.7287979125976562,0.03233184665441513,0.6387166976928711,-178.52366609440602,0.48946672677993774,0.7581007182598114,118.64461166416011,97.4693801755636,0.8335787933385893,-0.01182215588269873,0.014548268093584272,0.10932431519597906,0.37266298009239884,174.56641279201568,1.6157043786665373,61,1762115139.2392294
0.48163944482803345,0.47459903359413147,-0.44358882308006287,0.9992251992225647,0.538770318031311,0.5260577201843262,-0.22119534015655518,0.9986670613288879,0.42575615644454956,0.5358335375785828,-0.2351389229297638,0.9997260570526123,0.5219308733940125,0.7538213729858398,-0.002192727057263255,0.9876051545143127,0.45497703552246094,0.7592994570732117,0.001970759592950344,0.9842550158500671,0.5432066321372986,0.9422765970230103,-0.11431273072957993,0.8317167162895203,0.44992995262145996,0.9593366980552673,-0.0584397092461586,0.8122060298919678,0.5450214743614197,1.0994930267333984,0.04287299886345863,0.5947460532188416,0.45328640937805176,1.0769039392471313,0.18967655301094055,0.31405553221702576,0.5665607452392578,0.6994678378105164,0.06423279643058777,0.4981459081172943,0.40207916498184204,0.7293522357940674,0.006095188669860363,0.6625260710716248,-178.42823693070747,0.4884539544582367,0.7565604150295258,104.2331736436379,98.52891664930516,0.8308178449036973,-0.015964953490557175,-0.024280747909424034,-0.06530546867549042,-0.6120856793666514,175.0561742579529,2.3933344055260086,62,1762115139.3026667
0.47946515679359436,0.4691934883594513,-0.47173041105270386,0.9992892146110535,0.5358503460884094,0.5247143507003784,-0.23280087113380432,0.9987853169441223,0.4257023334503174,0.5320484638214111,-0.24825450778007507,0.9997468590736389,0.5202767848968506,0.7530564069747925,-0.0007610408356413245,0.9885884523391724,0.4540587365627289,0.757940411567688,0.0005670737009495497,0.985312283039093,0.5448247790336609,0.9494264125823975,-0.08808062970638275,0.8427857756614685,0.4497654438018799,0.9619550108909607,-0.056064147502183914,0.8194401264190674,0.5449858903884888,1.1072361469268799,0.11043576151132584,0.602374792098999,0.45152273774147034,1.0836567878723145,0.20610888302326202,0.30759498476982117,0.5657686591148376,0.7018551826477051,0.02096690982580185,0.5256885290145874,0.40078815817832947,0.7296375036239624,-0.06942833960056305,0.6879962682723999,-178.38803428098345,0.48716776072978973,0.7554984092712402,104.41779221246384,99.37767288847456,0.8885095779890583,-0.016188158104000313,-0.01336650672620173,-0.002809274755462151,0.13736769038092853,176.19063144213922,6.656325077839578,63,1762115139.3821194
0.4779601991176605,0.46509474515914917,-0.4421382546424866,0.9993543028831482,0.5330094695091248,0.5241843461990356,-0.20655779540538788,0.9989003539085388,0.4257487654685974,0.5286004543304443,-0.22443191707134247,0.9997679591178894,0.5182641744613647,0.7525190711021423,0.0029559123795479536,0.9895349740982056,0.45273733139038086,0.7578839659690857,-0.00305886659771204,0.9863401055335999,0.546075165271759,0.9497914910316467,-0.1177314892411232,0.8529111742973328,0.44976288080215454,0.9606536626815796,-0.05908031389117241,0.8267741799354553,0.5447893142700195,1.1129395961761475,0.07240299880504608,0.608496904373169,0.4492216110229492,1.0954711437225342,0.17371366918087006,0.313064843416214,0.5656406283378601,0.703822135925293,-0.03476683050394058,0.5636016726493835,0.39759185910224915,0.7315661907196045,-0.16795143485069275,0.7161901593208313,-178.4674552045693,0.4855007529258728,0.755201518535614,99.07229901482164,104.63174933067631,0.8533887136514846,-0.02625902286418195,-0.004676679135307284,-0.15863817036628092,0.13688381113689566,177.64236551322685,6.693527842212382,64,1762115139.4456027
0.47684603929519653,0.460086852312088,-0.4475692808628082,0.9994149208068848,0.5304745435714722,0.5237728357315063,-0.2073175460100174,0.9990048408508301,0.4257234036922455,0.5268653035163879,-0.22332902252674103,0.9997871518135071,0.5173323750495911,0.7520484328269958,0.004480421543121338,0.9903926849365234,0.4517982602119446,0.7577368021011353,-0.004562205169349909,0.9873571991920471,0.5477635860443115,0.9553216695785522,-0.1266113668680191,0.861500084400177,0.44378095865249634,0.9677619338035583,-0.07727080583572388,0.8347164392471313,0.5451399087905884,1.119106411933899,0.07074321806430817,0.614728569984436,0.44450831413269043,1.107224464416504,0.14553426206111908,0.32904812693595886,0.5655428767204285,0.7096235752105713,-0.06730496883392334,0.6015609502792358,0.39570900797843933,0.7328195571899414,-0.18627765774726868,0.7421014904975891,-178.3865898712281,0.4845653176307678,0.7548926174640656,96.74302049861636,102.93403838430126,0.8576982306806666,-0.01475,-0.0048707706766917295,0.181474964794473,-0.0030604470992291175,178.3090026123176,6.812695391348555,65,1762115139.509022
0.47640857100486755,0.45892754197120667,-0.4363815188407898,0.9994696378707886,0.5298750400543213,0.5237128734588623,-0.20224745571613312,0.999099850654602,0.42567873001098633,0.5251471400260925,-0.21289284527301788,0.9998036026954651,0.5171687006950378,0.751792848110199,0.004494321066886187,0.9911649227142334,0.45126837491989136,0.7573328018188477,-0.004551254212856293,0.9882470369338989,0.5490524172782898,0.9556874632835388,-0.13195151090621948,0.8688559532165527,0.444741427898407,0.9563276767730713,-0.08448077738285065,0.841063916683197,0.5450811982154846,1.1194764375686646,0.06467600166797638,0.6204406023025513,0.4411414563655853,1.1052268743515015,0.13654230535030365,0.3446449637413025,0.5654771327972412,0.7142571210861206,-0.0975058376789093,0.6360716819763184,0.3953917920589447,0.7336102724075317,-0.2014733999967575,0.7651835083961487,-178.39665122824528,0.4842185378074646,0.7545628249645233,95.83740657410299,102.10083058349008,0.8459320522361806,-0.004373134014233356,-0.004158912083319553,0.13085947495802747,0.008977030434893948,179.21137100413492,1.7011727602710933,66,1762115139.5883198
0.47496238350868225,0.45513516664505005,-0.4564529359340668,0.9995183944702148,0.5272140502929688,0.523524820804596,-0.2085386961698532,0.9991844892501831,0.4252958297729492,0.5234265327453613,-0.22342951595783234,0.9998181462287903,0.5164152979850769,0.7489999532699585,0.006243889220058918,0.9918392896652222,0.4505598545074463,0.7547183632850647,-0.00626577902585268,0.9890636205673218,0.5486198663711548,0.9555246829986572,-0.1513856202363968,0.875314474105835,0.4456918239593506,0.936201810836792,-0.12049023807048798,0.8477222919464111,0.5449520349502563,1.1191418170928955,0.055693190544843674,0.6250613331794739,0.4377228319644928,1.10471773147583,0.1041795164346695,0.36163944005966187,0.5650559663772583,0.7201038599014282,-0.10427725315093994,0.6674149632453918,0.3942619264125824,0.7346134781837463,-0.1897016316652298,0.7850673794746399,-178.18611628738165,0.4834875762462616,0.7518591582775116,90.85501936256081,94.71991344622559,0.8481513831230219,-0.011526885884440702,-0.04263542575269949,-0.11281096822351698,-0.6067547267029166,-179.94474502011397,1.2428466271790541,67,1762115139.6517334
