nose_x,nose_y,nose_z,nose_visibility,left_shoulder_x,left_shoulder_y,left_shoulder_z,left_shoulder_visibility,right_shoulder_x,right_shoulder_y,right_shoulder_z,right_shoulder_visibility,left_hip_x,left_hip_y,left_hip_z,left_hip_visibility,right_hip_x,right_hip_y,right_hip_z,right_hip_visibility,left_knee_x,left_knee_y,left_knee_z,left_knee_visibility,right_knee_x,right_knee_y,right_knee_z,right_knee_visibility,left_ankle_x,left_ankle_y,left_ankle_z,left_ankle_visibility,right_ankle_x,right_ankle_y,right_ankle_z,right_ankle_visibility,left_wrist_x,left_wrist_y,left_wrist_z,left_wrist_visibility,right_wrist_x,right_wrist_y,right_wrist_z,right_wrist_visibility,trunk_lateral_inclination,center_mass_x,center_mass_y,left_knee_angle,right_knee_angle,person_height,center_mass_velocity_x,center_mass_velocity_y,center_mass_acceleration_x,center_mass_acceleration_y,body_orientation,torso_leg_ratio,frame,timestamp
0.44164618849754333,0.6798533797264099,-0.17037661373615265,0.9954017400741577,0.44223061203956604,0.6584275364875793,-0.09939387440681458,0.9997819066047668,0.46235036849975586,0.6277151107788086,-0.13874226808547974,0.9999736547470093,0.3910006880760193,0.5715060234069824,-0.004562833812087774,0.9995519518852234,0.4035513997077942,0.5288209319114685,0.004247642587870359,0.99997878074646,0.39910003542900085,0.6305571794509888,-0.09323880821466446,0.9235839247703552,0.3925916254520416,0.43120184540748596,-0.08347240835428238,0.9931098222732544,0.39659079909324646,0.7086808681488037,-0.07786428183317184,0.5231127142906189,0.3768486976623535,0.3114875555038452,-0.14042173326015472,0.9734653830528259,0.38948166370391846,0.6274396181106567,-0.06443336606025696,0.14552898705005646,0.407243549823761,0.6725016832351685,-0.1462065428495407,0.7320974469184875,30.631469568888576,0.39727604389190674,0.5501634776592255,112.29627071542814,163.4511429130136,0.18864792265138947,0.0,0.0,0.0,0.0,-56.7711314107553,6.0276050987265455,0,1762115089.761636
0.34583860635757446,0.15689617395401,-0.11746363341808319,0.9958326816558838,0.3951326906681061,0.2522777318954468,-0.2512699067592621,0.9997992515563965,0.39553260803222656,0.24610352516174316,0.06637993454933167,0.9998660087585449,0.40359240770339966,0.5396378636360168,-0.08600157499313354,0.9994764924049377,0.40563052892684937,0.5287340879440308,0.0859052762389183,0.9996468424797058,0.39558205008506775,0.7149783372879028,0.03265700861811638,0.9230031371116638,0.40590721368789673,0.6817076206207275,0.20021414756774902,0.9447569847106934,0.43017157912254333,0.8410122990608215,0.1786278933286667,0.5629686713218689,0.42614930868148804,0.8208698034286499,0.34281033277511597,0.9272927641868591,0.36977094411849976,0.5345893502235413,-0.21020951867103577,0.23016388714313507,0.3917396664619446,0.5035280585289001,0.057058822363615036,0.6700220704078674,-178.13523468651283,0.4046114683151245,0.5341859757900238,160.5463144511421,169.40174950516354,0.7772615848388081,0.043682896840383574,-0.09514699159196167,0.26013429711413205,-0.5666060991957292,-86.29399948869438,0.3384353716873108,1,1762115089.9295604
0.34588226675987244,0.15690170228481293,-0.12677167356014252,0.9962258338928223,0.39538833498954773,0.2560238242149353,-0.25821539759635925,0.9998154640197754,0.3966553807258606,0.24683606624603271,0.04500531032681465,0.9997899532318115,0.40372008085250854,0.5396470427513123,-0.08601336181163788,0.9994142651557922,0.4056287407875061,0.5289137363433838,0.0859135314822197,0.9993762373924255,0.39558321237564087,0.7150352597236633,0.04082093760371208,0.9187420606613159,0.40590009093284607,0.6815666556358337,0.2100411206483841,0.8930283784866333,0.4333594739437103,0.8399357199668884,0.19154319167137146,0.5962218642234802,0.4287486672401428,0.8206589818000793,0.36546969413757324,0.8776684403419495,0.3699112832546234,0.5348778963088989,-0.20538826286792755,0.3053728938102722,0.391642302274704,0.5056908130645752,0.05220988392829895,0.6091822385787964,-178.24783653702778,0.4046744108200073,0.534280389547348,160.54202881664534,169.04594610079093,0.7905480930371893,0.0008056837325130008,0.0012085255987695012,-0.5488417272369747,1.2333807318756334,-82.14810172385336,0.2854363930406752,2,1762115090.0076835
0.34597450494766235,0.15680018067359924,-0.12614934146404266,0.9965696930885315,0.3959861397743225,0.25798460841178894,-0.2598189115524292,0.9998291730880737,0.3971545994281769,0.24723288416862488,0.045727476477622986,0.999717652797699,0.40390658378601074,0.5396921634674072,-0.0867832601070404,0.9993409514427185,0.40612244606018066,0.5289480090141296,0.08666875213384628,0.99910968542099,0.39557352662086487,0.7148979306221008,0.038718052208423615,0.9153046011924744,0.40628474950790405,0.6813685297966003,0.20927563309669495,0.8449499011039734,0.4353426396846771,0.8399405479431152,0.18315543234348297,0.6267155408859253,0.43069154024124146,0.8198481798171997,0.36097022891044617,0.8314167857170105,0.37038177251815796,0.5357109308242798,-0.20319700241088867,0.37271395325660706,0.3916606307029724,0.5066806674003601,0.04891257733106613,0.5545821189880371,-178.28310401156622,0.4050145149230957,0.5343200862407684,160.62138693203173,168.93579723785513,0.7868958794364646,0.004702798931856394,0.0005489071308475917,0.05388746866141428,-0.009120892686113265,-83.79763718341312,0.2631480563321558,3,1762115090.080003
0.3462551236152649,0.15661028027534485,-0.12555155158042908,0.9968734979629517,0.3971448838710785,0.25935623049736023,-0.2595187723636627,0.9998408555984497,0.39739853143692017,0.24779565632343292,0.04585758224129677,0.9996473789215088,0.4051646590232849,0.5401199460029602,-0.08670711517333984,0.9992730021476746,0.4061535894870758,0.5293455719947815,0.08658751845359802,0.99885094165802,0.39611610770225525,0.7156856060028076,0.0385628305375576,0.911405086517334,0.4063422679901123,0.6813555955886841,0.20855283737182617,0.8008277416229248,0.43569573760032654,0.8396586775779724,0.1794491708278656,0.6534497141838074,0.4308566451072693,0.8182843327522278,0.3580929636955261,0.7873052358627319,0.37112587690353394,0.5367604494094849,-0.19797857105731964,0.4333261549472809,0.39177098870277405,0.5085532069206238,0.04773222655057907,0.5056324005126953,-178.29126997952383,0.40565912425518036,0.5347327589988708,160.61775491222434,168.88160155088454,0.784303902002354,0.009014695585489464,0.005771122299279808,0.06030076481034875,0.07303133492203226,-88.74308979568208,0.26171416884637766,4,1762115090.1515095
0.34645354747772217,0.15599772334098816,-0.12862323224544525,0.9971423745155334,0.39812952280044556,0.2593798041343689,-0.2638583183288574,0.9998517632484436,0.3987649083137512,0.24772432446479797,0.043289873749017715,0.9995787143707275,0.40558046102523804,0.5401824116706848,-0.0869007483124733,0.9991945624351501,0.4068966805934906,0.5293499827384949,0.08677387237548828,0.998562753200531,0.3966927230358124,0.7155463099479675,0.04035424068570137,0.9031243324279785,0.40671882033348083,0.6795800924301147,0.2140018492937088,0.7552825212478638,0.4370175004005432,0.8361071348190308,0.19145822525024414,0.6721004843711853,0.4312109351158142,0.8154100775718689,0.37155869603157043,0.7401658296585083,0.3722221255302429,0.5380687117576599,-0.20122893154621124,0.4880652129650116,0.3922467529773712,0.5096435546875,0.046145401895046234,0.46149006485939026,-178.41296170177426,0.4062385708093643,0.5347661972045898,159.1278401880288,168.76969506760497,0.7902354325299722,0.0074862080967943645,0.0004320076883507317,-0.019747421623436564,-0.06897913662864055,-86.87967280566178,0.24040383888661748,5,1762115090.2289114
0.3465966582298279,0.155438631772995,-0.13112066686153412,0.9973857998847961,0.39863839745521545,0.25933584570884705,-0.26824814081192017,0.9998619556427002,0.39967578649520874,0.2476842701435089,0.042250145226716995,0.999517560005188,0.40586766600608826,0.5402854681015015,-0.08763054758310318,0.9991368651390076,0.40753084421157837,0.5293596982955933,0.08749329298734665,0.9983224868774414,0.39699995517730713,0.715359091758728,0.04226081818342209,0.8966012597084045,0.406895250082016,0.6784107685089111,0.22028136253356934,0.716239869594574,0.4375409185886383,0.8343088030815125,0.19854214787483215,0.690093994140625,0.4311044216156006,0.8127331137657166,0.38277706503868103,0.7001698017120361,0.37279996275901794,0.5387992262840271,-0.20256419479846954,0.5371631979942322,0.39264756441116333,0.5101882815361023,0.046581752598285675,0.421464204788208,-178.46423254886332,0.4066992551088333,0.5348225831985474,158.69839658728407,168.9871599628731,0.7949392727135668,0.005890790580832409,0.0007210102069436484,-0.020400674575531668,0.0036954880301462902,-84.91213018637546,0.23295488681685278,6,1762115090.3071156
0.3466484844684601,0.15487933158874512,-0.13647976517677307,0.9976187944412231,0.39983195066452026,0.25921133160591125,-0.27287718653678894,0.9998725056648254,0.400423526763916,0.24714145064353943,0.04026659578084946,0.9994850158691406,0.4064255654811859,0.5399506688117981,-0.08910282701253891,0.9991405010223389,0.4089517593383789,0.5290771722793579,0.08895888924598694,0.9982354044914246,0.39701369404792786,0.7137852311134338,0.04590870067477226,0.8934903144836426,0.40888136625289917,0.6746479272842407,0.2304699867963791,0.6885330677032471,0.4385968744754791,0.8345156311988831,0.20268473029136658,0.7113437652587891,0.43199214339256287,0.8080717325210571,0.40018773078918457,0.6745933294296265,0.3737357258796692,0.5385738015174866,-0.20285387337207794,0.5810476541519165,0.39315247535705566,0.5085148215293884,0.047189708799123764,0.3844350576400757,-178.46055104580856,0.4076886624097824,0.534513920545578,159.63591673780522,170.21036068528437,0.8023319906409203,0.014644464049404499,-0.00456859285399206,0.12956530266934554,-0.07829273322239041,-87.19403100778335,0.23373712917716546,7,1762115090.3746774
0.3469173014163971,0.15411338210105896,-0.13409987092018127,0.9977831840515137,0.4019162654876709,0.2575240135192871,-0.27207356691360474,0.999880313873291,0.40069836378097534,0.24603885412216187,0.04241764172911644,0.9994001984596252,0.4084622859954834,0.5384768843650818,-0.09141774475574493,0.9990890026092529,0.4099728465080261,0.5285177826881409,0.09126468002796173,0.9980155229568481,0.39806586503982544,0.7124872803688049,0.038234297186136246,0.888204038143158,0.4102863371372223,0.6715492010116577,0.22572307288646698,0.6555909514427185,0.43944501876831055,0.8325833082199097,0.1855185329914093,0.7287095189094543,0.4326598048210144,0.8032135963439941,0.3870503604412079,0.6457559466362,0.37716877460479736,0.5369935035705566,-0.20340606570243835,0.6201285123825073,0.39610666036605835,0.5072054266929626,0.044179417192935944,0.35080209374427795,-178.39162440250158,0.40921756625175476,0.5334973335266113,159.4405491564433,170.3334558080338,0.7907456366062956,0.023374878344833618,-0.015542244870434969,0.13347626348586444,-0.1677723437152105,-96.05310037663718,0.24814676778578953,8,1762115090.4400854
0.3469848334789276,0.15365292131900787,-0.13272452354431152,0.9979404807090759,0.40280237793922424,0.25647538900375366,-0.2716990113258362,0.9998877644538879,0.4017690122127533,0.24587590992450714,0.0436566136777401,0.9993159174919128,0.4108635485172272,0.5384865403175354,-0.09202875196933746,0.9990352392196655,0.41208696365356445,0.5286214351654053,0.09188653528690338,0.9978048801422119,0.40006452798843384,0.7121535539627075,0.03852064162492752,0.8828352689743042,0.4114047884941101,0.6706497669219971,0.22759553790092468,0.6254612803459167,0.4411337375640869,0.8309391736984253,0.19163452088832855,0.7417784333229065,0.43538951873779297,0.8014676570892334,0.39199286699295044,0.6161861419677734,0.3807491660118103,0.5363094210624695,-0.2121153324842453,0.6562056541442871,0.39850103855133057,0.5070294737815857,0.045056797564029694,0.32058292627334595,-178.13605637449396,0.4114752560853958,0.5335539877414703,158.79466949093904,169.72015100519596,0.7921725244854724,0.026530905998806458,0.0006657635723311321,0.03708758916726362,0.1904659984801332,-95.56829005339372,0.2825125894707533,9,1762115090.525182
0.34716978669166565,0.1520523875951767,-0.14568015933036804,0.998086154460907,0.4051874577999115,0.25505977869033813,-0.28309836983680725,0.9998959302902222,0.4034338593482971,0.24437327682971954,0.0392429493367672,0.9992261528968811,0.414498507976532,0.5357716679573059,-0.09278221428394318,0.9990212917327881,0.4146210253238678,0.5253089666366577,0.09264399111270905,0.9976099729537964,0.40378516912460327,0.7077383399009705,0.0514640212059021,0.8798108100891113,0.41453346610069275,0.6626473069190979,0.2403992861509323,0.6010592579841614,0.4423283636569977,0.8289258480072021,0.21302530169487,0.7560240626335144,0.4365190863609314,0.790867269039154,0.41716232895851135,0.5925365090370178,0.386583149433136,0.5333289504051208,-0.21689042448997498,0.6879511475563049,0.402660608291626,0.5041070580482483,0.04559072107076645,0.29232314229011536,-177.9098276709427,0.4145597666501999,0.5305403172969818,161.17745317631784,170.96433325389867,0.8084444310404181,0.04017381651062773,-0.039251168351266165,0.17769035704620306,-0.5198930154637597,-99.31888333018905,0.33864100826024085,10,1762115090.6019611
0.3474116623401642,0.15118813514709473,-0.1498418003320694,0.9982197880744934,0.40635329484939575,0.2537465989589691,-0.2884652614593506,0.9999021887779236,0.4034005105495453,0.2431190460920334,0.04036730155348778,0.9991430640220642,0.4166628420352936,0.5347123742103577,-0.09427028149366379,0.9989675879478455,0.414248526096344,0.5249870419502258,0.09414368867874146,0.9974133372306824,0.4059356153011322,0.7067108750343323,0.05077259987592697,0.8765933513641357,0.4143206477165222,0.6639164686203003,0.23661048710346222,0.5810746550559998,0.44420987367630005,0.8270440697669983,0.2062768042087555,0.7688636183738708,0.43850040435791016,0.794014036655426,0.4067220687866211,0.5763893723487854,0.3869996964931488,0.532195508480072,-0.22430357336997986,0.7169128656387329,0.40184202790260315,0.50263512134552,0.04541459679603577,0.26698458194732666,-177.84720002117226,0.4154556840658188,0.5298497080802917,161.70734815482672,170.59769837178104,0.8073432649592719,0.012218815235840775,-0.009418754755509889,-0.38125946603946187,0.4068642303531106,-105.52754581567962,0.33875940895505585,11,1762115090.675284
0.3476608693599701,0.15085603296756744,-0.14806607365608215,0.9983354210853577,0.4077762961387634,0.25361910462379456,-0.2844383120536804,0.9999074339866638,0.4033893644809723,0.24288614094257355,0.03702716901898384,0.9990811944007874,0.4200863838195801,0.5337148308753967,-0.09391558915376663,0.9989430904388428,0.4158157706260681,0.5244552493095398,0.09378908574581146,0.9972923398017883,0.4082556366920471,0.7049248814582825,0.04891384020447731,0.8750469088554382,0.41512489318847656,0.6630661487579346,0.23336735367774963,0.5647945404052734,0.4457437992095947,0.8245253562927246,0.2038673460483551,0.7815361022949219,0.43989235162734985,0.7939483523368835,0.4006922245025635,0.5627805590629578,0.3907962143421173,0.5306699275970459,-0.22174982726573944,0.7418582439422607,0.40461868047714233,0.5018782019615173,0.045247964560985565,0.2439940720796585,-177.4782444548134,0.4179510772228241,0.5290850400924683,161.35708180292178,170.37181555464886,0.8033253341203114,0.038525723845491286,-0.011805509544527632,0.4061454979464048,-0.03684848442838209,-112.23152425797835,0.39732475230988235,12,1762115090.740056
0.34810107946395874,0.15089145302772522,-0.15097656846046448,0.9983999729156494,0.40849143266677856,0.2507556080818176,-0.29051125049591064,0.9999126195907593,0.40316706895828247,0.24229949712753296,0.036141104996204376,0.9989551901817322,0.42260223627090454,0.5318922400474548,-0.09470982849597931,0.998875617980957,0.4160049557685852,0.524074137210846,0.09457755833864212,0.9970011115074158,0.41177111864089966,0.7010904550552368,0.0477236732840538,0.8693329691886902,0.41529273986816406,0.6631882190704346,0.23459139466285706,0.5418676137924194,0.44851693511009216,0.8249277472496033,0.20358939468860626,0.7886306047439575,0.44261032342910767,0.795252799987793,0.40437889099121094,0.5422745943069458,0.3948920965194702,0.5298871397972107,-0.22457793354988098,0.7647097706794739,0.4071810245513916,0.5005693435668945,0.04543000087141991,0.22298504412174225,-177.2591271111677,0.4193035960197449,0.5279831886291504,162.5143876725313,169.8280654964329,0.8068650956077404,0.017849613769016566,-0.014541478533108883,-0.27286909427874145,-0.03610743883291317,-122.19644088457099,0.4206434425095629,13,1762115090.815829
0.3490123450756073,0.15635138750076294,-0.1484837532043457,0.9984962344169617,0.4086691439151764,0.2507072687149048,-0.2873816192150116,0.999918520450592,0.4046723246574402,0.24280789494514465,0.03684401512145996,0.9988850355148315,0.42584019899368286,0.5325323939323425,-0.09467865526676178,0.9988610148429871,0.4224173128604889,0.5244349837303162,0.09452874958515167,0.9968183636665344,0.41415396332740784,0.7017466425895691,0.06114641949534416,0.8680148124694824,0.4190945625305176,0.66361403465271,0.23931650817394257,0.5247637033462524,0.4500455856323242,0.824947714805603,0.22790661454200745,0.7957349419593811,0.4448264539241791,0.7959925532341003,0.4168410301208496,0.5253344178199768,0.39820748567581177,0.5306180119514465,-0.22300148010253906,0.7857317924499512,0.41413551568984985,0.5040394067764282,0.04299009591341019,0.20493704080581665,-176.45402568225256,0.4241287559270859,0.5284836888313293,163.26382402639834,169.58086390590975,0.8119516061497157,0.06807076596560505,0.007060788198216682,0.7084930579183408,0.3047531835696148,-116.83788657089427,0.566584214653953,14,1762115090.8867135
0.34904733300209045,0.1664314568042755,-0.13252125680446625,0.9985604286193848,0.4085376262664795,0.2529585659503937,-0.27116745710372925,0.9999215006828308,0.4048486351966858,0.24793773889541626,0.0377119742333889,0.9987269043922424,0.42982029914855957,0.5361632704734802,-0.0913901999592781,0.9987393617630005,0.4256342053413391,0.5269391536712646,0.09121821820735931,0.9964675307273865,0.42223024368286133,0.7015758156776428,0.05719514563679695,0.8674903512001038,0.4241419732570648,0.6779597997665405,0.22602999210357666,0.5107600688934326,0.4513148367404938,0.8245531916618347,0.22064022719860077,0.8002070188522339,0.44761544466018677,0.7976893186569214,0.39202719926834106,0.5103548169136047,0.400918573141098,0.5328738689422607,-0.21410676836967468,0.8047016859054565,0.41473889350891113,0.5075075626373291,0.05173822492361069,0.18732453882694244,-175.720698888723,0.42772725224494934,0.5315512120723724,165.0384921260714,165.75658681397468,0.7863220440335271,0.0498720831488445,0.042513250153648915,-0.25221818850597094,0.4913408196905783,-126.30612883489155,0.8003841596911464,15,1762115090.958868
0.34912124276161194,0.17022641003131866,-0.13324013352394104,0.998649001121521,0.40845251083374023,0.25478115677833557,-0.26971060037612915,0.9999251365661621,0.405205100774765,0.24877870082855225,0.03450969606637955,0.9986525177955627,0.43049296736717224,0.5358829498291016,-0.08834907412528992,0.9986673593521118,0.4266280233860016,0.5269137620925903,0.08818961679935455,0.9962981939315796,0.4191414415836334,0.7014508843421936,0.05684558302164078,0.8665046691894531,0.4247167706489563,0.6768616437911987,0.22204649448394775,0.4960842430591583,0.45105496048927307,0.8245331645011902,0.2218094766139984,0.8035480976104736,0.44885286688804626,0.7978832721710205,0.38664060831069946,0.49434027075767517,0.40103965997695923,0.53310227394104,-0.2185111939907074,0.822638750076294,0.4137570261955261,0.5050351023674011,0.05157681182026863,0.17184364795684814,-175.5559575351402,0.4285604953765869,0.531398355960846,163.20050001523728,166.048448630448,0.7825603403602002,0.009678895652511064,-0.0017755662148763993,-0.4668813374486164,-0.5144558843968162,-118.4139890542264,0.7754170692930572,16,1762115091.0449567
0.3491155505180359,0.17895376682281494,-0.1301499307155609,0.998731791973114,0.40834227204322815,0.2571077048778534,-0.2595667243003845,0.9999291896820068,0.40509939193725586,0.25270503759384155,0.03209917992353439,0.9985383152961731,0.4324069917201996,0.5371354222297668,-0.08321094512939453,0.9986401200294495,0.42827194929122925,0.5282536745071411,0.08302474021911621,0.9961264133453369,0.4213838577270508,0.7017050385475159,0.06515810638666153,0.8658389449119568,0.42612743377685547,0.678921639919281,0.21859964728355408,0.4821370840072632,0.45254141092300415,0.8239212036132812,0.2265424281358719,0.8044420480728149,0.45103055238723755,0.798719048500061,0.3794853091239929,0.47649115324020386,0.40363821387290955,0.5384252071380615,-0.21556803584098816,0.8390254974365234,0.4138626158237457,0.509391188621521,0.05053580552339554,0.15781152248382568,-175.14017665230307,0.4303394705057144,0.532694548368454,164.15206719077452,166.3132515781512,0.7733429425448842,0.024074215977285925,0.017540895011937795,0.1948065742385123,0.2614025636880418,-126.37430905457914,0.8425798398285881,17,1762115091.1188521
0.3490617871284485,0.1937529295682907,-0.1417873203754425,0.9988124966621399,0.4081234931945801,0.26156967878341675,-0.2653895318508148,0.9999343156814575,0.4036366045475006,0.25986242294311523,0.023193359375,0.9985073208808899,0.4372316300868988,0.5374311208724976,-0.08371128886938095,0.9986676573753357,0.430597722530365,0.5283211469650269,0.08350804448127747,0.9960684776306152,0.42654624581336975,0.7017977833747864,0.07258455455303192,0.87123703956604,0.42793288826942444,0.6801146268844604,0.22560980916023254,0.47926419973373413,0.4542067050933838,0.8240569233894348,0.237629696726799,0.8139835596084595,0.4516495168209076,0.7993723750114441,0.396180659532547,0.4750809073448181,0.4079715311527252,0.5443306565284729,-0.22964027523994446,0.8537663817405701,0.4180331230163574,0.5136315226554871,0.04648265615105629,0.14546355605125427,-174.11882685859382,0.4339146763086319,0.5328761339187622,165.66789389125384,166.06303299375276,0.7765717663817527,0.051103484940395454,0.002595558115283164,0.38635253900040945,-0.21362652701113743,-159.168239042537,1.091285525719487,18,1762115091.1888123
0.34821146726608276,0.2071460783481598,-0.14232967793941498,0.9988831281661987,0.40600690245628357,0.27278953790664673,-0.26864829659461975,0.9999387264251709,0.4029955267906189,0.26761242747306824,0.020647037774324417,0.9984974265098572,0.43832406401634216,0.5400382280349731,-0.08384998142719269,0.9987210631370544,0.43359375,0.5289983749389648,0.08371002227067947,0.9960858225822449,0.4264988899230957,0.7019661664962769,0.08210332691669464,0.8762770295143127,0.4297001361846924,0.6730523705482483,0.24242451786994934,0.47542405128479004,0.4542003273963928,0.8243989944458008,0.24751535058021545,0.8242798447608948,0.4521276354789734,0.799437940120697,0.41737261414527893,0.4747259020805359,0.4110909104347229,0.552304208278656,-0.2369574010372162,0.8660953640937805,0.4205033779144287,0.5198953747749329,0.04554655775427818,0.13407523930072784,-173.21287536949464,0.4359589070081711,0.534518301486969,166.86279002817642,170.54576233668138,0.7759991631219119,0.027397834790972332,0.02200917721417867,-0.3177153569569674,0.2601913418511445,-120.18532783668124,1.2550211271960479,19,1762115091.263425
0.3476007282733917,0.22109533846378326,-0.13427607715129852,0.9989343285560608,0.4021080434322357,0.2809646725654602,-0.2669481933116913,0.9999410510063171,0.4029862880706787,0.27487510442733765,0.01655982807278633,0.9985024333000183,0.44070035219192505,0.5463104248046875,-0.08424738794565201,0.9987409114837646,0.43837252259254456,0.5307974219322205,0.08406688272953033,0.9960147142410278,0.42666298151016235,0.7027896046638489,0.0802123174071312,0.8832389712333679,0.4341493546962738,0.6770742535591125,0.2396763265132904,0.4738929569721222,0.45375704765319824,0.8250846266746521,0.2422126978635788,0.8358471393585205,0.4540097713470459,0.7989333868026733,0.41057974100112915,0.47972729802131653,0.4138542711734772,0.5620616674423218,-0.23350279033184052,0.8761453628540039,0.42627304792404175,0.5318998098373413,0.03828199952840805,0.12492530792951584,-171.9225057121427,0.4395364373922348,0.538553923368454,167.08974495918136,169.86893846575552,0.7567654435308695,0.05306277251461368,0.05985729340165427,0.3806683957452173,0.5613721656450129,-81.79332240587947,1.575470283973452,20,1762115091.3308458
0.346697598695755,0.22742010653018951,-0.1256120502948761,0.998958945274353,0.40047162771224976,0.28459423780441284,-0.2614142596721649,0.9999430179595947,0.4025878310203552,0.2778260409832001,0.017251301556825638,0.9984943866729736,0.4399685263633728,0.5464159846305847,-0.082771435379982,0.9987872242927551,0.43942004442214966,0.5308348536491394,0.08254508674144745,0.996040403842926,0.42810487747192383,0.7039639949798584,0.0826764777302742,0.881316065788269,0.43574637174606323,0.6784725785255432,0.23759201169013977,0.4573585093021393,0.4535329341888428,0.8250939249992371,0.24237564206123352,0.8364059925079346,0.45573121309280396,0.800699770450592,0.40718874335289,0.4673783779144287,0.41359743475914,0.5673803687095642,-0.23074010014533997,0.8848267793655396,0.4257473349571228,0.5344598293304443,0.03356700390577316,0.11773663014173508,-171.56672378076928,0.43969428539276123,0.5386254191398621,167.94716262932667,169.86954598126107,0.7465171394488885,0.002662467576860435,0.0012059397180946253,-0.8501164241113071,-0.989289233950773,-72.63716988369988,1.680706448926171,21,1762115091.3901322
0.3455292582511902,0.23683521151542664,-0.1447860598564148,0.9989757537841797,0.39922910928726196,0.2956245541572571,-0.2713514566421509,0.9999455213546753,0.40156054496765137,0.28422078490257263,0.0045160953886806965,0.9984852075576782,0.44015851616859436,0.5471519231796265,-0.08316586166620255,0.9988244771957397,0.43919286131858826,0.5307880640029907,0.0829395055770874,0.9959486722946167,0.42669764161109924,0.7038361430168152,0.08881022036075592,0.8833673000335693,0.4340924322605133,0.6772918105125427,0.2488289773464203,0.4429989755153656,0.4532547891139984,0.8234354853630066,0.2575976252555847,0.8407047390937805,0.4550103545188904,0.7954924702644348,0.42751723527908325,0.4548734724521637,0.4146861433982849,0.5769870281219482,-0.24768921732902527,0.8926530480384827,0.43203678727149963,0.545872688293457,0.02445683628320694,0.1108805239200592,-171.03689091545226,0.4396756887435913,0.5389699935913086,167.2689412236804,169.46566054198095,0.7597381529682813,-0.00023182961118013162,0.004295535199462631,-0.03608089745696975,0.03851552570599176,-78.44543201760729,1.654729822781663,22,1762115091.470349
0.34558072686195374,0.26439449191093445,-0.11519423872232437,0.9990264177322388,0.39831218123435974,0.3160933554172516,-0.254749596118927,0.9999475479125977,0.4054163992404938,0.2967543303966522,0.007286601699888706,0.9985355734825134,0.44247931241989136,0.5569739937782288,-0.08170031011104584,0.9988531470298767,0.4508902430534363,0.53341144323349,0.08149053156375885,0.9958338737487793,0.42249375581741333,0.7094423770904541,0.08397115767002106,0.8824852705001831,0.437467485666275,0.676997184753418,0.23912012577056885,0.4229987859725952,0.4503805637359619,0.8232858180999756,0.2431725710630417,0.8377676010131836,0.4550565779209137,0.7959495782852173,0.3906674385070801,0.4370380938053131,0.41399961709976196,0.5848221182823181,-0.2328682690858841,0.8989647030830383,0.44183164834976196,0.5537539124488831,0.0268568005412817,0.10741610080003738,-169.36844773992823,0.4466847777366638,0.5451927185058594,165.05261337750557,170.22552729110095,0.7038960020626642,0.12433809286155356,0.11038834705081248,2.209814514194321,1.8820388648159943,-69.82912113544191,1.971088697083785,23,1762115091.5267203
0.34569910168647766,0.2869371771812439,-0.10298415273427963,0.9990824460983276,0.3955233693122864,0.34301042556762695,-0.24238304793834686,0.9999499917030334,0.41281867027282715,0.3148960769176483,0.004140582866966724,0.9986198544502258,0.4478221535682678,0.5754081010818481,-0.07879027724266052,0.9989018440246582,0.45966672897338867,0.5456588864326477,0.07861798256635666,0.9958096146583557,0.4219346046447754,0.7158502340316772,0.08007297664880753,0.8732657432556152,0.44028863310813904,0.6768941283226013,0.23211698234081268,0.3944740295410156,0.4486209750175476,0.8238924741744995,0.23147587478160858,0.8230275511741638,0.4561433792114258,0.7962670922279358,0.38277676701545715,0.4079241156578064,0.41290003061294556,0.6139749884605408,-0.19639572501182556,0.9049270749092102,0.44519877433776855,0.5671627521514893,0.029776671901345253,0.1096225380897522,-167.91728770399632,0.45374444127082825,0.5605334937572479,163.74200906584034,169.5746678496534,0.6732384907293087,0.08857717424144976,0.19247978545510022,-0.44869009752631966,1.0299963458709611,-58.40112616402957,2.330502585825785,24,1762115091.606421
0.3462070822715759,0.31343671679496765,-0.06785308569669724,0.9990249872207642,0.3956588804721832,0.3581508696079254,-0.2233157902956009,0.9999504685401917,0.41535624861717224,0.330944687128067,0.0289157684892416,0.9986243844032288,0.45322737097740173,0.5865722894668579,-0.07739263772964478,0.9989617466926575,0.4659508168697357,0.5548597574234009,0.07725568115711212,0.995951771736145,0.41548022627830505,0.7165085077285767,0.056275952607393265,0.8689010143280029,0.43890005350112915,0.6777268648147583,0.2228386402130127,0.3701034188270569,0.4477100968360901,0.8248414993286133,0.21011069416999817,0.813655436038971,0.45786771178245544,0.7964171767234802,0.36998647451400757,0.38438305258750916,0.4121882915496826,0.6267843246459961,-0.1660856455564499,0.9099857807159424,0.445333331823349,0.577167809009552,0.040773939341306686,0.10575954616069794,-166.5519076778304,0.4595890939235687,0.5707160234451294,157.00207031167037,166.124141159782,0.6218149184540341,0.0801051217870377,0.13955881199636633,-0.11611550488438992,-0.7253195828519845,-54.09533443116968,2.1125791820794295,25,1762115091.6793833
0.34597358107566833,0.30890652537345886,-0.043763235211372375,0.9990085363388062,0.39499813318252563,0.3585605323314667,-0.20332877337932587,0.9999504089355469,0.415994793176651,0.3332712948322296,0.0626278966665268,0.9985879063606262,0.45471006631851196,0.5832121968269348,-0.07765009254217148,0.9990229606628418,0.4703880846500397,0.5549352169036865,0.07754774391651154,0.9961462616920471,0.4110508859157562,0.7157986164093018,0.04748300462961197,0.871768057346344,0.4434605538845062,0.6772565245628357,0.22024989128112793,0.3559906482696533,0.44777727127075195,0.8253844380378723,0.19948594272136688,0.8144979476928711,0.4675832688808441,0.7963594794273376,0.3554070293903351,0.3784654140472412,0.41200536489486694,0.6215487718582153,-0.1453484147787094,0.9157029986381531,0.4502534866333008,0.5801267623901367,0.044067561626434326,0.10272853821516037,-165.65892545735088,0.4625490754842758,0.5690737068653107,153.17825569417275,164.19477646851556,0.606319524418746,0.04280480383672541,-0.023749823299625224,-0.5394063308047078,-2.361634339714723,-50.29848380470085,1.8751546636062475,26,1762115091.748534
0.346446692943573,0.32138514518737793,-0.0456964448094368,0.999031662940979,0.39539676904678345,0.3730757534503937,-0.1958400160074234,0.9999485611915588,0.4158394932746887,0.34433552622795105,0.0637398287653923,0.9986496567726135,0.4556524157524109,0.5886269211769104,-0.07441256940364838,0.9990816116333008,0.47936373949050903,0.5620092153549194,0.07432670891284943,0.9964256286621094,0.407585084438324,0.7153234481811523,0.05202369764447212,0.8767603635787964,0.45387521386146545,0.6886710524559021,0.22201187908649445,0.35208866000175476,0.4453658163547516,0.8258695602416992,0.21075651049613953,0.8168815970420837,0.48495572805404663,0.8126392960548401,0.3595128059387207,0.3843180239200592,0.41173338890075684,0.6316345930099487,-0.12581375241279602,0.9194519519805908,0.45434460043907166,0.5840359330177307,0.04514262452721596,0.09771522879600525,-164.05443751589195,0.46750807762145996,0.5753180682659149,152.02307440782252,162.94267542984974,0.6094391472991472,0.08303185416425483,0.1045534748364278,0.6735481219514413,2.148267019234413,-54.57602151438319,1.797473977998471,27,1762115091.808258
0.34827831387519836,0.3390081524848938,-0.06165263056755066,0.9990262389183044,0.396416574716568,0.39233261346817017,-0.20274433493614197,0.999939501285553,0.41533201932907104,0.36131396889686584,0.053904980421066284,0.9986934661865234,0.4607512056827545,0.5974107384681702,-0.07424281537532806,0.9991406202316284,0.4783182740211487,0.5698973536491394,0.07416389882564545,0.9967021346092224,0.40652918815612793,0.7162373661994934,0.0372958667576313,0.8832985162734985,0.4505073130130768,0.6869772672653198,0.22061660885810852,0.3486315608024597,0.4446181654930115,0.8286654949188232,0.18984511494636536,0.8225237131118774,0.4848189949989319,0.8110314011573792,0.33225080370903015,0.39335548877716064,0.4103441834449768,0.645090639591217,-0.11060164123773575,0.9193077087402344,0.45171576738357544,0.5974999070167542,0.03990825265645981,0.09276679158210754,-162.89215669915015,0.4695347398519516,0.5836540460586548,148.50410475348755,157.8790481600302,0.5906787588689251,0.0297446899713066,0.1223445482539016,-0.7820791025374049,0.2611140401679756,-58.62479075287606,1.7585111769268673,28,1762115091.8763933
0.3512607514858246,0.3551348149776459,-0.05646366626024246,0.9990466833114624,0.40017780661582947,0.40056049823760986,-0.1981969177722931,0.9999352097511292,0.416607141494751,0.37099239230155945,0.05201780050992966,0.9987522959709167,0.4636422097682953,0.6026984453201294,-0.07375997304916382,0.9991978406906128,0.4801316261291504,0.5766817331314087,0.07366333156824112,0.9969823956489563,0.40096181631088257,0.715700626373291,0.032950107008218765,0.8909507393836975,0.46057915687561035,0.6960646510124207,0.21635504066944122,0.36031705141067505,0.4420044422149658,0.8274971842765808,0.18591660261154175,0.8267917037010193,0.5031439065933228,0.8178237676620483,0.3008246421813965,0.4129592180252075,0.4063205122947693,0.6521914601325989,-0.1343231499195099,0.9232075214385986,0.4578441083431244,0.5942988991737366,0.05053310841321945,0.08841583877801895,-162.7045038626454,0.47188691794872284,0.589690089225769,144.29893002099226,153.2488613450939,0.5685048732597919,0.03339126579322343,0.08568701579576185,0.05176639586598832,-0.5203863650093766,-60.94153226828511,1.5188354995173676,29,1762115091.9490788
0.35389405488967896,0.36809828877449036,-0.03408645838499069,0.9990800619125366,0.4046544134616852,0.410246878862381,-0.1806974858045578,0.9999287724494934,0.41972774267196655,0.3838690519332886,0.06602175533771515,0.9987912774085999,0.46846848726272583,0.6133289337158203,-0.07392270863056183,0.999260663986206,0.48127350211143494,0.5897988677024841,0.07381602376699448,0.9972513914108276,0.3965965211391449,0.716620147228241,-0.007414712570607662,0.89841228723526,0.4535485804080963,0.693662703037262,0.20846855640411377,0.3753034174442291,0.4394741654396057,0.8263214230537415,0.0822565034031868,0.8346652388572693,0.4953388273715973,0.816083550453186,0.22029145061969757,0.4411192536354065,0.4040229320526123,0.6610106229782104,-0.12731090188026428,0.9273717999458313,0.4640810489654541,0.5983843207359314,0.07662385702133179,0.08702907711267471,-162.9599930491755,0.4748709946870804,0.6015639007091522,132.41974616616412,125.97617716197792,0.5025405253463939,0.04223098932763781,0.1680395143957108,0.1251007607956473,1.1654618142940156,-60.25465162314617,1.4805715629147875,30,1762115092.017497
0.3545171022415161,0.37228646874427795,-0.03822973370552063,0.9990728497505188,0.406486451625824,0.4142780601978302,-0.17576028406620026,0.9999250769615173,0.4199771285057068,0.3884764015674591,0.06878741085529327,0.9987605214118958,0.4726639688014984,0.6117886304855347,-0.07444059103727341,0.9993159770965576,0.47855544090270996,0.5898675918579102,0.07433604449033737,0.9974791407585144,0.3959336578845978,0.7166084051132202,-0.04431974142789841,0.9051778316497803,0.4175167679786682,0.6893724203109741,0.15500615537166595,0.3908627927303314,0.4399377703666687,0.8261993527412415,0.06040016934275627,0.8451791405677795,0.4647323191165924,0.8058512210845947,0.20871567726135254,0.46665313839912415,0.40351223945617676,0.6597815155982971,-0.12655189633369446,0.9315035343170166,0.45878416299819946,0.6037819981575012,0.07592475414276123,0.08561120182275772,-162.6330177885919,0.4756097048521042,0.6008281111717224,122.35722016032145,132.2507466588478,0.48613584833750384,0.012158882208897121,-0.012110809813832292,-0.4949751953370269,-2.965204319190435,-62.396693997346446,1.3676118656679712,31,1762115092.0782518
0.3567451536655426,0.38307633996009827,-0.026865538209676743,0.9990874528884888,0.4124068319797516,0.42004361748695374,-0.16725769639015198,0.9999252557754517,0.42141884565353394,0.39867690205574036,0.08500976860523224,0.9987838268280029,0.47525978088378906,0.6218456625938416,-0.07474630326032639,0.9993711113929749,0.47880810499191284,0.6009665131568909,0.07462538778781891,0.9977055191993713,0.3943904638290405,0.7208495140075684,-0.03273556008934975,0.9120174050331116,0.4229552149772644,0.7047105431556702,0.15837466716766357,0.4174076020717621,0.4400213658809662,0.8253278136253357,0.09687073528766632,0.8532004356384277,0.4770814776420593,0.8165341019630432,0.21491821110248566,0.49446696043014526,0.40181678533554077,0.6661241054534912,-0.12954844534397125,0.9369257092475891,0.45633530616760254,0.6083678007125854,0.0800384134054184,0.0833100974559784,-163.42900965402765,0.47703394293785095,0.6114060878753662,121.38969013621066,132.43079391959017,0.48526529275328556,0.01942940615893006,0.1443043882701915,0.09918423346989148,2.133810662288631,-67.13104574038753,1.2053249301340896,32,1762115092.151555
0.3606632351875305,0.3877357542514801,-0.030245358124375343,0.9991147518157959,0.41723307967185974,0.4292798638343811,-0.16032449901103973,0.9999229907989502,0.4238743185997009,0.4086747169494629,0.0784241184592247,0.9988089799880981,0.47906598448753357,0.6307091116905212,-0.07185710221529007,0.9994195103645325,0.48066219687461853,0.6101421117782593,0.07180579751729965,0.9979052543640137,0.3958352506160736,0.7235773801803589,-0.021237436681985855,0.9191399216651917,0.42356258630752563,0.7127023339271545,0.15435947477817535,0.4449536204338074,0.4403870701789856,0.8252360820770264,0.11392375081777573,0.8644732236862183,0.4764328896999359,0.825742781162262,0.23844055831432343,0.5277912020683289,0.4004611372947693,0.6698910593986511,-0.11752842366695404,0.9414265155792236,0.4501457214355469,0.6164413690567017,0.08969800174236298,0.08093790709972382,-163.59452276568925,0.47986409068107605,0.6204256117343903,122.28860670986465,135.92917966813675,0.49375603910687027,0.05342355397936956,0.17025790293254603,0.6416937756749027,0.48991399648225975,-72.13536483560242,1.2175709618139414,33,1762115092.2045307
0.3642280399799347,0.3898819088935852,-0.0361933633685112,0.9990847110748291,0.42143934965133667,0.4345625042915344,-0.16602887213230133,0.9999216794967651,0.4261576235294342,0.41633307933807373,0.07765080034732819,0.998774528503418,0.4806789755821228,0.6362772583961487,-0.07150710374116898,0.9994565844535828,0.48251771926879883,0.6172716021537781,0.07148166000843048,0.9980566501617432,0.39424967765808105,0.7239105105400085,-0.007761879824101925,0.9248471260070801,0.42532452940940857,0.7242258787155151,0.17234763503074646,0.4634717106819153,0.44030362367630005,0.8252369165420532,0.15660911798477173,0.8735852241516113,0.48067474365234375,0.8235055804252625,0.28844138979911804,0.5514954924583435,0.4005420207977295,0.6705513596534729,-0.12389997392892838,0.9458775520324707,0.43770527839660645,0.6298808455467224,0.07955478876829147,0.07882009446620941,-163.9814949440673,0.4815983474254608,0.6267744302749634,123.97475177439296,138.38628321016893,0.5147645256988927,0.020692931574500528,0.07575329781151055,-0.3905376363723129,-1.1276169653522252,-75.48873497072881,1.1399674474651589,34,1762115092.2883399
0.36813265085220337,0.38935038447380066,-0.0377461239695549,0.9990676045417786,0.4262969493865967,0.4396529793739319,-0.1676974892616272,0.9999210238456726,0.4316309988498688,0.4190881550312042,0.07825272530317307,0.9987322092056274,0.481116384267807,0.6431881189346313,-0.07095735520124435,0.9994957447052002,0.4867505133152008,0.6209864616394043,0.07093755900859833,0.998201310634613,0.39291518926620483,0.7265238165855408,-0.0003099119639955461,0.929558277130127,0.4358617663383484,0.7330067753791809,0.17537668347358704,0.4786316454410553,0.4402371346950531,0.825526773929596,0.15871751308441162,0.8820470571517944,0.49551182985305786,0.8226695656776428,0.29275351762771606,0.5731884837150574,0.40079742670059204,0.6717203855514526,-0.12791761755943298,0.950291097164154,0.4320417046546936,0.6350439190864563,0.07921344041824341,0.0766187310218811,-164.828283081593,0.4839334487915039,0.6320872902870178,124.35881678918757,138.54131691231018,0.5180508122243249,0.03180168844873772,0.07235571069080282,0.15128988844107658,-0.04627165598094946,-75.45920560748863,1.0277164559154643,35,1762115092.3617668
0.3679047226905823,0.38933271169662476,-0.039488278329372406,0.999073326587677,0.4268382489681244,0.44057273864746094,-0.171131893992424,0.9999193549156189,0.43255120515823364,0.42191407084465027,0.07516317814588547,0.998711347579956,0.4850287437438965,0.6474856734275818,-0.07080589234828949,0.9995324611663818,0.4855891764163971,0.6223774552345276,0.07079620659351349,0.9983407258987427,0.3935461640357971,0.7274017333984375,-0.009212490171194077,0.9336578845977783,0.42755183577537537,0.7238068580627441,0.17356747388839722,0.4928137958049774,0.44024658203125,0.8255283832550049,0.14861489832401276,0.8876742720603943,0.49052858352661133,0.8076760768890381,0.2820979356765747,0.5836864113807678,0.400240033864975,0.6762450933456421,-0.11619093269109726,0.9537891745567322,0.4341392517089844,0.6384376287460327,0.0701250433921814,0.07371050864458084,-164.7284098710202,0.4853089600801468,0.6349315643310547,120.61310491289257,132.95483461578462,0.5069595329820895,0.0192431648605288,0.03979090160134218,-0.17569157142372704,-0.45557604298428384,-72.9763324042684,1.0141257482831783,36,1762115092.4332473
0.37185972929000854,0.3901675045490265,-0.03814065828919411,0.9991117715835571,0.4309990406036377,0.4435790479183197,-0.16985981166362762,0.9999181628227234,0.4351101815700531,0.4253119230270386,0.08038115501403809,0.9987477660179138,0.48694315552711487,0.6543993949890137,-0.07110098749399185,0.9995697140693665,0.4873431324958801,0.6279743909835815,0.07108119875192642,0.9984824061393738,0.39303213357925415,0.7267064452171326,-0.024500690400600433,0.9373438954353333,0.4275669455528259,0.7250292301177979,0.17223793268203735,0.5084373950958252,0.4399247169494629,0.8254669308662415,0.10437697172164917,0.8942450284957886,0.49224671721458435,0.8090872764587402,0.24568891525268555,0.6005724668502808,0.4004611372947693,0.6765252947807312,-0.12223467975854874,0.9571532011032104,0.42745304107666016,0.6381749510765076,0.09437033534049988,0.07490845769643784,-165.33865685501524,0.4871431440114975,0.6411868929862976,113.96610994053844,126.5955001965403,0.4865635939161005,0.02495774478825354,0.08511627077074804,0.07775830164600864,0.6167423979831553,-77.31651808557577,0.9695513437501869,37,1762115092.506739
0.3773217797279358,0.3893481492996216,-0.058787666261196136,0.9991723299026489,0.4376492500305176,0.44685807824134827,-0.17160029709339142,0.9999096989631653,0.4362412095069885,0.4290284514427185,0.077430859208107,0.9988288283348083,0.49030184745788574,0.6589323878288269,-0.0711049810051918,0.9995940923690796,0.4861043393611908,0.631649374961853,0.07108354568481445,0.9986034035682678,0.3931116461753845,0.7262842059135437,-0.03631935268640518,0.9408999681472778,0.4284757673740387,0.7290374040603638,0.15823960304260254,0.5314476490020752,0.4401325285434723,0.8254547715187073,0.09414368122816086,0.900793194770813,0.4963196814060211,0.8093089461326599,0.2353382557630539,0.6200545430183411,0.4009305536746979,0.6759822368621826,-0.12386377900838852,0.9592739939689636,0.41925835609436035,0.6327758431434631,0.10424524545669556,0.08519726246595383,-166.11444778557453,0.48820309340953827,0.64529088139534,108.4409777003638,124.80436085430438,0.4913669742620679,0.015077647808937892,0.05837872256721054,-0.1405431455950903,-0.3803382839148813,-94.51538855924136,0.8924748534338666,38,1762115092.5770383
0.3835671544075012,0.38964515924453735,-0.068535715341568,0.9992309808731079,0.44430479407310486,0.4494359791278839,-0.18242737650871277,0.9998869895935059,0.4390467703342438,0.43351122736930847,0.07786905020475388,0.9989169239997864,0.4957234263420105,0.6651908755302429,-0.07424603402614594,0.9996110200881958,0.48563632369041443,0.6381263136863708,0.07418917119503021,0.9987223148345947,0.39324477314949036,0.7260541915893555,-0.046766333281993866,0.9442673325538635,0.4282381534576416,0.7276862263679504,0.15354439616203308,0.5590220093727112,0.44069474935531616,0.8239278793334961,0.09173981845378876,0.9065467715263367,0.49773138761520386,0.8146286010742188,0.21253979206085205,0.643320620059967,0.40102872252464294,0.6807273626327515,-0.13320614397525787,0.9606050848960876,0.4152383804321289,0.6321278214454651,0.11101869493722916,0.10311652719974518,-166.876079032254,0.49067987501621246,0.6516585946083069,103.14876006985048,120.4753779730759,0.49052776908591317,0.044832165961064575,0.11526182800571387,0.5385858374807958,1.029639761748755,-108.27215484085822,0.8380692575654183,39,1762115092.632284
0.3855575919151306,0.3914538025856018,-0.06533901393413544,0.9992868900299072,0.44519248604774475,0.4489801526069641,-0.1824270784854889,0.9998781681060791,0.44052615761756897,0.4335728585720062,0.08060433715581894,0.9990010857582092,0.4949670732021332,0.665386974811554,-0.0762123316526413,0.9996209740638733,0.48601239919662476,0.6381823420524597,0.0761309415102005,0.9988207221031189,0.39308589696884155,0.7222404479980469,-0.04626646637916565,0.9471663236618042,0.42839860916137695,0.7320372462272644,0.15828962624073029,0.5804944634437561,0.440920889377594,0.8234947323799133,0.06831477582454681,0.9127121567726135,0.500750720500946,0.8225419521331787,0.20795492827892303,0.6658453941345215,0.4013153612613678,0.6780937910079956,-0.12840960919857025,0.9624010324478149,0.4169192314147949,0.6297138333320618,0.11644557863473892,0.12026780098676682,-167.25070362481256,0.49048973619937897,0.6517846584320068,102.91759634103461,119.03147832661362,0.4846874659584467,-0.0024256341626619623,0.0016082182614514265,-0.6028760267964801,-1.4498989900991512,-106.84971805469807,0.7925912230190381,40,1762115092.7106712
0.39113372564315796,0.3912668824195862,-0.06805537641048431,0.9993391633033752,0.4502175748348236,0.4509512186050415,-0.1823514699935913,0.9998698234558105,0.44677773118019104,0.4353128969669342,0.07638516277074814,0.9990856647491455,0.49457716941833496,0.6718811392784119,-0.07558474689722061,0.9996370077133179,0.4894871115684509,0.643454909324646,0.07548265159130096,0.9989164471626282,0.3930814862251282,0.7218671441078186,-0.03449877351522446,0.9500817656517029,0.43192940950393677,0.7378488183021545,0.15971480309963226,0.5984218120574951,0.4411810338497162,0.8226000666618347,0.08290564268827438,0.9182428121566772,0.49968260526657104,0.8287732601165771,0.21577870845794678,0.6851162314414978,0.40362539887428284,0.6761073470115662,-0.12882642447948456,0.9641886949539185,0.4193233549594879,0.6290504932403564,0.11757093667984009,0.14214521646499634,-168.52907149704762,0.49203214049339294,0.6576680243015289,104.78690784441763,122.33911856979459,0.4922097412736791,0.02433554457978167,0.09282579992326154,0.42222902310484695,1.4392008201779158,-102.4053667736558,0.7515356939746513,41,1762115092.774052
0.39761170744895935,0.39015090465545654,-0.07369910180568695,0.9993960857391357,0.4569694399833679,0.45439761877059937,-0.18138282001018524,0.9998621940612793,0.4529496133327484,0.4396187961101532,0.06547712534666061,0.9991617202758789,0.49587100744247437,0.6821571588516235,-0.07095687836408615,0.9996423721313477,0.4901771545410156,0.6516546607017517,0.0708993524312973,0.9989926218986511,0.3930542469024658,0.7224186658859253,-0.04281563684344292,0.9530467391014099,0.4151753783226013,0.7085216641426086,0.14263257384300232,0.6190770864486694,0.44059276580810547,0.8217054605484009,0.0865829735994339,0.9225125312805176,0.4908154606819153,0.8273255825042725,0.20783528685569763,0.6963997483253479,0.4055832028388977,0.6778333187103271,-0.12887802720069885,0.9663242101669312,0.4168361723423004,0.6278255581855774,0.11029864847660065,0.17186632752418518,-170.17934931678593,0.493024080991745,0.6669059097766876,98.16982430144715,108.27622581796865,0.4920463830743378,0.015454305698461812,0.1439250704832233,-0.13836856230893535,0.7961200792930873,-105.21627937642522,0.6180283899055242,42,1762115092.8382373
0.4036472737789154,0.38871341943740845,-0.07452689111232758,0.9994471073150635,0.4620226323604584,0.4547618329524994,-0.1813701093196869,0.9998606443405151,0.4567665159702301,0.4420372545719147,0.06588869541883469,0.9992350339889526,0.4955359399318695,0.6863347291946411,-0.07022026181221008,0.999656617641449,0.4909374713897705,0.6563100218772888,0.07015814632177353,0.9990737438201904,0.39167845249176025,0.7246621251106262,-0.03629869222640991,0.955560564994812,0.42773693799972534,0.7408277988433838,0.1515076458454132,0.6417977213859558,0.43952399492263794,0.818864107131958,0.0921906903386116,0.9264397621154785,0.49657875299453735,0.8362236022949219,0.21163102984428406,0.7135869860649109,0.40983542799949646,0.6776610016822815,-0.1420268714427948,0.9685919880867004,0.41683053970336914,0.6272966861724854,0.12491188943386078,0.20366285741329193,-171.36778371608543,0.49323670566082,0.671322375535965,98.96006033681118,119.25199927594875,0.4979900543331437,0.003148744121343935,0.0654031381078142,-0.18223221625387256,-1.1628259036885757,-112.44395453519844,0.5800380127558277,43,1762115092.905764
0.4086616039276123,0.3878077566623688,-0.0709860622882843,0.9994909763336182,0.46536484360694885,0.4536587595939636,-0.17951254546642303,0.9998667240142822,0.4612328112125397,0.4408921003341675,0.06772220879793167,0.9993017315864563,0.49571362137794495,0.6889253258705139,-0.06987456977367401,0.9996760487556458,0.4912680685520172,0.6588742136955261,0.06982356309890747,0.9991462826728821,0.3910239338874817,0.724723219871521,-0.04932940751314163,0.9574297666549683,0.41822487115859985,0.7281694412231445,0.14726711809635162,0.6475189328193665,0.4396078586578369,0.8189964294433594,0.08439964056015015,0.9279391765594482,0.4623057246208191,0.8190949559211731,0.21356432139873505,0.7120649814605713,0.4126039445400238,0.6768572926521301,-0.14860239624977112,0.9708677530288696,0.4181765019893646,0.6256806254386902,0.12356781959533691,0.2326921820640564,-172.41145785399505,0.4934908449649811,0.67389976978302,93.09190824982983,122.35158245285696,0.48594339220253113,0.0047591594635139475,0.048265774011501235,0.030157568272158854,-0.32092418285272467,-107.93459300152165,0.6516254936469484,44,1762115092.9591641
0.40924468636512756,0.3871748149394989,-0.06944674998521805,0.9995236992835999,0.46691590547561646,0.4518844187259674,-0.1784774661064148,0.9998676776885986,0.46225208044052124,0.4394510090351105,0.06951478868722916,0.999356746673584,0.4953729510307312,0.6877928972244263,-0.07007338106632233,0.9996848702430725,0.4925369620323181,0.6615384817123413,0.07002128660678864,0.9992059469223022,0.39100030064582825,0.7244800925254822,-0.04555106163024902,0.9595712423324585,0.4287245273590088,0.74439936876297,0.1492418795824051,0.6648144721984863,0.4392777979373932,0.8175802230834961,0.08571746945381165,0.9307944178581238,0.4870981276035309,0.8338770270347595,0.21883408725261688,0.7264173626899719,0.41298454999923706,0.6763318777084351,-0.1460070013999939,0.9728337526321411,0.41885703802108765,0.6247270107269287,0.12528149783611298,0.25635984539985657,-172.69122538062283,0.49395495653152466,0.6746656894683838,94.80750530186974,123.37174822098214,0.49436848707474546,0.005551127549390884,0.009160982342473879,0.009472541036826371,-0.4677230691830774,-110.56128259829909,0.5507756315003955,45,1762115093.0427709
0.4137195944786072,0.3847537040710449,-0.07622408866882324,0.9995589256286621,0.47077107429504395,0.45077183842658997,-0.17862847447395325,0.9998677968978882,0.4624888300895691,0.43888065218925476,0.06730616092681885,0.9994090795516968,0.4969378113746643,0.6900227069854736,-0.06901983916759491,0.9996938705444336,0.4918666481971741,0.6630843877792358,0.06898166984319687,0.9992613196372986,0.3910802900791168,0.724432647228241,-0.052385710179805756,0.9613592624664307,0.4202982783317566,0.7399564981460571,0.14097805321216583,0.6765806674957275,0.43935197591781616,0.817112386226654,0.0825258418917656,0.9320181012153625,0.4800778329372406,0.8334575891494751,0.20726852118968964,0.7284517884254456,0.4145871698856354,0.6756508350372314,-0.14570918679237366,0.9742657542228699,0.4193045198917389,0.6228085160255432,0.12025140225887299,0.2827618718147278,-173.16575749621612,0.4944022297859192,0.6765535473823547,90.96454243238497,117.8173796770637,0.495053528945751,0.006839401661726694,0.028867852989321638,0.01969942092020772,0.30134420631060993,-124.85731841721336,0.5140480281655022,46,1762115093.1081674
0.41927823424339294,0.38116759061813354,-0.07725078612565994,0.9995902180671692,0.4750157296657562,0.45145946741104126,-0.18173600733280182,0.999867856502533,0.4668630063533783,0.43799030780792236,0.06360867619514465,0.9994574785232544,0.49863895773887634,0.6904902458190918,-0.0687611848115921,0.9997020959854126,0.4918271601200104,0.6618541479110718,0.0687263235449791,0.9993119239807129,0.39173614978790283,0.7236260175704956,-0.058507997542619705,0.9633176922798157,0.4173847734928131,0.7240227460861206,0.13766463100910187,0.686480700969696,0.4407597482204437,0.8171384930610657,0.07932455837726593,0.9336408972740173,0.47120410203933716,0.831572949886322,0.20704302191734314,0.7292687892913818,0.4174647927284241,0.6719520092010498,-0.15371295809745789,0.9757392406463623,0.4200912415981293,0.6197491884231567,0.12164709717035294,0.30765098333358765,-174.0079336117965,0.49523305892944336,0.6761721968650818,87.85932996269997,116.85141636573911,0.496340893613027,0.011894968596395413,-0.005459789732386674,0.07238047725405772,-0.4914683546498909,-121.18602456951083,0.4724334322260019,47,1762115093.1780145
0.42451757192611694,0.3801979422569275,-0.07890691608190536,0.9996142387390137,0.47923240065574646,0.45305952429771423,-0.18302913010120392,0.9998680353164673,0.4711496829986572,0.43871256709098816,0.05947587639093399,0.9994949102401733,0.498711496591568,0.6921982169151306,-0.06816624104976654,0.9997125267982483,0.4915221631526947,0.6625430583953857,0.06813842803239822,0.9993544220924377,0.3918110728263855,0.7247434854507446,-0.05638713389635086,0.9647578597068787,0.41702574491500854,0.7178888320922852,0.13766133785247803,0.6901395320892334,0.4423387050628662,0.8195745944976807,0.0744808241724968,0.934624433517456,0.4724833071231842,0.8304415345191956,0.20771154761314392,0.7220559120178223,0.41808515787124634,0.6712519526481628,-0.1600029021501541,0.9773128032684326,0.42030349373817444,0.6186968684196472,0.12871676683425903,0.32868680357933044,-175.08020679453833,0.49511682987213135,0.6773706376552582,87.66984460538785,114.71678619446817,0.49733227096901533,-0.001740580336262269,0.017947168477465286,-0.20419823489244765,0.3505293093999012,-119.3958250874144,0.37600368892365027,48,1762115093.2447906
0.42945247888565063,0.37916627526283264,-0.08105769008398056,0.9996423721313477,0.48309236764907837,0.45474374294281006,-0.18355180323123932,0.9998685121536255,0.4735209345817566,0.4411187469959259,0.056922733783721924,0.9995257258415222,0.499713271856308,0.6938583254814148,-0.06741056591272354,0.9997197985649109,0.49136775732040405,0.6641393899917603,0.067397341132164,0.999390184879303,0.391853392124176,0.7306727170944214,-0.061544984579086304,0.966386079788208,0.4143597185611725,0.7162964940071106,0.12999001145362854,0.6974849104881287,0.4424203038215637,0.8205499649047852,0.07123837620019913,0.9355443716049194,0.470755398273468,0.8301180601119995,0.19645781815052032,0.718903660774231,0.41957926750183105,0.6711694002151489,-0.1609795242547989,0.978816568851471,0.4212453365325928,0.6187058091163635,0.12546098232269287,0.345761775970459,-175.73456968242175,0.495540514588356,0.6789988577365875,85.91602007840964,110.9763643678059,0.4959702365855662,0.005372599496922277,0.020646896276499255,0.09019977575263716,0.034234315422474564,-125.08768476838952,0.322234923647423,49,1762115093.3236508
0.42958778142929077,0.3789699673652649,-0.08270027488470078,0.9996663928031921,0.48545560240745544,0.45509326457977295,-0.18413332104682922,0.9998700618743896,0.4738987982273102,0.44166386127471924,0.048679668456315994,0.9995507001876831,0.4997439384460449,0.6941353678703308,-0.06573014706373215,0.9997246861457825,0.4910973012447357,0.6644470691680908,0.06574375182390213,0.9994169473648071,0.39191552996635437,0.730443000793457,-0.057365916669368744,0.9676450490951538,0.4153573513031006,0.7168101668357849,0.127767413854599,0.7048262357711792,0.44258347153663635,0.8230538964271545,0.07658512890338898,0.9355158805847168,0.4728337824344635,0.8298827409744263,0.20276232063770294,0.7157976627349854,0.4203096926212311,0.6714290380477905,-0.1595730185508728,0.9803506731987,0.42139220237731934,0.6190717220306396,0.12394609302282333,0.3622857928276062,-176.09966066208372,0.4954206198453903,0.6792912185192108,87.11140630480661,112.34184605322446,0.5004955065986947,-0.0018852628027292494,0.0045971732773487295,-0.11412491892808575,-0.252370913152242,-130.71396252768176,0.2911502093822524,50,1762115093.3872466
0.4322674870491028,0.37898123264312744,-0.08134500682353973,0.9996914863586426,0.48841938376426697,0.45699313282966614,-0.18353179097175598,0.9998723864555359,0.4756027162075043,0.4435495138168335,0.04794672131538391,0.9995740652084351,0.5003515481948853,0.6976034641265869,-0.06389676034450531,0.9997299313545227,0.4902493953704834,0.6652603149414062,0.06392376124858856,0.9994429349899292,0.3919667899608612,0.7303101420402527,-0.05923806503415108,0.9688210487365723,0.41143226623535156,0.708199143409729,0.1179138645529747,0.7106852531433105,0.4425748884677887,0.8249348998069763,0.0737774595618248,0.9348657131195068,0.4697350859642029,0.8226452469825745,0.1909380853176117,0.7077666521072388,0.4219251275062561,0.6714280247688293,-0.1572583168745041,0.9817790389060974,0.42210516333580017,0.6193906664848328,0.11607567965984344,0.38007286190986633,-176.7096871751183,0.4953004717826843,0.6814318895339966,84.75413889056594,105.98313676608188,0.49405910105966977,-0.0017347305842705138,0.030907593485691862,0.002173425333685653,0.379877041647422,-133.63235118908202,0.24403756711447694,51,1762115093.456507
0.4346412122249603,0.37899401783943176,-0.08021745085716248,0.9997154474258423,0.4901118874549866,0.4593217968940735,-0.1813928484916687,0.9998763203620911,0.4797438979148865,0.44527745246887207,0.04872439056634903,0.9995952844619751,0.5005121231079102,0.69955974817276,-0.06208097189664841,0.9997357130050659,0.49002259969711304,0.6671944856643677,0.06213220953941345,0.9994677305221558,0.3919515013694763,0.7317184209823608,-0.07022212445735931,0.9696778655052185,0.40640607476234436,0.7054764032363892,0.10529769957065582,0.7122848629951477,0.444003164768219,0.8272411823272705,0.06540592014789581,0.9309345483779907,0.45895981788635254,0.8178011775016785,0.17221231758594513,0.6920948624610901,0.4223925471305847,0.6714364290237427,-0.1567171961069107,0.9831584095954895,0.42287492752075195,0.6201562285423279,0.09563489258289337,0.39649441838264465,-177.43803241360771,0.4952673614025116,0.6833771169185638,79.24544412497625,101.25442106609196,0.4864272956513858,-0.0005786000274978231,0.033992621417471114,0.02020324648796105,0.05391050289507682,-126.43594364105033,0.19768138913426483,52,1762115093.513732
0.43662476539611816,0.3790051341056824,-0.0795142725110054,0.9997371435165405,0.49224773049354553,0.46123817563056946,-0.18034367263317108,0.9998818635940552,0.4810875356197357,0.4463958740234375,0.047422003000974655,0.9996163249015808,0.5006643533706665,0.69913649559021,-0.06131040304899216,0.9997450113296509,0.4899114966392517,0.6671125888824463,0.06135764718055725,0.9994955658912659,0.3919261395931244,0.7313936948776245,-0.06695311516523361,0.9703936576843262,0.40481847524642944,0.7036713361740112,0.1056218296289444,0.7132424116134644,0.44438236951828003,0.8272804021835327,0.06620810925960541,0.9274568557739258,0.4556604027748108,0.8167809247970581,0.17206624150276184,0.6777245998382568,0.42376333475112915,0.6710309982299805,-0.15624508261680603,0.9844703674316406,0.42469921708106995,0.6202893853187561,0.09947605431079865,0.40836307406425476,-177.84710992185077,0.4952879250049591,0.6831245422363281,80.10410532779328,100.97652666901678,0.48570926168203804,0.0002404308520869398,-0.0029531180745461082,0.009576157327819143,-0.4319717641751781,-126.94016743169462,0.1668979440267702,53,1762115093.59926
0.4374972879886627,0.37836596369743347,-0.08427383005619049,0.9997580051422119,0.49403446912765503,0.4610064625740051,-0.1838195025920868,0.999886691570282,0.48127561807632446,0.44708913564682007,0.04475589096546173,0.9996329545974731,0.5008540749549866,0.6977149248123169,-0.061840422451496124,0.9997541904449463,0.4889898896217346,0.6665352582931519,0.06187708303332329,0.9995233416557312,0.392147958278656,0.7312427163124084,-0.0694231241941452,0.9712434411048889,0.4044177532196045,0.6983073353767395,0.10732179880142212,0.7174299359321594,0.4443170130252838,0.8272058367729187,0.06886281818151474,0.9244540929794312,0.4540751576423645,0.816402792930603,0.17615604400634766,0.6693786382675171,0.42289867997169495,0.6710060834884644,-0.15775394439697266,0.9856342077255249,0.4254903793334961,0.6210553646087646,0.08903613686561584,0.41761720180511475,-178.17507431693002,0.4949219822883606,0.6821250915527344,79.96153286461224,100.50100379776829,0.48942185303240304,-0.005404204003309684,-0.014759783814235164,-0.08335938085146728,-0.17435961248047027,-132.51335821968303,0.14272903166063958,54,1762115093.6669745
0.4378754496574402,0.37832871079444885,-0.08296994864940643,0.9997756481170654,0.49493271112442017,0.46043941378593445,-0.1838725507259369,0.9998921751976013,0.4814944267272949,0.4469110369682312,0.043076686561107635,0.9996525645256042,0.5007195472717285,0.6974558234214783,-0.062069039791822433,0.9997667670249939,0.48844823241233826,0.6660441756248474,0.062095869332551956,0.9995551705360413,0.39210566878318787,0.7312113642692566,-0.0674847811460495,0.9721074104309082,0.4063122272491455,0.7002546787261963,0.11276833713054657,0.7242006063461304,0.44427618384361267,0.8265752196311951,0.07825377583503723,0.9224426746368408,0.456462562084198,0.8169043064117432,0.18251104652881622,0.6678485870361328,0.4229665696620941,0.6699174642562866,-0.15864303708076477,0.9866636991500854,0.4275161623954773,0.6198737025260925,0.09488237649202347,0.4232982397079468,-178.40009648461054,0.4945838898420334,0.6817499995231628,81.00580232234533,103.2718054051639,0.492228289315293,-0.00489452893098259,-0.005430168021979539,0.00737851263465167,0.13506387056619726,-134.80858230022045,0.12451414171288465,55,1762115093.7360501
0.4388822615146637,0.377875953912735,-0.08221599459648132,0.9997918605804443,0.4962380528450012,0.46020859479904175,-0.18378500640392303,0.9998970627784729,0.4826383590698242,0.446606308221817,0.044165462255477905,0.999671995639801,0.5008397698402405,0.6966696381568909,-0.06231123208999634,0.999777615070343,0.4884285032749176,0.665709912776947,0.062333423644304276,0.99958336353302,0.391979455947876,0.7307765483856201,-0.06708633899688721,0.9727950692176819,0.4065285325050354,0.6999857425689697,0.11458750814199448,0.7276812195777893,0.4442577362060547,0.8262855410575867,0.07742951810359955,0.9197439551353455,0.4578988552093506,0.8163095116615295,0.18237733840942383,0.6636523604393005,0.4228709638118744,0.6699150800704956,-0.15378545224666595,0.987537682056427,0.42879217863082886,0.618827223777771,0.09002430737018585,0.42913806438446045,-178.69325560858616,0.49463413655757904,0.681189775466919,81.30432563944488,102.93055628429227,0.4916971463337344,0.0006278057630036968,-0.006999699129859723,0.06899861032647527,-0.019610449440132165,-134.99453875739658,0.10025856968813726,56,1762115093.8160856
0.4390161633491516,0.37833452224731445,-0.08197474479675293,0.9998078942298889,0.4964190423488617,0.46033957600593567,-0.1818964183330536,0.9999008774757385,0.48196086287498474,0.4468286335468292,0.04532996192574501,0.999688982963562,0.5007449388504028,0.6961315870285034,-0.06248150393366814,0.9997844099998474,0.4881371557712555,0.6655800342559814,0.06250099092721939,0.9996052384376526,0.3912045359611511,0.7306984066963196,-0.0742756724357605,0.9735063314437866,0.4002755582332611,0.696298360824585,0.10580150038003922,0.7296723127365112,0.44494137167930603,0.8249803185462952,0.06812761723995209,0.917151689529419,0.45549312233924866,0.8159372210502625,0.1708906590938568,0.6581724286079407,0.42319297790527344,0.6702178120613098,-0.1503024697303772,0.9882816076278687,0.4295710623264313,0.618844211101532,0.07244855165481567,0.43430837988853455,-178.67642106038733,0.49444104731082916,0.6808558106422424,77.97628693767214,96.24778881633263,0.48599904284039525,-0.0028416367547008277,-0.004914860545327593,-0.05105874895975888,0.030681946556553614,-136.93970863537194,0.09638891717019475,57,1762115093.8840356
0.43931126594543457,0.37847208976745605,-0.08173805475234985,0.9998228549957275,0.49624061584472656,0.46089205145835876,-0.18063506484031677,0.9999041557312012,0.4820024371147156,0.44718071818351746,0.04542892426252365,0.999704897403717,0.5007022619247437,0.69576096534729,-0.06246497109532356,0.9997912049293518,0.4881354868412018,0.6656930446624756,0.06248168274760246,0.9996273517608643,0.3909357786178589,0.7303390502929688,-0.07345879822969437,0.9742698073387146,0.40194401144981384,0.6976685523986816,0.10702582448720932,0.7373937368392944,0.44422587752342224,0.8246305584907532,0.06935502588748932,0.9153903722763062,0.45773378014564514,0.8173677325248718,0.17216837406158447,0.6605788469314575,0.423712819814682,0.6702359318733215,-0.14943839609622955,0.9889037013053894,0.4296227991580963,0.6197212934494019,0.061926014721393585,0.43631136417388916,-178.66134536937878,0.4944188743829727,0.6807270050048828,78.42173853753131,97.33467070191583,0.48679821393116746,-0.0003017619001265453,-0.0017529770596060872,0.03456636251027072,0.043031573223322156,-136.07989171956865,0.09712609473481217,58,1762115093.9575138
0.4390571117401123,0.38109275698661804,-0.08669413626194,0.9998348355293274,0.49523767828941345,0.4636844992637634,-0.18312451243400574,0.9999067187309265,0.482244074344635,0.4484909772872925,0.037639595568180084,0.9997166395187378,0.5003422498703003,0.6968644261360168,-0.0625523254275322,0.9997949004173279,0.4881660044193268,0.6673569083213806,0.06256763637065887,0.9996418356895447,0.3903844356536865,0.7302197217941284,-0.0748981460928917,0.974311351776123,0.4094821512699127,0.7056111097335815,0.10955603420734406,0.740675151348114,0.44308391213417053,0.8248857259750366,0.07001220434904099,0.9106294512748718,0.47501859068870544,0.8174737691879272,0.17556120455265045,0.6569691300392151,0.423598051071167,0.6735777258872986,-0.15102209150791168,0.9894086718559265,0.4300704598426819,0.6201313138008118,0.0699179545044899,0.43699708580970764,-178.6026931964114,0.49425412714481354,0.6821106672286987,77.7801499732651,98.85448151044959,0.4878099502242403,-0.0025167265800563076,0.021137225336261622,-0.033836442699446474,0.34967736901839475,-130.53728814760737,0.0932569013223453,59,1762115094.0229747
0.4389228820800781,0.38274261355400085,-0.0869237631559372,0.9998449087142944,0.49482327699661255,0.4653174579143524,-0.183796226978302,0.999908983707428,0.48248523473739624,0.44923675060272217,0.036366723477840424,0.9997250437736511,0.49957332015037537,0.6978015303611755,-0.06261812895536423,0.9997982382774353,0.4881116449832916,0.6685189604759216,0.06263243407011032,0.9996546506881714,0.390131413936615,0.7301755547523499,-0.07320885360240936,0.9743969440460205,0.41245460510253906,0.7095940113067627,0.11065919697284698,0.7454812526702881,0.4397754669189453,0.82500821352005,0.07024098932743073,0.907010555267334,0.4766612648963928,0.8195729851722717,0.1773768663406372,0.6569396257400513,0.42343467473983765,0.6752240657806396,-0.15553870797157288,0.9899080991744995,0.43023139238357544,0.6202442646026611,0.07559143006801605,0.437517911195755,-178.68422568639312,0.4938424825668335,0.6831602454185486,79.09224204480081,101.65771480356838,0.48783502801865347,-0.0049464193116804615,0.012611981561539365,-0.02919576666873545,-0.10244136009515077,-127.49749169288891,0.09113927236900031,60,1762115094.1061954
0.4385625422000885,0.38609758019447327,-0.08721206337213516,0.999855637550354,0.49447327852249146,0.46767759323120117,-0.1833454668521881,0.9999125599861145,0.48201483488082886,0.45138537883758545,0.0381459966301918,0.9997403025627136,0.4985012412071228,0.6999356746673584,-0.06268593668937683,0.9998021125793457,0.4877776503562927,0.6713091731071472,0.06270153820514679,0.9996733665466309,0.3896658420562744,0.7301620244979858,-0.07716022431850433,0.9747776389122009,0.41645631194114685,0.7232961058616638,0.10963191092014313,0.7523865103721619,0.4396851658821106,0.8289324641227722,0.07052039355039597,0.9025532007217407,0.47902965545654297,0.8384608626365662,0.16844744980335236,0.6610088348388672,0.42447012662887573,0.6751946210861206,-0.15576109290122986,0.9903237819671631,0.430330365896225,0.6205875873565674,0.0782863050699234,0.4409851133823395,-178.75960834254255,0.49313944578170776,0.6856224238872528,77.37028410897621,107.35810679673531,0.49345779562011294,-0.011675351002922055,0.04088946476508738,-0.11174755152517553,0.4696049322961264,-127.40467194342774,0.08695596684364305,61,1762115094.166411
0.43810778856277466,0.3885893225669861,-0.08909684419631958,0.9998664855957031,0.4941924512386322,0.46987926959991455,-0.1794104278087616,0.9999155402183533,0.48172011971473694,0.4531979560852051,0.035539865493774414,0.9997512698173523,0.4977615475654602,0.7020940780639648,-0.061663877218961716,0.9998037219047546,0.48719391226768494,0.6722880005836487,0.06168122962117195,0.9996830821037292,0.38857507705688477,0.7307143211364746,-0.07903449982404709,0.974686861038208,0.4113715589046478,0.7176337242126465,0.10416346788406372,0.7531489133834839,0.43941378593444824,0.8313877582550049,0.06202388554811478,0.8972703218460083,0.4737573564052582,0.8362376093864441,0.16209566593170166,0.6527666449546814,0.424572229385376,0.6752939224243164,-0.14817306399345398,0.9906664490699768,0.4302912652492523,0.6219715476036072,0.05988214164972305,0.44503989815711975,-178.85210619638534,0.49247772991657257,0.6871910393238068,75.62789541214829,102.5455168252195,0.4889061828207118,-0.00852430656867051,0.020207100319112013,0.0405921486612314,-0.2664328065739295,-126.784833716831,0.07986547645984031,62,1762115094.2440379
0.4378419518470764,0.38887134194374084,-0.08828014880418777,0.9998749494552612,0.49383243918418884,0.4703153073787689,-0.17893041670322418,0.99991774559021,0.481484591960907,0.45346319675445557,0.036250002682209015,0.9997595548629761,0.4975244402885437,0.7019981741905212,-0.061692364513874054,0.999802827835083,0.4870252013206482,0.6725355982780457,0.061714012175798416,0.9996904730796814,0.3879477381706238,0.7311997413635254,-0.07783441245555878,0.9745967388153076,0.41144561767578125,0.716964066028595,0.1062040776014328,0.7531956434249878,0.4374135434627533,0.8326154351234436,0.060912322252988815,0.8929574489593506,0.47360897064208984,0.8336923122406006,0.16401556134223938,0.6459588408470154,0.42443960905075073,0.6757171154022217,-0.1487131118774414,0.991008460521698,0.4300921559333801,0.6219921112060547,0.06598921865224838,0.4452250897884369,-178.8266012782653,0.49227482080459595,0.6872668862342834,76.74102397698627,102.45183749886559,0.48784973328450326,-0.002701271186440678,0.0010097283057195455,0.07752041070217773,-0.25556914310055256,-126.2309097951938,0.08270639316239634,63,1762115094.319154
0.43779516220092773,0.38787347078323364,-0.07857390493154526,0.9998824000358582,0.49377328157424927,0.4699740409851074,-0.17407315969467163,0.999919593334198,0.48132699728012085,0.45339033007621765,0.04464413598179817,0.9997662305831909,0.4973459839820862,0.701673150062561,-0.0617574043571949,0.9998043775558472,0.48662322759628296,0.6723363399505615,0.06177891418337822,0.9997011423110962,0.38781559467315674,0.7311306595802307,-0.07645140588283539,0.9751371145248413,0.40877729654312134,0.7131875157356262,0.10576782375574112,0.758499801158905,0.43172764778137207,0.8322579860687256,0.06233609467744827,0.8916763067245483,0.46745023131370544,0.8325982093811035,0.1617533415555954,0.6479004621505737,0.4238676428794861,0.6735820770263672,-0.14596010744571686,0.9913911819458008,0.4298952519893646,0.621434211730957,0.06883662194013596,0.444963663816452,-178.87253450362783,0.49198460578918457,0.6870047450065613,78.99473556304916,101.26996418630242,0.48384229762609593,-0.004402032402719514,-0.0039762042528569365,-0.02579744529322721,-0.07562750207640523,-126.88869037202547,0.08645280368770698,64,1762115094.3850815
0.43773317337036133,0.3869156837463379,-0.07640743255615234,0.9998894333839417,0.4937352240085602,0.46975189447402954,-0.1727709025144577,0.9999211430549622,0.4810602068901062,0.4532446265220642,0.0467497892677784,0.9997724294662476,0.4972921907901764,0.7014284729957581,-0.06180683895945549,0.9998059272766113,0.4862946569919586,0.6722736954689026,0.06182827800512314,0.999711275100708,0.3877861499786377,0.7311114072799683,-0.07566037029027939,0.9756605625152588,0.4071923792362213,0.7100493311882019,0.10578183084726334,0.7639811038970947,0.43030691146850586,0.8320143818855286,0.06346623599529266,0.8904262185096741,0.4646781384944916,0.8317404985427856,0.16119135916233063,0.6506098508834839,0.42360830307006836,0.6727103590965271,-0.14438728988170624,0.9917294979095459,0.42972883582115173,0.6211262941360474,0.06586989760398865,0.44514200091362,-178.88253626998855,0.4917934238910675,0.6868510842323303,79.78613333374945,100.026874261991,0.48343311246578335,-0.002541624801503659,-0.00204280864794277,0.024732770972180608,0.02570309359288332,-127.51866294693119,0.08790667852801205,65,1762115094.4603019
0.4376218318939209,0.3867954611778259,-0.07351333647966385,0.999894380569458,0.4928082823753357,0.469592422246933,-0.17156293988227844,0.9999229311943054,0.4808652400970459,0.45315563678741455,0.049275241792201996,0.9997738003730774,0.49704042077064514,0.7013644576072693,-0.06182194501161575,0.9998078942298889,0.48530077934265137,0.6721028685569763,0.061842359602451324,0.999718189239502,0.38762837648391724,0.7317615747451782,-0.07688399404287338,0.9761587381362915,0.4021795392036438,0.7043749690055847,0.10432350635528564,0.7644504308700562,0.4316391050815582,0.8324022889137268,0.0595012828707695,0.8896102905273438,0.4579620957374573,0.8303791284561157,0.15800851583480835,0.6476964354515076,0.42356666922569275,0.6725926399230957,-0.14459910988807678,0.9920791983604431,0.42961224913597107,0.6210328936576843,0.06817543506622314,0.4450541138648987,-178.89829395762234,0.49117060005664825,0.6867336630821228,79.05075455469834,96.72374475532514,0.480560275737363,-0.009016430928318974,-0.0016998702231058097,-0.09373379596354506,0.004964615111578313,-126.00232391205753,0.08685458064975209,66,1762115094.5293784
0.43747955560684204,0.3865475654602051,-0.07457942515611649,0.9998984336853027,0.4921976923942566,0.46922600269317627,-0.17242856323719025,0.9999229907989502,0.48025402426719666,0.4528864026069641,0.04481375962495804,0.9997764825820923,0.49696096777915955,0.701181948184967,-0.061695437878370285,0.9998099207878113,0.4848908483982086,0.6719897985458374,0.06172019988298416,0.9997224807739258,0.3876611590385437,0.7333025336265564,-0.07688198238611221,0.9764128923416138,0.40318140387535095,0.7044793367385864,0.10510846227407455,0.7637503147125244,0.4346376955509186,0.8334302306175232,0.06059322506189346,0.8869431614875793,0.4596487581729889,0.8218749165534973,0.16039851307868958,0.6414548754692078,0.42193642258644104,0.6735221147537231,-0.13914534449577332,0.9920880794525146,0.4293171465396881,0.6210037469863892,0.06389795243740082,0.444339781999588,-178.80612586986874,0.4909259080886841,0.6865858733654022,78.60643983937968,96.61715760679913,0.47845572341476267,-0.003623050908487572,-0.0021882600883246905,0.07985750633028538,-0.0072313830306701046,-126.16547925465844,0.09086972370105062,67,1762115094.596916
0.43718594312667847,0.38697510957717896,-0.07864368706941605,0.9999029636383057,0.49136263132095337,0.468975692987442,-0.17613667249679565,0.9999258518218994,0.4791795611381531,0.4527225196361542,0.043964337557554245,0.9997841119766235,0.49689680337905884,0.7011021375656128,-0.06219606474041939,0.9998113512992859,0.4849136769771576,0.6718361973762512,0.06222643330693245,0.9997283220291138,0.38766103982925415,0.7340186238288879,-0.07234658300876617,0.9764914512634277,0.40873169898986816,0.7072891592979431,0.11711807548999786,0.7625770568847656,0.4360436797142029,0.8343642950057983,0.06455594301223755,0.8840076923370361,0.46747025847435,0.8230338096618652,0.17173603177070618,0.6365612149238586,0.42208465933799744,0.6735345125198364,-0.1394588053226471,0.9923374056816101,0.4291628301143646,0.6210144758224487,0.07250826805830002,0.44505664706230164,-178.56951730383201,0.4909052401781082,0.686469167470932,80.39957097332433,100.70985055397759,0.4837959615133774,-0.0003048480287519825,-0.0017213913202491183,0.04894290611396877,0.006886231828382893,-126.85453068119318,0.105189986514962,68,1762115094.6647134
0.4346095621585846,0.38757747411727905,-0.07293876260519028,0.9999025464057922,0.4885275959968567,0.46880367398262024,-0.1745467185974121,0.9999262094497681,0.47819238901138306,0.4537363648414612,0.04816647619009018,0.9997804164886475,0.49604469537734985,0.701916515827179,-0.06259335577487946,0.9998101592063904,0.4849421977996826,0.6728545427322388,0.06262700259685516,0.9997245073318481,0.3874169886112213,0.7349955439567566,-0.07161848247051239,0.9760541915893555,0.4090195596218109,0.7072998285293579,0.12331885099411011,0.7569624781608582,0.4358147084712982,0.8355423808097839,0.06462062895298004,0.8805533647537231,0.4674437940120697,0.8222995400428772,0.17780287563800812,0.6274523735046387,0.4204903244972229,0.674353301525116,-0.13935552537441254,0.9924120306968689,0.4289328157901764,0.6206051111221313,0.08402080088853836,0.440470427274704,-178.19304169095543,0.49049344658851624,0.6873855292797089,80.93452840702888,101.31061089845406,0.482460532230476,-0.006076895877166441,0.01352288000225176,-0.08517892133190308,0.2249618544132781,-124.44762172889278,0.13355532725702196,69,1762115094.7324772
0.43392616510391235,0.3882589042186737,-0.07132351398468018,0.9999028444290161,0.4873378872871399,0.468666672706604,-0.17446565628051758,0.9999276995658875,0.4778408110141754,0.45375293493270874,0.0508224181830883,0.9997759461402893,0.49603113532066345,0.7019729614257812,-0.06288759410381317,0.9998107552528381,0.485023558139801,0.6728953719139099,0.06292594969272614,0.9997207522392273,0.3874133229255676,0.7350122928619385,-0.07010425627231598,0.9755979180335999,0.40880003571510315,0.7052810788154602,0.12646132707595825,0.7509069442749023,0.43553584814071655,0.8355162739753723,0.06766031682491302,0.8768938779830933,0.4660911560058594,0.8170979022979736,0.18333227932453156,0.6160577535629272,0.4199627935886383,0.6748577356338501,-0.13890627026557922,0.9925965666770935,0.4287848472595215,0.6198688745498657,0.08572736382484436,0.43534624576568604,-177.99037013824568,0.49052734673023224,0.6874341666698456,81.726922538259,101.48967258229567,0.4805303653286367,0.0005161857706074974,0.0007405847715441193,0.10039058124136827,-0.19463160269564864,-122.48900619592537,0.15060378450426348,70,1762115094.7981515
0.4318696856498718,0.38843104243278503,-0.05809313803911209,0.9998971223831177,0.4843534529209137,0.46725717186927795,-0.16771405935287476,0.9999281167984009,0.4770609438419342,0.45371630787849426,0.06428182125091553,0.9997643828392029,0.49601608514785767,0.7021278738975525,-0.06400851905345917,0.9998104572296143,0.48526644706726074,0.6732136607170105,0.064053975045681,0.9997155070304871,0.3875468075275421,0.7369297742843628,-0.07234689593315125,0.9753352403640747,0.40491876006126404,0.6984643936157227,0.1257445216178894,0.7442171573638916,0.4362611174583435,0.8353217840194702,0.06948495656251907,0.8723610043525696,0.4560668468475342,0.8132652044296265,0.1818079650402069,0.6075199246406555,0.4197550415992737,0.674852728843689,-0.1312427967786789,0.9925115704536438,0.42837944626808167,0.6198865175247192,0.08534730225801468,0.42342960834503174,-177.49622449399433,0.4906412661075592,0.6876707673072815,81.45997349585066,99.00041462806169,0.4732236722486561,0.001516003604301048,0.003148607616624204,0.013305264434280817,0.03204521827663258,-118.3049366772673,0.1989511387983392,71,1762115094.873296
0.42733803391456604,0.3876306712627411,-0.05619766190648079,0.9998942613601685,0.48050421476364136,0.4667108654975891,-0.1678626388311386,0.9999299645423889,0.47419047355651855,0.45367714762687683,0.06564727425575256,0.9997633099555969,0.4955952763557434,0.7025114893913269,-0.06487177312374115,0.9998148083686829,0.485335111618042,0.6738339066505432,0.06489823013544083,0.9997199177742004,0.38737285137176514,0.7373722791671753,-0.06914746761322021,0.9753590226173401,0.40153932571411133,0.6984620094299316,0.12744837999343872,0.7362571954727173,0.4367996156215668,0.836372971534729,0.07509554922580719,0.8697037696838379,0.45055508613586426,0.8143234848976135,0.18813414871692657,0.5982934236526489,0.41768893599510193,0.6752040386199951,-0.13209761679172516,0.9925445914268494,0.42590364813804626,0.6214619874954224,0.09070868790149689,0.4150722622871399,-176.70684308197897,0.4904651939868927,0.6881726980209351,83.01777530209027,99.75298487332762,0.47658910204323385,-0.003521664075688358,0.010039246168372262,-0.10075969566742465,0.13782144586199027,-115.84628928028259,0.2665023752327209,72,1762115094.9232929
0.42329996824264526,0.3878270983695984,-0.05717853456735611,0.9998917579650879,0.4771343171596527,0.4655650556087494,-0.16859926283359528,0.9999305605888367,0.47063690423965454,0.4536278247833252,0.06433726847171783,0.9997652173042297,0.49489814043045044,0.7025402188301086,-0.06609929352998734,0.9998152256011963,0.4850007891654968,0.6741586327552795,0.06612423807382584,0.9997217059135437,0.3866979479789734,0.7404947876930237,-0.07351069152355194,0.9750292897224426,0.3979570269584656,0.6968221664428711,0.12730783224105835,0.7256918549537659,0.4416130483150482,0.8349200487136841,0.06775449216365814,0.8651307225227356,0.44927677512168884,0.8140662312507629,0.18658408522605896,0.5863684415817261,0.41647329926490784,0.6747841835021973,-0.1276705265045166,0.9922195672988892,0.4249659478664398,0.6223456859588623,0.09178502857685089,0.4040645956993103,-175.9830794033926,0.48994946479797363,0.6883494257926941,80.44833415354032,96.80007358344119,0.4745015809886186,-0.006469545841994288,0.0022169550328243934,-0.036979594395011375,-0.09812644344781135,-118.55937183960813,0.30241586276773147,73,1762115095.0030093
0.41711410880088806,0.3877941966056824,-0.056048374623060226,0.9998753666877747,0.472529798746109,0.46514439582824707,-0.16913513839244843,0.9999281764030457,0.4683380722999573,0.45358505845069885,0.06279425323009491,0.9997562766075134,0.49419307708740234,0.7025984525680542,-0.06643643230199814,0.9998109936714172,0.486156702041626,0.6741799712181091,0.06645117700099945,0.999714195728302,0.3867023289203644,0.7402291893959045,-0.05810172110795975,0.9752185940742493,0.3984507918357849,0.7011755108833313,0.1379513293504715,0.7207946181297302,0.4412171244621277,0.8338795900344849,0.09614312648773193,0.8656797409057617,0.44712120294570923,0.812924861907959,0.21528692543506622,0.5835882425308228,0.4130477011203766,0.6743836998939514,-0.13019400835037231,0.9919641017913818,0.42394575476646423,0.6224060654640198,0.11439523845911026,0.39326778054237366,-175.07351981778314,0.49017488956451416,0.6883892118930817,87.20387638553055,104.75634190411712,0.48510830653641557,0.00278103776387504,0.0004908362526141167,0.11412331812787228,-0.02129491619917314,-109.9320057449851,0.3826240612970049,74,1762115095.084067
