nose_x,nose_y,nose_z,nose_visibility,left_shoulder_x,left_shoulder_y,left_shoulder_z,left_shoulder_visibility,right_shoulder_x,right_shoulder_y,right_shoulder_z,right_shoulder_visibility,left_hip_x,left_hip_y,left_hip_z,left_hip_visibility,right_hip_x,right_hip_y,right_hip_z,right_hip_visibility,left_knee_x,left_knee_y,left_knee_z,left_knee_visibility,right_knee_x,right_knee_y,right_knee_z,right_knee_visibility,left_ankle_x,left_ankle_y,left_ankle_z,left_ankle_visibility,right_ankle_x,right_ankle_y,right_ankle_z,right_ankle_visibility,left_wrist_x,left_wrist_y,left_wrist_z,left_wrist_visibility,right_wrist_x,right_wrist_y,right_wrist_z,right_wrist_visibility,trunk_lateral_inclination,center_mass_x,center_mass_y,left_knee_angle,right_knee_angle,person_height,center_mass_velocity_x,center_mass_velocity_y,center_mass_acceleration_x,center_mass_acceleration_y,body_orientation,torso_leg_ratio,frame,timestamp
0.6067659854888916,0.15008831024169922,-0.2651394307613373,0.9999984502792358,0.5687136650085449,0.24243400990962982,-0.03304734453558922,0.9996709823608398,0.5417484045028687,0.24056902527809143,-0.26299527287483215,0.999993085861206,0.5563082695007324,0.5115025639533997,0.06351245939731598,0.9997867941856384,0.5353013873100281,0.5171831250190735,-0.06350303441286087,0.999876856803894,0.5648399591445923,0.671549379825592,0.16809095442295074,0.8485103249549866,0.5439624190330505,0.6867326498031616,0.026277903467416763,0.9886401891708374,0.5448881387710571,0.7923253178596497,0.28002452850341797,0.829157829284668,0.5141522884368896,0.8290442824363708,0.14631110429763794,0.9450059533119202,0.5660743713378906,0.5344424843788147,0.021996842697262764,0.1027473732829094,0.5345566868782043,0.5702361464500427,-0.24847988784313202,0.9923807978630066,178.02131472302054,0.5458048284053802,0.5143428444862366,166.48052636680734,163.10210292165792,0.8192267417743376,0.0,0.0,0.0,0.0,-176.04358148755517,0.37883673489135394,0,1762115084.9231985
0.6055478453636169,0.1473812311887741,-0.24884608387947083,0.9999982714653015,0.5682665109634399,0.23649075627326965,-0.023555146530270576,0.9996585845947266,0.5387102961540222,0.24101924896240234,-0.23383919894695282,0.999993085861206,0.5602076649665833,0.5117878317832947,0.06109337881207466,0.9997888207435608,0.5400689840316772,0.5201094150543213,-0.061082977801561356,0.9998787641525269,0.5649021863937378,0.6709646582603455,0.1775132268667221,0.848392903804779,0.5466814637184143,0.686786949634552,0.055731166154146194,0.988784909248352,0.5474342107772827,0.7926040887832642,0.299106627702713,0.8337457776069641,0.5295689702033997,0.8146736025810242,0.19323118031024933,0.9468236565589905,0.5642201900482178,0.5246965885162354,0.03251802921295166,0.10132528096437454,0.5371989011764526,0.5674765110015869,-0.20878711342811584,0.992713987827301,179.30757408497533,0.5501383244991302,0.515948623418808,168.64840452981895,166.0349713238466,0.8247478979086822,0.06190082109858973,0.022937377184289124,0.8842079396831373,0.327643650955017,171.28909687996367,0.19374435335227633,1,1762115084.9932055
0.6045822501182556,0.14462050795555115,-0.24555011093616486,0.9999980330467224,0.5674861669540405,0.23306967318058014,-0.023160317912697792,0.9996373653411865,0.5364798307418823,0.2417861521244049,-0.23308785259723663,0.9999929666519165,0.5606571435928345,0.511788010597229,0.06021109223365784,0.999786913394928,0.5408951044082642,0.5205399394035339,-0.060200273990631104,0.9998784065246582,0.5649118423461914,0.6677609086036682,0.18206840753555298,0.8462191224098206,0.5475240349769592,0.6854680776596069,0.0622502863407135,0.9887898564338684,0.5476564168930054,0.7921212315559387,0.30722281336784363,0.8359125256538391,0.5311864614486694,0.8086212873458862,0.2014155089855194,0.9481487274169922,0.5619595646858215,0.5248779058456421,0.03213675692677498,0.09967678785324097,0.5375838279724121,0.5669311881065369,-0.20859670639038086,0.9930022358894348,179.75192157605227,0.5507761240005493,0.5161639750003815,170.09458938655698,166.26112723471118,0.8271180499618438,0.008298924137417557,0.0028021132571832753,-0.6974575481992402,-0.26199617191004626,164.29830303714863,0.07184848245285413,2,1762115085.0700588
0.6019766330718994,0.1406657099723816,-0.2493254840373993,0.9999977350234985,0.5666519403457642,0.2310529351234436,-0.024563267827033997,0.9996066093444824,0.5355448126792908,0.24249447882175446,-0.23425538837909698,0.9999926686286926,0.5613501071929932,0.5119227766990662,0.05970563739538193,0.9997769594192505,0.5421704649925232,0.5207992196083069,-0.05970187112689018,0.9998753666877747,0.5657001733779907,0.6620281338691711,0.18804341554641724,0.8427928686141968,0.5480771660804749,0.6797053217887878,0.06576291471719742,0.9887484908103943,0.5476288199424744,0.7895016074180603,0.31962117552757263,0.8382033705711365,0.5307618975639343,0.8034741878509521,0.21046502888202667,0.9493441581726074,0.5616293549537659,0.521725058555603,0.01814206689596176,0.09750737249851227,0.5429006218910217,0.5609357357025146,-0.21250803768634796,0.9930752515792847,-179.8643552274754,0.5517602860927582,0.5163609981536865,171.24961421755944,166.895730240935,0.8358344768839179,0.0153263444373487,0.0030682391992039567,0.10943793189699845,0.004144376097608572,159.8059227942308,0.037408044943227345,3,1762115085.1342726
0.5980018377304077,0.13620495796203613,-0.25865381956100464,0.9999976754188538,0.5656079053878784,0.23002934455871582,-0.025117944926023483,0.9995876550674438,0.5339654684066772,0.24299567937850952,-0.23617558181285858,0.9999925494194031,0.5613132119178772,0.51058429479599,0.060002632439136505,0.9997773170471191,0.543079137802124,0.5199828743934631,-0.06002373248338699,0.999877393245697,0.5657967925071716,0.6547102928161621,0.1971789002418518,0.8444651961326599,0.5491985082626343,0.6717015504837036,0.0694042295217514,0.9893143773078918,0.5471707582473755,0.7774278521537781,0.33129745721817017,0.8457540273666382,0.5343487858772278,0.8038584589958191,0.2122434377670288,0.9526101350784302,0.5617983937263489,0.514431357383728,0.007261955179274082,0.0981045588850975,0.5470475554466248,0.5555557012557983,-0.2157512605190277,0.9932023286819458,-179.5047906079062,0.5521961748600006,0.5152835845947266,171.82780968009138,170.87650084413943,0.8443434796668629,0.006847557801140854,-0.01692553737363901,-0.13319678307443683,-0.3140905456494423,157.71732246266478,0.14394560473442344,4,1762115085.1979287
0.59427809715271,0.13154640793800354,-0.2739903926849365,0.9999974966049194,0.5636240243911743,0.22939100861549377,-0.02632262371480465,0.9995418190956116,0.5326812863349915,0.24299797415733337,-0.24103784561157227,0.9999922513961792,0.5611807107925415,0.5100473761558533,0.06337350606918335,0.9997650384902954,0.5434292554855347,0.5199832916259766,-0.06344588100910187,0.999876081943512,0.5657145380973816,0.6475421190261841,0.20852911472320557,0.8351258039474487,0.5511735081672668,0.6690225005149841,0.07279409468173981,0.9896172881126404,0.5412823557853699,0.7676874995231628,0.35437068343162537,0.846245288848877,0.5339804887771606,0.8031840920448303,0.22248852252960205,0.9552558064460754,0.5628176927566528,0.515186607837677,-0.016214046627283096,0.0969167947769165,0.553512692451477,0.5537204146385193,-0.25695714354515076,0.9931747317314148,-179.14678806454225,0.5523049831390381,0.5150153338909149,170.46426726638242,170.90062184900236,0.8643474005491288,0.001367235480565858,-0.0033707166695626646,-0.06886324448754917,0.17032372870210438,156.26266785834738,0.1995006921516868,5,1762115085.2775114
0.5907459259033203,0.13028910756111145,-0.2814948558807373,0.9999973177909851,0.560478687286377,0.22856737673282623,-0.02657954953610897,0.9994692206382751,0.5323109030723572,0.2413284033536911,-0.24306444823741913,0.9999918937683105,0.5587908029556274,0.5093064308166504,0.06665252149105072,0.9997459650039673,0.5435439944267273,0.519972562789917,-0.06676182895898819,0.9998733997344971,0.5643144249916077,0.6466080546379089,0.2140962779521942,0.8277621865272522,0.5527072548866272,0.6681634187698364,0.07212018966674805,0.9901049137115479,0.5389896631240845,0.7661951780319214,0.3627367317676544,0.8488038182258606,0.5366247892379761,0.804919421672821,0.22063162922859192,0.9581044912338257,0.5630604028701782,0.5164024233818054,-0.026561995968222618,0.09489040821790695,0.5597572922706604,0.551746129989624,-0.2549564242362976,0.9929990172386169,-179.02241076930764,0.5511673986911774,0.5146394968032837,169.96829487827213,171.70162140136148,0.872188693747598,-0.017771344608863746,-0.005871327103360684,-0.2989829042874141,-0.039064536997771834,155.62775151188964,0.23050917865812098,6,1762115085.3415236
0.5896222591400146,0.1283963918685913,-0.2848830223083496,0.9999971389770508,0.5599616765975952,0.22822695970535278,-0.02778264880180359,0.9993922114372253,0.5320636630058289,0.23977278172969818,-0.24510009586811066,0.9999913573265076,0.5579953789710999,0.5089195966720581,0.06807377189397812,0.999731183052063,0.5436893701553345,0.519802451133728,-0.06819910556077957,0.9998711943626404,0.5637354850769043,0.6455183625221252,0.21681444346904755,0.8229817748069763,0.5546063184738159,0.6674067378044128,0.0737781971693039,0.9905789494514465,0.5394245982170105,0.7650604248046875,0.36738428473472595,0.8532732725143433,0.5409207344055176,0.8058302998542786,0.22504305839538574,0.9609524011611938,0.5634568929672241,0.5143832564353943,-0.03314981609582901,0.09301783889532089,0.5607896447181702,0.5497273802757263,-0.2543099820613861,0.9927336573600769,-179.01307892502535,0.5508423745632172,0.5143610239028931,170.24841542628084,172.21125101726028,0.8785396857542915,-0.0045464853742075125,-0.0038953199465060514,0.1849912788433954,0.027640679153114793,157.51738059393395,0.25420521634315724,7,1762115085.4130127
0.5881054401397705,0.1287962794303894,-0.28007015585899353,0.9999967217445374,0.5588615536689758,0.22748103737831116,-0.027957264333963394,0.9992979168891907,0.5312206149101257,0.23974615335464478,-0.24412408471107483,0.9999906420707703,0.5568822622299194,0.5083715319633484,0.0683734118938446,0.9997062683105469,0.5436545610427856,0.519763708114624,-0.06850211322307587,0.999865710735321,0.5637227296829224,0.6441837549209595,0.2103424370288849,0.817963719367981,0.5546478033065796,0.6655851006507874,0.0703570693731308,0.9909613728523254,0.5392373204231262,0.7645705342292786,0.353433221578598,0.8561590313911438,0.5405234694480896,0.8065598607063293,0.21484577655792236,0.9634582996368408,0.5638724565505981,0.51030033826828,-0.028525661677122116,0.09090911597013474,0.5641939043998718,0.5467308759689331,-0.24440133571624756,0.9924613833427429,-178.9321988884074,0.5502684116363525,0.5140676200389862,169.85837181926104,172.55764129528384,0.8671814120460092,-0.00745312722521842,-0.003809960929034495,-0.037743851562103185,0.0011084193547316087,156.07169878511007,0.27076360322754495,8,1762115085.4900224
0.5855293273925781,0.12925666570663452,-0.28323495388031006,0.9999964833259583,0.5572531223297119,0.22739431262016296,-0.027289604768157005,0.9992149472236633,0.5305808186531067,0.23976154625415802,-0.24449293315410614,0.9999901056289673,0.5534309148788452,0.5084401369094849,0.06923471391201019,0.9996933937072754,0.5435236692428589,0.5199723839759827,-0.06938370317220688,0.9998628497123718,0.5625678896903992,0.6448640823364258,0.21438822150230408,0.8147491216659546,0.5577504634857178,0.6661949753761292,0.07287975400686264,0.9914011359214783,0.5367388129234314,0.765948474407196,0.3645722270011902,0.8604090213775635,0.5422278046607971,0.8066384196281433,0.22433757781982422,0.9658976793289185,0.5642419457435608,0.5092881321907043,-0.030527809634804726,0.08788202702999115,0.5690658092498779,0.543467104434967,-0.24428746104240417,0.9922032356262207,-179.06900282654257,0.548477292060852,0.5142062604427338,168.86077832873914,171.19676235862283,0.8760953931426785,-0.0233620882674893,0.001808326699174047,-0.207505158894669,0.07328094297985371,155.12410677121233,0.22055185603775346,9,1762115085.5666902
0.5832294821739197,0.12981431186199188,-0.2815152704715729,0.9999963045120239,0.5560100674629211,0.22719678282737732,-0.022654850035905838,0.9991731643676758,0.529931902885437,0.2398475855588913,-0.24291622638702393,0.9999897480010986,0.5515957474708557,0.5092250108718872,0.06922490149736404,0.9996892809867859,0.5423721075057983,0.5202338099479675,-0.06937554478645325,0.9998613595962524,0.5619468092918396,0.6452349424362183,0.21413317322731018,0.8086613416671753,0.5594785213470459,0.6663373112678528,0.07490165531635284,0.9916632771492004,0.5365978479385376,0.7670683264732361,0.36339491605758667,0.8624858260154724,0.5440163016319275,0.807202935218811,0.23004133999347687,0.9675777554512024,0.5649866461753845,0.5059730410575867,-0.026739250868558884,0.08521540462970734,0.5735465288162231,0.5380327701568604,-0.2355918437242508,0.9919350147247314,-179.1824212507186,0.546983927488327,0.5147294104099274,168.79448298157936,170.48396797602197,0.8765087065080751,-0.020282446085098115,0.007105271679295383,0.04182681019419753,0.07194157605693556,154.12146941380112,0.19664932794238876,10,1762115085.6403186
0.582014799118042,0.13021953403949738,-0.27884894609451294,0.9999961256980896,0.5547383427619934,0.2272001951932907,-0.018800660967826843,0.9991587996482849,0.5295423865318298,0.24021300673484802,-0.2425421178340912,0.99998939037323,0.5497626066207886,0.5089436173439026,0.069731704890728,0.9996843338012695,0.5409532785415649,0.520052969455719,-0.06987421214580536,0.9998593926429749,0.56270432472229,0.6439916491508484,0.2151734083890915,0.8088194131851196,0.5601922273635864,0.6662499308586121,0.0728476494550705,0.9919430017471313,0.5373051762580872,0.766730010509491,0.36156854033470154,0.865577757358551,0.5449276566505432,0.8078155517578125,0.22344739735126495,0.9692461490631104,0.566094160079956,0.5040048360824585,-0.03263603150844574,0.08489660918712616,0.5755350589752197,0.5274049043655396,-0.2183552235364914,0.9911860227584839,-179.34347926778983,0.5453579425811768,0.5144982933998108,168.3240086654181,170.07976967377346,0.871688230658401,-0.01742279669114078,-0.0024764711292325145,0.030641791187461548,-0.10267054519735076,152.6852618401188,0.1582452246936031,11,1762115085.7336438
0.5816155076026917,0.13044805824756622,-0.2718053162097931,0.9999959468841553,0.5540174841880798,0.22729769349098206,-0.017065230756998062,0.9991421103477478,0.5292550921440125,0.24054677784442902,-0.24062514305114746,0.9999889135360718,0.5490668416023254,0.5089511275291443,0.06975503265857697,0.999678909778595,0.540137529373169,0.5200442671775818,-0.06988837569952011,0.9998566508293152,0.5634862184524536,0.6441543102264404,0.212927907705307,0.8098256587982178,0.5602601766586304,0.666589617729187,0.07163219153881073,0.9921973943710327,0.5378147959709167,0.7671940326690674,0.3567003607749939,0.8682998418807983,0.5449249744415283,0.8094659447669983,0.22166287899017334,0.9706935882568359,0.5668381452560425,0.5043519139289856,-0.03549168258905411,0.08500668406486511,0.576151430606842,0.5258473753929138,-0.21157953143119812,0.9906119108200073,-179.3943623262975,0.5446021854877472,0.514497697353363,167.75555205066266,169.8317945595843,0.8655256709237106,-0.01002211591966815,-7.90418858761635e-06,0.09814063436649743,0.032735735131951445,151.85105182674775,0.1446474903021797,12,1762115085.8090527
0.5812641978263855,0.1307048499584198,-0.26945534348487854,0.9999955892562866,0.5531710386276245,0.22735032439231873,-0.015221983194351196,0.9990627765655518,0.5292009115219116,0.24080488085746765,-0.2390989363193512,0.9999880790710449,0.5480751991271973,0.508091926574707,0.07028786838054657,0.9996477961540222,0.5397540926933289,0.5195562839508057,-0.07042521983385086,0.9998476505279541,0.562482476234436,0.6424620747566223,0.21490803360939026,0.8099762797355652,0.5603026747703552,0.6668282747268677,0.07116268575191498,0.9924615621566772,0.5365699529647827,0.7590745091438293,0.359458327293396,0.8713564872741699,0.5451920032501221,0.8096097111701965,0.22006025910377502,0.9722994565963745,0.5666300654411316,0.5012264251708984,-0.037161894142627716,0.08240265399217606,0.5770455598831177,0.5223416686058044,-0.20759835839271545,0.9896262884140015,-179.4411498869635,0.5439146459102631,0.5138241052627563,167.23554705695992,169.79091855660442,0.861158221371549,-0.008091398075741378,-0.007927255279926599,0.022721901631196216,-0.09319990336564972,150.6942768998915,0.13302415013359872,13,1762115085.8940244
0.5815942883491516,0.13411670923233032,-0.2622537612915039,0.9999949932098389,0.551508903503418,0.22790461778640747,-0.011355986818671227,0.998979926109314,0.5293163061141968,0.24193428456783295,-0.23763985931873322,0.9999868869781494,0.5463660359382629,0.5072657465934753,0.07061389088630676,0.9996200203895569,0.5394015908241272,0.5184045433998108,-0.07074986398220062,0.9998378753662109,0.5598464608192444,0.6429410576820374,0.20919957756996155,0.805873692035675,0.5604545474052429,0.6669767498970032,0.06336860358715057,0.9925865530967712,0.5367885231971741,0.7603398561477661,0.3413977324962616,0.8721947073936462,0.5457369089126587,0.8103463053703308,0.19690416753292084,0.9736887812614441,0.5632133483886719,0.5019182562828064,-0.033660344779491425,0.07863356918096542,0.576309084892273,0.5214263200759888,-0.19646130502223969,0.9882299900054932,-179.49054302024578,0.5428838133811951,0.5128351449966431,168.25182422630294,169.65309669813047,0.8414947355116932,-0.006942336995878232,-0.006660340306780284,0.007738569573924983,0.008532278949964722,147.69983565639419,0.13082938751218995,14,1762115086.0425093
0.5822488069534302,0.1387448012828827,-0.22756843268871307,0.9999932646751404,0.5473397374153137,0.23140226304531097,0.0077782487496733665,0.9988776445388794,0.5313782095909119,0.2431883066892624,-0.21872198581695557,0.9999842047691345,0.541567325592041,0.5078912377357483,0.07058362662792206,0.999595582485199,0.5389442443847656,0.5184133052825928,-0.07073089480400085,0.9998233318328857,0.5573081374168396,0.6509536504745483,0.18385018408298492,0.7983367443084717,0.5608122944831848,0.6695661544799805,0.046419136226177216,0.9923087358474731,0.5350337028503418,0.7840787172317505,0.29445746541023254,0.8712024092674255,0.5453870892524719,0.814631998538971,0.1626463532447815,0.9745460152626038,0.5562034249305725,0.505183219909668,0.00666862353682518,0.07473022490739822,0.5746684670448303,0.5240663886070251,-0.154354065656662,0.9863139390945435,-179.8137319894328,0.5402557849884033,0.5131522715091705,167.65407663019735,168.68708372654362,0.8038776659957638,-0.041019157344765224,0.004949818027552638,-0.5318825548210347,0.1812152839824276,143.55772033013272,0.04757413683406294,15,1762115086.1065776
0.5823438763618469,0.1464768350124359,-0.21094293892383575,0.99998939037323,0.5431367754936218,0.23899337649345398,0.01832622103393078,0.9987156391143799,0.5349956154823303,0.24989053606987,-0.20325617492198944,0.999980092048645,0.537305474281311,0.5089126825332642,0.07017761468887329,0.9995434880256653,0.5375963449478149,0.5192867517471313,-0.07031548768281937,0.9997900128364563,0.5549579858779907,0.654265820980072,0.1720568835735321,0.7914683222770691,0.5595525503158569,0.6725932955741882,0.03697577491402626,0.9919258952140808,0.5340801477432251,0.7869132161140442,0.2725101709365845,0.8672567009925842,0.5451550483703613,0.8178267478942871,0.13872389495372772,0.9744412899017334,0.5533643960952759,0.50649094581604,0.019795449450612068,0.07078839838504791,0.5737876892089844,0.5244202017784119,-0.14051571488380432,0.9841649532318115,179.6567947607227,0.537450909614563,0.5140997171401978,166.9890638722844,168.6574092963074,0.7781667978602087,-0.036399386150009594,0.012295177069732616,0.05995162466429558,0.09532208192933192,126.7630444404291,0.09157639831903815,16,1762115086.183636
0.5828051567077637,0.14876556396484375,-0.22460582852363586,0.9999862909317017,0.5440552830696106,0.24066469073295593,0.0098926592618227,0.9985978603363037,0.5355347990989685,0.2519890367984772,-0.21477825939655304,0.9999773502349854,0.5378106832504272,0.5089498162269592,0.07013843208551407,0.9995014071464539,0.5344510078430176,0.5192978978157043,-0.07026933133602142,0.9997652173042297,0.5552809238433838,0.65416419506073,0.17759956419467926,0.7854360342025757,0.5589193105697632,0.6727302670478821,0.03764144331216812,0.9914111495018005,0.5349228978157043,0.7854744791984558,0.2869485020637512,0.8618383407592773,0.544512927532196,0.8177486062049866,0.148098424077034,0.9739698171615601,0.5532963871955872,0.5066153407096863,0.007612766232341528,0.06845451146364212,0.5734129548072815,0.5258660316467285,-0.1559656262397766,0.9816408753395081,179.21608589818277,0.5361308455467224,0.5141238570213318,167.24562105937585,167.84614622098553,0.7896471952946951,-0.018226183422213445,0.0003333004147738495,0.2509182200737583,-0.16515816413654677,126.95795120742622,0.21078941634095683,17,1762115086.2560627
0.5861366391181946,0.1565987467765808,-0.21223099529743195,0.9999802708625793,0.5440812706947327,0.24467667937278748,0.010344075970351696,0.9985024929046631,0.5373631715774536,0.25339221954345703,-0.21774432063102722,0.9999744892120361,0.5371781587600708,0.5112192630767822,0.06986072659492493,0.9994850158691406,0.5334439277648926,0.5205985307693481,-0.06997425854206085,0.9997460842132568,0.5558822751045227,0.6599871516227722,0.16429105401039124,0.7772712707519531,0.555478572845459,0.6762123703956604,0.03714602813124657,0.9904140830039978,0.5395928621292114,0.7976839542388916,0.2683103382587433,0.8561362028121948,0.5385120511054993,0.8177168965339661,0.1542990803718567,0.9733420014381409,0.5524484515190125,0.5088183283805847,0.02092796191573143,0.06703389436006546,0.5702303051948547,0.5294874310493469,-0.1687803417444229,0.979471743106842,178.83842316072668,0.5353110432624817,0.5159088969230652,167.6299891599291,167.03103145039296,0.7781598866634912,-0.011192450914014895,0.02437047549606791,0.09602889300709341,0.32817047156454093,127.62569852240243,0.3254067289468102,18,1762115086.3293087
0.5908767580986023,0.16928400099277496,-0.11975711584091187,0.9998876452445984,0.5432003736495972,0.24939487874507904,0.03456144034862518,0.998344361782074,0.5410272479057312,0.25789543986320496,-0.19876381754875183,0.9999651312828064,0.5317420363426208,0.5163555145263672,0.06981268525123596,0.9993559122085571,0.5304293036460876,0.5245252251625061,-0.06992305815219879,0.9996676445007324,0.5517339110374451,0.6670060157775879,0.14713047444820404,0.7386011481285095,0.5555089712142944,0.6804137825965881,0.01590985246002674,0.9859675765037537,0.5390619039535522,0.801285982131958,0.2364884614944458,0.8271338939666748,0.5385900735855103,0.8176460862159729,0.11382879316806793,0.9686512351036072,0.5465080142021179,0.5150477290153503,0.060096222907304764,0.06355482339859009,0.5663248300552368,0.5366025567054749,-0.13456031680107117,0.9727175831794739,177.63299193222022,0.5310856699943542,0.5204403698444366,167.03815630265532,164.7150741513775,0.7067656002993805,-0.0627258537759389,0.06726991671946174,-0.7650156536173033,0.6368441097372244,104.34024464530754,0.7453233057304919,19,1762115086.3966713
0.5939832925796509,0.18300861120224,-0.1417599469423294,0.9998599886894226,0.5426839590072632,0.25857603549957275,0.03326643630862236,0.998203456401825,0.5435677766799927,0.26688870787620544,-0.2066340148448944,0.9999593496322632,0.5278654098510742,0.5191384553909302,0.06995898485183716,0.9992859959602356,0.5251680016517639,0.5261832475662231,-0.0700615644454956,0.9996146559715271,0.550247848033905,0.6749709844589233,0.13149690628051758,0.7183855772018433,0.5538108944892883,0.6836366057395935,0.0006248734425753355,0.9825580716133118,0.5382894277572632,0.8055493831634521,0.20649488270282745,0.8080346584320068,0.5338770747184753,0.8170583248138428,0.0978437140583992,0.9643364548683167,0.5416710376739502,0.5223775506019592,0.05642720311880112,0.06154608353972435,0.5632327795028687,0.5499668717384338,-0.15593090653419495,0.9658685922622681,176.34382944963332,0.5265167057514191,0.5226608514785767,165.27537544707013,159.83080686097986,0.696061583591226,-0.06955312585064877,0.03380228654387079,-0.10393123880607537,-0.5094761459613532,83.93101387751894,1.0415148357506814,20,1762115086.4623616
0.5969245433807373,0.1972566545009613,-0.1370842009782791,0.9998480677604675,0.5431493520736694,0.27258363366127014,0.03164311870932579,0.9981744885444641,0.5437396764755249,0.2808440625667572,-0.20754656195640564,0.9999538064002991,0.5214949250221252,0.5254450440406799,0.07077282667160034,0.9992461800575256,0.519922137260437,0.5346089005470276,-0.07085555046796799,0.9995807409286499,0.5470557808876038,0.6771738529205322,0.13541702926158905,0.6962839961051941,0.553936243057251,0.691550612449646,-0.0008247257210314274,0.9793510437011719,0.5282105803489685,0.8039842247962952,0.2074587047100067,0.7914406657218933,0.5366538166999817,0.8176895380020142,0.09268371760845184,0.9615013599395752,0.5395500063896179,0.530097246170044,0.05417909473180771,0.059232957661151886,0.5603286027908325,0.5644879937171936,-0.1380539834499359,0.9556862711906433,174.87119101140752,0.5207085311412811,0.5300269722938538,162.56187370982215,158.54178346078035,0.6805131799644735,-0.08796040540589334,0.11155432070682453,-0.2787643073389751,1.1774956686338078,85.91235595773858,1.2585783517124152,21,1762115086.5283933
0.5982654094696045,0.20219217240810394,-0.0945662260055542,0.9998084306716919,0.542350172996521,0.2747492790222168,0.04607313126325607,0.9982008934020996,0.5445359945297241,0.28230682015419006,-0.1970791071653366,0.9999509453773499,0.5183660984039307,0.5266476273536682,0.07149921357631683,0.9991905689239502,0.5180414319038391,0.5363840460777283,-0.07157643139362335,0.9995384812355042,0.5445271134376526,0.6744465827941895,0.1355484127998352,0.6695790886878967,0.5544479489326477,0.689478874206543,-0.006453933659940958,0.9750904440879822,0.5239590406417847,0.8017536401748657,0.20837798714637756,0.7665873765945435,0.538659930229187,0.8171997666358948,0.09241177886724472,0.9560902714729309,0.5365168452262878,0.5324904918670654,0.07241403311491013,0.05654894933104515,0.557519257068634,0.5640684962272644,-0.12945230305194855,0.9476019144058228,174.30274015669377,0.5182037651538849,0.5315158367156982,161.66156379589737,156.86773752196504,0.6582427684983804,-0.03640006375186665,0.021636655937412298,0.749291443878784,-1.3067123821127675,73.86886707499507,1.3883742280424007,22,1762115086.5972054
0.5990839600563049,0.21536727249622345,-0.12235859781503677,0.9998008012771606,0.5425319075584412,0.28583016991615295,0.038373805582523346,0.9982643723487854,0.5446988344192505,0.29432213306427,-0.2146933376789093,0.9999493360519409,0.5143724083900452,0.5320664048194885,0.07405482232570648,0.9991512298583984,0.5127214193344116,0.543324887752533,-0.07413206994533539,0.9995039105415344,0.5439664125442505,0.6777675151824951,0.13974863290786743,0.6577190160751343,0.5548670887947083,0.6885043978691101,-0.016727717593312263,0.9723030924797058,0.5102401971817017,0.812049925327301,0.2168043851852417,0.7522281408309937,0.5298143625259399,0.8171469569206238,0.08778240531682968,0.952639639377594,0.5352597832679749,0.5416857600212097,0.06542904675006866,0.05627923086285591,0.5549100637435913,0.5753450989723206,-0.14430370926856995,0.9412054419517517,173.0764654357393,0.5135469138622284,0.5376956462860107,156.55094417232579,150.61527512351626,0.6638988397600718,-0.06840963298414467,0.09078204953085434,-0.4702239229936383,1.0157530704805926,75.685096273393,1.0230682357969456,23,1762115086.6652784
0.5989290475845337,0.23422400653362274,-0.14347413182258606,0.9998102784156799,0.5419151782989502,0.2974661588668823,0.0409015528857708,0.9983507394790649,0.5446473360061646,0.3057571053504944,-0.2209935188293457,0.9999487400054932,0.5081042647361755,0.5372980237007141,0.07733963429927826,0.9991597533226013,0.5059334635734558,0.5493818521499634,-0.0774073451757431,0.9994881749153137,0.5444546937942505,0.6776444315910339,0.1398676484823227,0.6557486653327942,0.5582848787307739,0.6878844499588013,-0.016083188354969025,0.9716557860374451,0.5054247379302979,0.8124662041664124,0.2139340192079544,0.7411518692970276,0.5312371253967285,0.8150357007980347,0.09756149351596832,0.9512922167778015,0.5347467064857483,0.5463855862617493,0.060853153467178345,0.05749586224555969,0.5540305376052856,0.5824844837188721,-0.15095412731170654,0.9355422258377075,171.46850485694628,0.5070188641548157,0.5433399379253387,152.04620960984246,146.83004677716107,0.6571767461948547,-0.10304586151223312,0.08909565960265399,-0.5467360342184068,-0.02661981920873433,71.76113537711383,1.0975348843950514,24,1762115086.7286294
0.5988633036613464,0.25223881006240845,-0.14621751010417938,0.9998173117637634,0.5418078899383545,0.3140504062175751,0.056067872792482376,0.9983965158462524,0.5444344282150269,0.32157012820243835,-0.22804395854473114,0.9999464750289917,0.5068293809890747,0.5450799465179443,0.083054319024086,0.9991503357887268,0.5009273886680603,0.5582215189933777,-0.08310665190219879,0.9994512796401978,0.5445719957351685,0.6774917840957642,0.1361861526966095,0.6554575562477112,0.5607274770736694,0.683085560798645,-0.04229529947042465,0.9712816476821899,0.4987516403198242,0.814084529876709,0.21240869164466858,0.7305751442909241,0.5321680307388306,0.8137331604957581,0.07402373105287552,0.950598418712616,0.5360236167907715,0.5536734461784363,0.06630522757768631,0.05891850218176842,0.554245114326477,0.588893711566925,-0.19070568680763245,0.931066632270813,170.47347396646362,0.5038783848285675,0.551650732755661,148.0287316652039,139.15245251203584,0.6373391922411114,-0.04035392062252041,0.10679043548856516,0.8055667124411733,0.22737089066795577,70.74637493179344,1.0551713812989632,25,1762115086.8064528
0.5984365344047546,0.2730427086353302,-0.11805371940135956,0.9998128414154053,0.5399072170257568,0.3322669565677643,0.06616780906915665,0.9984531998634338,0.5430901050567627,0.3388744294643402,-0.21326713263988495,0.9999420046806335,0.5020859837532043,0.5559111833572388,0.0815984383225441,0.999117910861969,0.49795064330101013,0.5697028636932373,-0.08164992928504944,0.999361515045166,0.5484569668769836,0.676902711391449,0.12770377099514008,0.6456629633903503,0.5676936507225037,0.6713261604309082,-0.04908430203795433,0.9690638184547424,0.5053063631057739,0.812548041343689,0.20598623156547546,0.7048452496528625,0.5350023508071899,0.8119205236434937,0.07100626826286316,0.9416925311088562,0.5349270105361938,0.5707307457923889,0.07136446237564087,0.05952342972159386,0.5550276041030884,0.6043522357940674,-0.15396669507026672,0.9277926087379456,169.6549717397032,0.5000183135271072,0.562807023525238,143.7583638149488,131.68068562558915,0.6022238283077068,-0.05548713093544905,0.16036765083880256,-0.21753443305295964,0.7701531218272429,64.2794021793288,1.0938347183604447,26,1762115086.8760197
0.5983150601387024,0.2744061350822449,-0.12795786559581757,0.9998124837875366,0.5396869778633118,0.33434781432151794,0.07348064333200455,0.9985206723213196,0.5423539876937866,0.3404831290245056,-0.21095387637615204,0.999939501285553,0.5012794733047485,0.5580782294273376,0.08267347514629364,0.9991500973701477,0.49625149369239807,0.5717862248420715,-0.08272503316402435,0.9993377327919006,0.548393189907074,0.6767675876617432,0.1274174600839615,0.6482088565826416,0.569367527961731,0.6687011122703552,-0.0381307527422905,0.9675702452659607,0.505640983581543,0.8139517307281494,0.20451653003692627,0.6909992098808289,0.5393422842025757,0.8117953538894653,0.08615757524967194,0.9337820410728455,0.5360429286956787,0.5736526846885681,0.06498447805643082,0.06006179377436638,0.5552047491073608,0.604999303817749,-0.1361580193042755,0.9243988394737244,169.47875619072377,0.4987654834985733,0.5649322271347046,143.41259143676052,133.91614123211937,0.6085938324929051,-0.017049584041738588,0.028921590894342708,0.5230910588002665,-1.7888305635529964,66.505505187109,1.161179405197701,27,1762115086.9495013
0.5973942279815674,0.29391899704933167,-0.11623529344797134,0.9998247027397156,0.5368320345878601,0.34706881642341614,0.0686463862657547,0.9986425638198853,0.5405954122543335,0.35603058338165283,-0.19868974387645721,0.9999420642852783,0.4941330850124359,0.566140353679657,0.08155979216098785,0.9992222785949707,0.49519792199134827,0.5796321630477905,-0.08167017996311188,0.9993815422058105,0.5074571371078491,0.7097196578979492,0.13113994896411896,0.6662115454673767,0.5693364143371582,0.6696967482566833,-0.036384958773851395,0.9679064750671387,0.46952134370803833,0.8318653702735901,0.21041202545166016,0.704018235206604,0.5410028100013733,0.8113282322883606,0.11009432375431061,0.9322248697280884,0.5356243252754211,0.5829159021377563,0.05116388201713562,0.06160479038953781,0.5555180907249451,0.609504759311676,-0.11229493468999863,0.9220587015151978,168.74461124642986,0.4946655035018921,0.5728862583637238,156.00298652098706,132.18944746545063,0.6028084864325954,-0.0602293463109156,0.11684596067498372,-0.6343174497042505,1.2916227203483552,67.2206619761061,1.3293282298026898,28,1762115087.017574
0.5939604043960571,0.3076719045639038,-0.12415000051259995,0.9998370409011841,0.5334697961807251,0.35956379771232605,0.06505156308412552,0.9987578988075256,0.5380670428276062,0.3718792796134949,-0.19416262209415436,0.9999442100524902,0.4862443506717682,0.5752888321876526,0.08066730946302414,0.9992918968200684,0.4934205114841461,0.5894389152526855,-0.08085883408784866,0.9994254112243652,0.494661420583725,0.7173886895179749,0.1441282331943512,0.6807894706726074,0.5729002952575684,0.6702653169631958,-0.01039888896048069,0.9673033952713013,0.46006304025650024,0.833181619644165,0.21782183647155762,0.7136661410331726,0.5438957810401917,0.8113490343093872,0.14153167605400085,0.9263853430747986,0.5361343622207642,0.5955321788787842,0.03248440846800804,0.061000555753707886,0.5565692186355591,0.6197001338005066,-0.07605139911174774,0.9130760431289673,168.028536098035,0.48983243107795715,0.5823638737201691,160.83910642245607,135.12748585780008,0.6046301280403208,-0.07999437670178762,0.15686831616747562,-0.3271399945880434,0.662428182516794,69.52989794433906,1.4444167781458064,29,1762115087.0779917
0.5899335145950317,0.32120442390441895,-0.14726205170154572,0.9998485445976257,0.5326802730560303,0.3733474612236023,0.06135185435414314,0.9988537430763245,0.533514142036438,0.38321512937545776,-0.19300715625286102,0.9999452233314514,0.4841359555721283,0.5854950547218323,0.0796658843755722,0.9993427991867065,0.48976483941078186,0.5981816649436951,-0.07984835654497147,0.9994491338729858,0.5033865571022034,0.7248049974441528,0.14521333575248718,0.6887524127960205,0.5719476938247681,0.6703507900238037,-0.017322469502687454,0.9669545292854309,0.4712913930416107,0.8337587714195251,0.21786315739154816,0.713375449180603,0.5435625314712524,0.8112861514091492,0.13494428992271423,0.9192399382591248,0.5367752313613892,0.5999968647956848,0.021297508850693703,0.06041078642010689,0.5566093325614929,0.6255230903625488,-0.07869415730237961,0.9024986028671265,167.8066287917011,0.4869503974914551,0.5918383598327637,157.45707321253715,131.14355986688506,0.6024007304528535,-0.03650424438988594,0.12000517903141543,0.5508521572744659,-0.46691370055331327,85.16968652026169,1.525960153676057,30,1762115087.1569424
0.5859783291816711,0.3361974358558655,-0.1477346271276474,0.9998586177825928,0.5318264961242676,0.38784196972846985,0.05611042305827141,0.9989256858825684,0.5279675126075745,0.39661097526550293,-0.18499208986759186,0.9999424815177917,0.4853877127170563,0.597272515296936,0.07399457693099976,0.9993891716003418,0.48496055603027344,0.6102539300918579,-0.0741071030497551,0.9994667172431946,0.5125682950019836,0.7314712405204773,0.12631718814373016,0.7048448324203491,0.5712928175926208,0.6695199608802795,-0.024985240772366524,0.9667845964431763,0.47415876388549805,0.8400421738624573,0.19486823678016663,0.7231004238128662,0.5434873104095459,0.808222770690918,0.11209175735712051,0.9150364995002747,0.5369308590888977,0.6063408851623535,0.02629179321229458,0.059319786727428436,0.5578012466430664,0.6288051009178162,-0.07629335671663284,0.8969354629516602,168.06237916128842,0.48517413437366486,0.603763222694397,150.5814971837573,123.43182798077564,0.5785877536602176,-0.02787753464023918,0.18715457984561099,0.1353917657065651,1.0538752555971953,113.7528942661884,1.3507964457707546,31,1762115087.220659
0.5855428576469421,0.3384011387825012,-0.10277600586414337,0.9998388290405273,0.5323560833930969,0.3918672204017639,0.0677429810166359,0.9989635944366455,0.5270153284072876,0.39879846572875977,-0.1890689730644226,0.9999366998672485,0.48570123314857483,0.5972433686256409,0.07441272586584091,0.999420166015625,0.480598121881485,0.6124691963195801,-0.0744815245270729,0.9994734525680542,0.5197724103927612,0.7257260680198669,0.12335868924856186,0.7080336809158325,0.5712484121322632,0.6657363176345825,-0.03355036675930023,0.9632816910743713,0.47970646619796753,0.83547043800354,0.20095762610435486,0.7194656133651733,0.5432972311973572,0.8072419166564941,0.10318224132061005,0.9100673794746399,0.5399680137634277,0.6071017384529114,0.030513176694512367,0.05928461253643036,0.5595872402191162,0.6313968896865845,-0.094550721347332,0.89165860414505,167.47763836307948,0.4831496775150299,0.6048562824726105,146.32298178688583,118.2095108755364,0.5510663237609,-0.02601634143128081,0.014046936230578561,0.023918236532089753,-2.2246102906287013,127.61544691380685,1.3683218740737073,32,1762115087.2984738
0.5807247757911682,0.35170280933380127,-0.11666679382324219,0.9998471140861511,0.5314992666244507,0.39947909116744995,0.06248245760798454,0.9989913702011108,0.5214970111846924,0.40978795289993286,-0.190711110830307,0.9999358057975769,0.48723524808883667,0.6000856757164001,0.07425392419099808,0.9994259476661682,0.4770911633968353,0.6198964715003967,-0.07428192347288132,0.9994708895683289,0.5504702925682068,0.6795292496681213,0.11613892018795013,0.7066568732261658,0.5708305835723877,0.6687600612640381,-0.05535576492547989,0.9632197022438049,0.4975965917110443,0.8274952173233032,0.17358195781707764,0.7073981761932373,0.5430923104286194,0.8064596652984619,0.07811941206455231,0.9041107296943665,0.5500186085700989,0.5910838842391968,0.04946796968579292,0.06050316244363785,0.5602591037750244,0.6306095123291016,-0.09100794792175293,0.8917168974876404,167.8173108583885,0.482163205742836,0.6099910736083984,126.06110322886656,108.64919110090455,0.5281486479022145,-0.012861795681610475,0.06694832667068705,0.17151132397876645,0.6897378052699422,134.1351577460441,1.0999317106293167,33,1762115087.3751717
0.5761951208114624,0.361449658870697,-0.11335412412881851,0.9998521208763123,0.5300068259239197,0.4063047170639038,0.054201774299144745,0.9990292191505432,0.5177936553955078,0.4167107045650482,-0.182955801486969,0.9999350309371948,0.48510655760765076,0.605053186416626,0.07007504999637604,0.9994171857833862,0.47708526253700256,0.6249786615371704,-0.0700206384062767,0.9994583129882812,0.5341327786445618,0.6826176643371582,0.12223684787750244,0.7052894830703735,0.5687566995620728,0.66920006275177,-0.043731700628995895,0.9637725353240967,0.4953101575374603,0.8274379372596741,0.18956080079078674,0.7049999833106995,0.5428569316864014,0.8059229254722595,0.0814494863152504,0.9032297134399414,0.5647979974746704,0.5256767868995667,0.12325296550989151,0.06935763359069824,0.5610743761062622,0.6334387063980103,-0.09810084104537964,0.8948314785957336,168.12199226415817,0.48109591007232666,0.6150159239768982,137.7479504343906,110.7230919322303,0.521946092497851,-0.016583362043097988,0.07807481579444549,-0.0578247284658336,0.17288048898373548,139.56800733400812,1.3226646480596354,34,1762115087.439531
0.5671670436859131,0.3688722848892212,-0.1585608422756195,0.9998647570610046,0.5244534015655518,0.4138639271259308,0.04352012276649475,0.9990929365158081,0.5116897821426392,0.4260127544403076,-0.18449856340885162,0.9999371767044067,0.48248568177223206,0.612904965877533,0.07052762806415558,0.9994399547576904,0.47292017936706543,0.6326122879981995,-0.07049815356731415,0.9994727969169617,0.5401924848556519,0.6824048161506653,0.12334191799163818,0.7101973295211792,0.5678362846374512,0.671985387802124,-0.060576122254133224,0.9645094275474548,0.5022695064544678,0.8195168375968933,0.179250568151474,0.7009615898132324,0.5424555540084839,0.8034202456474304,0.07967875897884369,0.8956531882286072,0.5529221892356873,0.55488121509552,0.08348320424556732,0.07200659811496735,0.5614162683486938,0.6354473829269409,-0.07621338218450546,0.897864580154419,168.74315276732247,0.47770293056964874,0.6227586269378662,130.0557782081956,101.98783033848781,0.5299599823710619,-0.053520422937774065,0.12213240216320298,-0.582640454975079,0.69495870936219,136.41366463517022,1.2753561061995167,35,1762115087.502927
0.5578780770301819,0.37527456879615784,-0.1580885946750641,0.9998756647109985,0.5184279680252075,0.42081040143966675,0.0311568770557642,0.9991564154624939,0.5037862062454224,0.4312458336353302,-0.17949116230010986,0.9999380707740784,0.48197466135025024,0.6112993359565735,0.06790395081043243,0.9994431138038635,0.4699331820011139,0.6328569054603577,-0.06788050383329391,0.9994746446609497,0.5404309034347534,0.6690981388092041,0.12090518325567245,0.7080562114715576,0.5646764636039734,0.6766929030418396,-0.05792517215013504,0.9650269746780396,0.5021859407424927,0.8091540932655334,0.17288310825824738,0.6961001753807068,0.5407509207725525,0.8036709427833557,0.07466171681880951,0.8926974534988403,0.5421044230461121,0.5677282810211182,0.06341768056154251,0.07807795703411102,0.5611907243728638,0.6358307600021362,-0.08197595924139023,0.9005523920059204,169.83448299704287,0.47595392167568207,0.6220781207084656,124.82565965602394,103.76390513434288,0.5163828240694435,-0.023316027181306178,-0.009071824503858525,0.4026546205008336,-1.749082766716766,144.52188285001165,1.130826726815536,36,1762115087.5779402
0.557804524898529,0.37600982189178467,-0.1572696566581726,0.9998853802680969,0.5156686902046204,0.42332902550697327,0.0352330319583416,0.9992197751998901,0.502036988735199,0.43335258960723877,-0.1739872395992279,0.9999384880065918,0.4811002314090729,0.614109992980957,0.06628391146659851,0.9994709491729736,0.4695775508880615,0.6357601881027222,-0.06626541912555695,0.9994876384735107,0.5393124222755432,0.6719430088996887,0.11278567463159561,0.715888261795044,0.5637651681900024,0.6765259504318237,-0.05254106968641281,0.9656453728675842,0.49759942293167114,0.8107052445411682,0.1588318645954132,0.6989286541938782,0.5405936241149902,0.8037568926811218,0.07693001627922058,0.8900872468948364,0.5397123098373413,0.5972763895988464,0.038146764039993286,0.08294118195772171,0.5611627101898193,0.6364906430244446,-0.07694710046052933,0.9044172167778015,170.32563656545685,0.4753388911485672,0.6249350905418396,122.6556111487102,104.61430874552484,0.51298920463755,-0.011779862639620798,0.05472039308448942,0.22095559114212396,1.2218313198089292,143.67248057129038,1.033001499401453,37,1762115087.6301506
0.5463122129440308,0.3790702819824219,-0.15182985365390778,0.9998957514762878,0.5073204040527344,0.4273535907268524,0.03622926026582718,0.9992820024490356,0.4942857623100281,0.43746957182884216,-0.1607767641544342,0.9999382495880127,0.477947473526001,0.6212035417556763,0.06363929063081741,0.9994946718215942,0.46775755286216736,0.6431951522827148,-0.06363832950592041,0.9994967579841614,0.538086473941803,0.6771848797798157,0.11511105298995972,0.7174244523048401,0.5638681650161743,0.6788398623466492,-0.05372799187898636,0.9665339589118958,0.49482473731040955,0.8090998530387878,0.15983536839485168,0.6953446865081787,0.5402171015739441,0.8049898743629456,0.07372544705867767,0.8866541385650635,0.5370093584060669,0.5947709679603577,0.03978409990668297,0.09309729933738708,0.5583052635192871,0.6345391273498535,-0.07348041236400604,0.9083564281463623,172.0359355487119,0.47285251319408417,0.6321993470191956,120.06588822688992,100.78697395276018,0.5061053780563697,-0.03141019655797647,0.09176872059611944,-0.24798830192430105,0.4680283008407472,142.1855218006092,0.8354077111952564,38,1762115087.7093089
0.5363757014274597,0.37911257147789,-0.15280410647392273,0.9999058246612549,0.49628424644470215,0.433491587638855,0.03744881972670555,0.9993425011634827,0.48355966806411743,0.4424215853214264,-0.15736576914787292,0.9999404549598694,0.4724595546722412,0.633823573589325,0.06350186467170715,0.9995257258415222,0.4662197530269623,0.6513399481773376,-0.06353069841861725,0.9995173215866089,0.5204289555549622,0.7186881303787231,0.11729814857244492,0.7296386361122131,0.5639013051986694,0.6798266172409058,-0.05103543400764465,0.9682190418243408,0.4778793752193451,0.8179917335510254,0.16904166340827942,0.7080064415931702,0.5401784181594849,0.8051221966743469,0.07324258983135223,0.8898947834968567,0.5375458002090454,0.5965213775634766,0.042334623634815216,0.11714258044958115,0.5553513765335083,0.6345797181129456,-0.0836590901017189,0.9145717024803162,174.25620037719887,0.46933965384960175,0.6425817608833313,133.4309074049466,98.83831312696985,0.5126427020272465,-0.055797924714080134,0.16491327728546543,-0.38737236141808,1.161821202379575,144.93915809668533,0.6211231631152629,39,1762115087.7722657
0.5261303186416626,0.37692078948020935,-0.15072935819625854,0.9999150633811951,0.4857518672943115,0.4358189105987549,0.06142944097518921,0.9993978142738342,0.4735873341560364,0.4447479248046875,-0.1550779938697815,0.9999430775642395,0.47098368406295776,0.640872597694397,0.06615747511386871,0.9995556473731995,0.46527886390686035,0.6597647070884705,-0.06623697280883789,0.9995372295379639,0.5294041037559509,0.714866042137146,0.1101694256067276,0.7303011417388916,0.5639278888702393,0.679952085018158,-0.07616732269525528,0.9676223397254944,0.47787004709243774,0.8216310143470764,0.15473297238349915,0.7042444348335266,0.5381296277046204,0.8069143295288086,0.05382078140974045,0.8879270553588867,0.5376526117324829,0.6000325679779053,0.05949323624372482,0.15041938424110413,0.5503589510917664,0.6338507533073425,-0.0930238589644432,0.9212620258331299,176.8556057233976,0.46813127398490906,0.6503186523914337,121.32177645447192,86.07004545489848,0.5065901335159172,-0.016116434697167715,0.10318866640591959,0.529240978958652,-0.823235051753596,143.72057525812917,0.29840120309222845,40,1762115087.8472438
0.5160017013549805,0.37383753061294556,-0.1857336014509201,0.9999232888221741,0.47888046503067017,0.4371354877948761,0.04692068696022034,0.9994469285011292,0.46413859724998474,0.4524596631526947,-0.18650196492671967,0.9999452233314514,0.4719633460044861,0.6377512812614441,0.07318709045648575,0.9995726346969604,0.4621700346469879,0.662156343460083,-0.07324402034282684,0.9995417594909668,0.5449410676956177,0.6720011234283447,0.11148367077112198,0.7138311862945557,0.562811017036438,0.6829522252082825,-0.08648060262203217,0.9662510752677917,0.4944557547569275,0.8201255202293396,0.16360020637512207,0.6788814663887024,0.538174569606781,0.8080273270606995,0.05508946254849434,0.8805034160614014,0.5377463102340698,0.5998697280883789,0.04852953180670738,0.19696202874183655,0.5467208027839661,0.633387565612793,-0.13364669680595398,0.9281352162361145,178.75940283808856,0.467066690325737,0.6499538123607635,103.29218815244924,84.90737110104224,0.5299827021106425,-0.01342178867507109,-0.004599737887832825,0.03397287676839734,-1.3589473890469064,133.8904560636847,0.11828057575409688,41,1762115087.9265614
0.5140206813812256,0.3727697730064392,-0.17747171223163605,0.9999305009841919,0.478123277425766,0.4366127848625183,0.04147687181830406,0.9994907975196838,0.46222004294395447,0.45304328203201294,-0.1904057413339615,0.9999475479125977,0.4723222255706787,0.6379699110984802,0.07382570952177048,0.9995844960212708,0.46114498376846313,0.6630542874336243,-0.07385759055614471,0.9995407462120056,0.5525860786437988,0.6624324917793274,0.10916890949010849,0.6966017484664917,0.5629744529724121,0.6840012669563293,-0.08432839065790176,0.9654916524887085,0.5050564408302307,0.8171858787536621,0.15186461806297302,0.6515737175941467,0.5375407934188843,0.8102624416351318,0.05138123035430908,0.8721843361854553,0.53779536485672,0.6018561720848083,0.04991874843835831,0.23282462358474731,0.5464617609977722,0.6337715983390808,-0.12638476490974426,0.9341526031494141,179.04237731221122,0.4667336046695709,0.6505120992660522,95.57031639452867,85.99317789272628,0.5219076125318751,-0.004394314696862468,0.00736533773688763,0.11909717768875155,0.15785221216660375,134.06576668301392,0.09423810055873806,42,1762115088.0023606
0.5050162076950073,0.3704555928707123,-0.20459100604057312,0.9999372363090515,0.4717511236667633,0.43586185574531555,0.03256900608539581,0.9995300769805908,0.45525211095809937,0.4563664197921753,-0.2015640288591385,0.9999498128890991,0.47203198075294495,0.6357784867286682,0.07592297345399857,0.9995946884155273,0.4606966972351074,0.662407636642456,-0.0759722888469696,0.9995362162590027,0.5526511073112488,0.6455515623092651,0.10679324716329575,0.6703382134437561,0.5629743933677673,0.6835727095603943,-0.09922080487012863,0.9644513130187988,0.5019997358322144,0.7995478510856628,0.1571071296930313,0.6228055953979492,0.5375548005104065,0.8112627863883972,0.03981363773345947,0.8675548434257507,0.5341424942016602,0.5998371839523315,0.04888061806559563,0.265941321849823,0.5437129735946655,0.6334786415100098,-0.14385899901390076,0.9399613738059998,-179.19198016612526,0.4663643389940262,0.6490930616855621,86.01367334637189,81.16744506121304,0.5303199956340425,-0.005170239649088839,-0.01986852515163755,-0.010864042391159383,-0.3813124452912834,128.82192052115477,0.0752625247764993,43,1762115088.073782
0.4963665008544922,0.3691234886646271,-0.20214156806468964,0.999943196773529,0.4663406312465668,0.4359561502933502,0.037831638008356094,0.9995670914649963,0.44689327478408813,0.4573346972465515,-0.20693707466125488,0.9999521374702454,0.4709562361240387,0.6359778642654419,0.0822984054684639,0.9995967745780945,0.4575449824333191,0.6624400019645691,-0.08239473402500153,0.9995327591896057,0.5494248270988464,0.6515740752220154,0.08516968786716461,0.6602771878242493,0.5610899925231934,0.6828978061676025,-0.11565766483545303,0.9626732468605042,0.49084433913230896,0.806634247303009,0.1787150353193283,0.6076133847236633,0.5391272902488708,0.8124616742134094,0.027585666626691818,0.8710997700691223,0.5297025442123413,0.5995728969573975,0.05954988673329353,0.3109496235847473,0.5369806885719299,0.632142186164856,-0.1870216280221939,0.9452008605003357,-177.8418155714041,0.4642506092786789,0.6492089331150055,82.80016756941855,78.2302200457349,0.5362122250530652,-0.027875729858728906,0.0015281048669825588,-0.2994385265052436,0.2821773635274018,132.29175260790262,0.1895496488498935,44,1762115088.1496089
0.48811978101730347,0.3684167265892029,-0.2076866328716278,0.9999484419822693,0.46159347891807556,0.4357410967350006,0.041711606085300446,0.9995970726013184,0.44045257568359375,0.46081310510635376,-0.21859745681285858,0.999954104423523,0.471203088760376,0.6372276544570923,0.08687321841716766,0.9995958805084229,0.45763278007507324,0.6639373302459717,-0.08697181940078735,0.9995284676551819,0.5481790900230408,0.6820869445800781,0.0905718132853508,0.6512249112129211,0.5598942041397095,0.6766014695167542,-0.11759127676486969,0.9618659615516663,0.47916826605796814,0.8076780438423157,0.18969936668872833,0.5972432494163513,0.53913414478302,0.8140046000480652,0.024258941411972046,0.8755022883415222,0.5265987515449524,0.5987363457679749,0.060949526727199554,0.34043049812316895,0.5332051515579224,0.6320932507514954,-0.19703587889671326,0.9497007727622986,-176.21189992093886,0.4644179344177246,0.650582492351532,92.53911502711429,77.20867908117516,0.5433197961123486,0.0021291304638011797,0.017477868723151227,0.3817971557599848,0.2029529352868228,130.137834898937,0.29841766514015616,45,1762115088.2281973
0.48164719343185425,0.3677435517311096,-0.2097066193819046,0.9999531507492065,0.4580364227294922,0.4372900128364563,0.04711221903562546,0.9996204376220703,0.43506020307540894,0.46235543489456177,-0.22258107364177704,0.9999569654464722,0.47182250022888184,0.6434540748596191,0.08951321244239807,0.9996137022972107,0.45815974473953247,0.6685655117034912,-0.08964098989963531,0.9995522499084473,0.5651963949203491,0.6779066324234009,0.09166153520345688,0.6203849911689758,0.560184121131897,0.6764703392982483,-0.1412932276725769,0.9619134068489075,0.5192939043045044,0.8075284361839294,0.1878521591424942,0.5724073648452759,0.5369211435317993,0.8135526180267334,0.014551562257111073,0.8795958757400513,0.5273982882499695,0.6016782522201538,0.06788087636232376,0.35417231917381287,0.5331355333328247,0.6330901384353638,-0.20037396252155304,0.9534685015678406,-174.88866841196102,0.46499112248420715,0.6560097932815552,91.3251140017527,67.03940873323309,0.5430394154167564,0.007373915363876441,0.06982081458511614,0.06747279334028135,0.6733783818122292,132.50992882004968,0.5332798801939006,46,1762115088.3059292
0.48096075654029846,0.3673303425312042,-0.21113112568855286,0.9999566078186035,0.4579658508300781,0.43561962246894836,0.038259025663137436,0.9996322989463806,0.4347463548183441,0.4614321291446686,-0.22418364882469177,0.9999590516090393,0.47220659255981445,0.6423489451408386,0.08735383301973343,0.9996209144592285,0.4589003920555115,0.6676720380783081,-0.08747240900993347,0.9995635151863098,0.5624426603317261,0.6694374084472656,0.09549661725759506,0.5892394185066223,0.5600864887237549,0.6770105361938477,-0.130620077252388,0.9620007276535034,0.5308711528778076,0.8071398138999939,0.18670740723609924,0.5459948182106018,0.5368796586990356,0.8134796023368835,0.01869720034301281,0.8808019757270813,0.52715665102005,0.6008221507072449,0.055335283279418945,0.36197328567504883,0.5318291783332825,0.6332793235778809,-0.19430647790431976,0.9568670392036438,-174.68833789013038,0.46555349230766296,0.6550104916095734,95.86100758999714,70.46550417615666,0.5454558642998641,0.007802343928312709,-0.0138643558166536,0.005944036946903687,-1.161051774011784,131.97278737525127,0.7008861342242776,47,1762115088.3780062
0.47622308135032654,0.3655616343021393,-0.20244738459587097,0.9999592304229736,0.45457324385643005,0.434636652469635,0.03637992590665817,0.9996306300163269,0.4320829510688782,0.45950695872306824,-0.21548187732696533,0.9999589920043945,0.47215110063552856,0.6405382752418518,0.0867123007774353,0.9996142983436584,0.4589121341705322,0.6653770804405212,-0.08678557723760605,0.9995519518852234,0.5585869550704956,0.6811004877090454,0.08066725730895996,0.5674576759338379,0.5588959455490112,0.6772636771202087,-0.12043893337249756,0.9612866640090942,0.5194472670555115,0.8075107932090759,0.18039089441299438,0.5271999835968018,0.5366633534431458,0.8133781552314758,0.02606368623673916,0.8822472095489502,0.5248563289642334,0.6015397906303406,0.05513802170753479,0.3605712056159973,0.5288706421852112,0.6331492066383362,-0.18425054848194122,0.9594720602035522,-173.84479271474765,0.4655316174030304,0.6529576778411865,94.12927196470099,74.98216414881237,0.5422585435879859,-0.00027747115660865226,-0.026038815719837297,-0.10248801878017329,-0.15442634046470896,132.1231337262832,0.7235447779316101,48,1762115088.456843
0.47179365158081055,0.36275824904441833,-0.19476006925106049,0.9999622702598572,0.4522712826728821,0.43435248732566833,0.04415762424468994,0.9996441006660461,0.42917531728744507,0.45844659209251404,-0.20286576449871063,0.9999593496322632,0.47122329473495483,0.6400018334388733,0.08543172478675842,0.9996131062507629,0.45879825949668884,0.6646983623504639,-0.08550261706113815,0.9995413422584534,0.5564435720443726,0.6829749345779419,0.08202607184648514,0.547633171081543,0.5571943521499634,0.6779797077178955,-0.11776572465896606,0.9608906507492065,0.5151630640029907,0.8206672072410583,0.1718607097864151,0.5107115507125854,0.5328958034515381,0.8132769465446472,0.024188224226236343,0.8828663229942322,0.5236568450927734,0.6009553074836731,0.061352770775556564,0.37170588970184326,0.5257018804550171,0.6319662928581238,-0.17597386240959167,0.9618907570838928,-173.27424838288303,0.46501077711582184,0.6523500978946686,97.42865048118504,75.47595760025321,0.5429194811540949,-0.007368653172191171,-0.008595813362026802,-0.10032338537741409,0.24677705971111116,133.7882906826808,0.7406857511314232,49,1762115088.5275261
0.4675944745540619,0.35947397351264954,-0.20452499389648438,0.9999650120735168,0.45018452405929565,0.4330393373966217,0.025794614106416702,0.9996564984321594,0.42688998579978943,0.45799577236175537,-0.2104226052761078,0.9999606013298035,0.4711182117462158,0.6391641497612,0.0847669467329979,0.9996192455291748,0.4586707055568695,0.6638845205307007,-0.08486058562994003,0.9995462894439697,0.5522741079330444,0.6767047047615051,0.08672051131725311,0.5264205932617188,0.5576038956642151,0.67800372838974,-0.11473612487316132,0.9601927995681763,0.5225217938423157,0.8216754198074341,0.1777006834745407,0.4857251048088074,0.5331912636756897,0.8116540908813477,0.03445596992969513,0.8754367828369141,0.5228865742683411,0.6006377339363098,0.04154761880636215,0.3762616217136383,0.5267086625099182,0.631862998008728,-0.17333650588989258,0.9643883109092712,-172.70899552012207,0.46489445865154266,0.6515243351459503,101.90502789252743,76.29898564404328,0.5559940187949833,-0.0014890262996456551,-0.010570827750597441,0.07526680393846166,-0.025282730347109508,133.027355004735,0.9731840404454659,50,1762115088.6056433
0.46532678604125977,0.3584738075733185,-0.19900153577327728,0.9999672174453735,0.4492758810520172,0.43170368671417236,0.02768729254603386,0.9996699690818787,0.4252087473869324,0.4579363167285919,-0.19857531785964966,0.9999608397483826,0.4710697531700134,0.6385980248451233,0.0843106210231781,0.9995867609977722,0.4588707983493805,0.6638253331184387,-0.0843709260225296,0.999502956867218,0.5479254126548767,0.6793455481529236,0.0883595198392868,0.5027151107788086,0.5566456913948059,0.6791413426399231,-0.11556822061538696,0.9610084295272827,0.5182070136070251,0.8181627988815308,0.17509092390537262,0.46704739332199097,0.5276544690132141,0.8134685754776001,0.0035919775255024433,0.8792405128479004,0.5201972723007202,0.5994057059288025,0.04435708373785019,0.3921932578086853,0.5234744548797607,0.631501317024231,-0.16453030705451965,0.9664401412010193,-172.3483383651419,0.46497027575969696,0.651211678981781,104.89261449962879,76.22386021719002,0.5437108499576064,0.000984943985182478,-0.004061732448329157,0.032139476311898243,0.08455999474289268,132.5348347151257,0.9445476335053775,51,1762115088.6826193
0.464712530374527,0.3567529320716858,-0.19793164730072021,0.9999693036079407,0.44861355423927307,0.4307859539985657,0.031194454059004784,0.9996781945228577,0.4256790280342102,0.4574689269065857,-0.19910815358161926,0.9999613165855408,0.47113537788391113,0.6382176876068115,0.08389912545681,0.9995718598365784,0.45896705985069275,0.6634621620178223,-0.08396945893764496,0.9994856119155884,0.547989010810852,0.6762230396270752,0.08889462053775787,0.4829169511795044,0.5568207502365112,0.6812978386878967,-0.11876513063907623,0.9625452756881714,0.517961323261261,0.8222873210906982,0.17512103915214539,0.45562031865119934,0.5246813893318176,0.8147125244140625,0.001983870752155781,0.8852047920227051,0.5207207202911377,0.5990723371505737,0.042770516127347946,0.3999415934085846,0.523810863494873,0.6314151287078857,-0.16463080048561096,0.9682257771492004,-172.31189458383955,0.46505121886730194,0.6508399248123169,104.37982375824716,75.05743428956085,0.5463405379601439,0.001191537451829598,-0.005472473554536968,0.003041195972048468,-0.020767066061826038,130.67968992626837,0.8977112702981094,52,1762115088.750551
0.463439404964447,0.3561987280845642,-0.19705425202846527,0.9999710917472839,0.44913873076438904,0.4305935204029083,0.03280464559793472,0.999684751033783,0.42522159218788147,0.458298921585083,-0.19919313490390778,0.9999613761901855,0.47118282318115234,0.6382761001586914,0.08369676768779755,0.99955153465271,0.4590848982334137,0.663811206817627,-0.08378438651561737,0.9994613528251648,0.5465123057365417,0.6808644533157349,0.08340201526880264,0.46324941515922546,0.5567444562911987,0.68363356590271,-0.12205462157726288,0.9641824960708618,0.5165871381759644,0.82574862241745,0.17483997344970703,0.4466874599456787,0.5202382802963257,0.8186479210853577,-0.003775975899770856,0.8921679258346558,0.5197833776473999,0.5980007648468018,0.0422535203397274,0.40831053256988525,0.5240092277526855,0.6315168738365173,-0.1659691035747528,0.9701488018035889,-172.29438133881155,0.465133860707283,0.6510436534881592,104.9749797654095,73.92182719470324,0.547752341869382,0.0011260493008992151,0.002775936899007225,-0.0008923190310044323,0.11239000519433905,130.8029362245466,0.8415562949293808,53,1762115088.823942
0.4626924395561218,0.3559028208255768,-0.20859916508197784,0.9999733567237854,0.4495851397514343,0.4304511249065399,0.033258628100156784,0.9996963739395142,0.4248133599758148,0.4585812985897064,-0.20570436120033264,0.9999627470970154,0.4712323546409607,0.6387302875518799,0.08376455307006836,0.9995494484901428,0.45911112427711487,0.6651846766471863,-0.08383344113826752,0.9994620084762573,0.5483402609825134,0.676605224609375,0.09067793190479279,0.44884487986564636,0.5574639439582825,0.6843245625495911,-0.12345509231090546,0.9661037921905518,0.5191466212272644,0.8246397972106934,0.17698551714420319,0.4385942220687866,0.5194039344787598,0.8216476440429688,-0.006280624307692051,0.8985657691955566,0.5199095010757446,0.5976321697235107,0.03494962677359581,0.4188616871833801,0.5233744382858276,0.6336556077003479,-0.17632949352264404,0.9717050194740295,-172.3202549042578,0.4651717394590378,0.6519574820995331,105.29602134397567,73.16417277651567,0.5549083040831178,0.0005688979761376169,0.013724719624160305,-0.008367811672131681,0.16443890162582347,131.367545768608,0.8318257250857434,54,1762115088.8905246
0.46227002143859863,0.3558761477470398,-0.21913199126720428,0.9999756217002869,0.4497871398925781,0.4303429424762726,0.028231453150510788,0.9997149109840393,0.42466863989830017,0.45929962396621704,-0.21328990161418915,0.9999650716781616,0.4718441963195801,0.6386153101921082,0.08379209786653519,0.999555230140686,0.45943912863731384,0.667306661605835,-0.08385263383388519,0.9994730353355408,0.552241325378418,0.6729158163070679,0.10184799134731293,0.4359760880470276,0.5608352422714233,0.6844294667243958,-0.12112124264240265,0.9678370356559753,0.5239001512527466,0.8244422674179077,0.17911505699157715,0.4280809164047241,0.521003007888794,0.8233706951141357,-0.006216695997864008,0.9040147066116333,0.5194621086120605,0.5957151651382446,0.0273452065885067,0.4363318979740143,0.5228764414787292,0.6364104151725769,-0.18567049503326416,0.9735355973243713,-172.22643318894163,0.46564166247844696,0.6529609858989716,106.27729705028135,72.89005335448768,0.5621868600116885,0.00700528506285564,0.014959535682171177,0.09594917562036313,0.018407777719494426,130.9400337683602,0.8335490231656847,55,1762115088.9576058
0.4625365734100342,0.35588642954826355,-0.22593462467193604,0.999977707862854,0.450575590133667,0.43029895424842834,0.02490713633596897,0.9997318983078003,0.42468127608299255,0.45967429876327515,-0.21654446423053741,0.9999672174453735,0.4720057547092438,0.6388053297996521,0.08370701968669891,0.9995623826980591,0.4598076343536377,0.6678329706192017,-0.08376207202672958,0.9994853734970093,0.5545399188995361,0.6729789972305298,0.10137057304382324,0.42282626032829285,0.5627444982528687,0.6844087243080139,-0.12051250040531158,0.9693644642829895,0.5251843333244324,0.8248407244682312,0.17976167798042297,0.4174049496650696,0.5215637683868408,0.8247198462486267,-0.006834106985479593,0.9091017246246338,0.5176440477371216,0.5934523940086365,0.025270238518714905,0.4530336260795593,0.5233387351036072,0.6388403177261353,-0.19342133402824402,0.9751976132392883,-172.27013111334512,0.46590669453144073,0.6533191502094269,105.24240617688088,72.69513930395112,0.5667057555335413,0.003773580101907455,0.005099616064851433,-0.046013670415012566,-0.14038753446625096,131.39611931667008,0.8017844272652314,56,1762115089.0278394
0.4626181125640869,0.3559112548828125,-0.22576427459716797,0.999979555606842,0.45087242126464844,0.43027153611183167,0.023856740444898605,0.9997473359107971,0.4247495234012604,0.4598177969455719,-0.2167479246854782,0.9999691843986511,0.47218307852745056,0.6388425827026367,0.08358318358659744,0.9995692372322083,0.4600891172885895,0.668095052242279,-0.08363638073205948,0.99949711561203,0.5551533102989197,0.6715696454048157,0.10078427940607071,0.41142737865448,0.5634177327156067,0.6845009326934814,-0.12013334035873413,0.9707445502281189,0.5258622765541077,0.8246578574180603,0.179835706949234,0.4079715609550476,0.5218799710273743,0.825197696685791,-0.0070782736875116825,0.9137632846832275,0.5170811414718628,0.5923227071762085,0.02538522519171238,0.4680675268173218,0.5232537388801575,0.6399865746498108,-0.1921078860759735,0.9766988158226013,-172.26083854630815,0.46613609790802,0.6534688174724579,104.36814626081352,72.67999879155586,0.5667112813635566,0.0030953533709292937,0.0020194692599944026,-0.009151353520997739,-0.04156060358630416,131.4810396441917,0.7997969075990694,57,1762115089.1019516
0.4630429744720459,0.3558961749076843,-0.22798267006874084,0.9999811053276062,0.4512295722961426,0.43048015236854553,0.023796476423740387,0.9997511506080627,0.42529186606407166,0.45989447832107544,-0.2192847728729248,0.999970555305481,0.4726627767086029,0.6393640637397766,0.08368202298879623,0.9995638728141785,0.4606392979621887,0.668429970741272,-0.08372930437326431,0.9994981288909912,0.5546808242797852,0.6756539940834045,0.10012797266244888,0.3980630338191986,0.5640326142311096,0.6845874190330505,-0.12112633883953094,0.9720452427864075,0.5246686339378357,0.8258029222488403,0.18550512194633484,0.3990238606929779,0.5220277309417725,0.824641764163971,-0.003177085192874074,0.9180048108100891,0.5175794959068298,0.5932754278182983,0.02757856622338295,0.4677112400531769,0.523586630821228,0.6406599879264832,-0.19361083209514618,0.977864146232605,-172.25372648766222,0.4666510373353958,0.6538970172405243,105.94389760150614,71.88616943926442,0.570752467453015,0.007193787824789414,0.005982020630643533,0.05725579807537252,0.055357489230428145,131.4060160941298,0.7884110895576789,58,1762115089.1735327
