nose_x,nose_y,nose_z,nose_visibility,left_shoulder_x,left_shoulder_y,left_shoulder_z,left_shoulder_visibility,right_shoulder_x,right_shoulder_y,right_shoulder_z,right_shoulder_visibility,left_hip_x,left_hip_y,left_hip_z,left_hip_visibility,right_hip_x,right_hip_y,right_hip_z,right_hip_visibility,left_knee_x,left_knee_y,left_knee_z,left_knee_visibility,right_knee_x,right_knee_y,right_knee_z,right_knee_visibility,left_ankle_x,left_ankle_y,left_ankle_z,left_ankle_visibility,right_ankle_x,right_ankle_y,right_ankle_z,right_ankle_visibility,left_wrist_x,left_wrist_y,left_wrist_z,left_wrist_visibility,right_wrist_x,right_wrist_y,right_wrist_z,right_wrist_visibility,trunk_lateral_inclination,center_mass_x,center_mass_y,left_knee_angle,right_knee_angle,person_height,center_mass_velocity_x,center_mass_velocity_y,center_mass_acceleration_x,center_mass_acceleration_y,body_orientation,torso_leg_ratio,frame,timestamp
0.5250781774520874,0.40567123889923096,-0.2283138781785965,0.9999959468841553,0.559919536113739,0.48084336519241333,-0.08415443450212479,0.9999885559082031,0.48370274901390076,0.47057485580444336,-0.08735088258981705,0.9999754428863525,0.5432522296905518,0.6571569442749023,-0.006750090513378382,0.9998083710670471,0.49339526891708374,0.6566133499145508,0.006666666828095913,0.9998137354850769,0.5415886044502258,0.7971813678741455,-0.0993112251162529,0.9727670550346375,0.4743630290031433,0.7880349159240723,-0.08993539214134216,0.9700028300285339,0.5481241345405579,0.8873099684715271,0.11123081296682358,0.9048292636871338,0.4611690938472748,0.9175158739089966,0.07058539986610413,0.9523683190345764,0.5745301246643066,0.6581936478614807,-0.09387590736150742,0.9719218611717224,0.4693623483181,0.6524915099143982,-0.12036474049091339,0.9662508368492126,178.89727004214058,0.5183237493038177,0.6568851470947266,79.69717204369971,92.97458647825238,0.5908235126933465,0.0,0.0,0.0,0.0,-172.32687741724177,1.0472015517636464,0,1762115161.990136
0.5255101323127747,0.4060201346874237,-0.13364532589912415,0.9999960660934448,0.5600072741508484,0.47831377387046814,-0.04043308272957802,0.9999892711639404,0.4837181568145752,0.4702227711677551,-0.04962632805109024,0.9999760389328003,0.543910562992096,0.6569777727127075,-0.004901318810880184,0.9998016357421875,0.4939660429954529,0.6557865738868713,0.004822862800210714,0.9998008608818054,0.541263222694397,0.79494309425354,-0.0812968760728836,0.9738412499427795,0.47614115476608276,0.7865781188011169,-0.0506594255566597,0.9704071283340454,0.548583984375,0.8985661864280701,0.034365214407444,0.909821629524231,0.46190327405929565,0.9193263649940491,0.029348084703087807,0.9526153802871704,0.575079619884491,0.6551446318626404,-0.05192288011312485,0.9735521674156189,0.4692929685115814,0.644340991973877,-0.07098951935768127,0.9673235416412354,179.0800148016874,0.5189383029937744,0.6563821732997894,102.81957301229967,126.24447200481552,0.5298455797229573,0.008656487601085408,-0.007084794202197684,0.1219336549635385,-0.09979507758205904,-173.94600663766673,0.8453135371339902,1,1762115162.0611293
0.525511622428894,0.40607118606567383,-0.11939646303653717,0.9999962449073792,0.5600138902664185,0.4762188494205475,-0.023741815239191055,0.9999901056289673,0.4837284982204437,0.468674898147583,-0.031939201056957245,0.999977171421051,0.5440605282783508,0.6567317247390747,-0.0045897699892520905,0.9998083710670471,0.49400901794433594,0.6551934480667114,0.004518791101872921,0.9997977018356323,0.5404300093650818,0.7905955910682678,-0.10687901824712753,0.9750771522521973,0.47676435112953186,0.7850163578987122,-0.05340539664030075,0.9700683951377869,0.5486124753952026,0.9023935198783875,-0.008165932260453701,0.9155533313751221,0.4619123935699463,0.9186234474182129,0.045011647045612335,0.9508466124534607,0.5754189491271973,0.6508200168609619,-0.048188239336013794,0.974477231502533,0.4678920805454254,0.6323683857917786,-0.06321641802787781,0.9683753848075867,179.11450622755558,0.5190347731113434,0.6559625864028931,101.08331948457511,119.9199170426662,0.523317477147947,0.0014693332849153896,-0.006390714648848863,-0.10946731823999264,0.010571503547567628,-174.3523162981382,0.8503109445798199,2,1762115162.126785
0.5254875421524048,0.4060717821121216,-0.08877723664045334,0.9999964237213135,0.5600470900535583,0.4757664203643799,-0.01145251840353012,0.9999908804893494,0.4837353825569153,0.4686034321784973,-0.01190856285393238,0.9999778866767883,0.54457688331604,0.6556283235549927,-0.005389375612139702,0.9998139142990112,0.4944283366203308,0.6541402339935303,0.005298633594065905,0.9997880458831787,0.5396660566329956,0.7894814610481262,-0.10120610147714615,0.9766424298286438,0.4767794609069824,0.7843671441078186,-0.029868239536881447,0.9699879884719849,0.5493918061256409,0.9166725873947144,-0.03623850643634796,0.9219841361045837,0.46194085478782654,0.915866494178772,0.050275951623916626,0.9494549632072449,0.5755770802497864,0.644423246383667,-0.03882197290658951,0.9756998419761658,0.4651516377925873,0.6272841691970825,-0.04610758647322655,0.9695358872413635,179.25095295044454,0.5195026099681854,0.6548842787742615,117.13290225352816,133.79988629607135,0.5194915775980393,0.006081007793978648,-0.014015990826967476,0.05994317938566113,-0.09911438825786018,-174.6376510389434,0.9339954221477069,3,1762115162.2037191
0.5253065228462219,0.40607836842536926,-0.11520044505596161,0.9999966025352478,0.5600833296775818,0.4755900800228119,-0.027424072846770287,0.9999916553497314,0.48374682664871216,0.46853765845298767,-0.0270440224558115,0.9999789595603943,0.5449281930923462,0.6549915671348572,-0.005943410564213991,0.999821662902832,0.4945409297943115,0.6533045172691345,0.005851001478731632,0.9997861981391907,0.539195716381073,0.7877024412155151,-0.10864180326461792,0.9781366586685181,0.47684040665626526,0.7830730080604553,-0.03741807863116264,0.9705206155776978,0.549616277217865,0.9132288694381714,-0.02549232915043831,0.9279197454452515,0.4619348645210266,0.9138898849487305,0.05302823707461357,0.9498699903488159,0.5755733251571655,0.6415806412696838,-0.054974548518657684,0.9770829081535339,0.4640689492225647,0.6254712343215942,-0.06666633486747742,0.9712096452713013,179.31389735048887,0.5197345614433289,0.6541480422019958,108.543776417152,127.2148853697632,0.5239764119601833,0.002863098075915691,-0.009087752135092025,-0.03972033856029268,0.06083182143004953,-174.72165721536842,0.9719303802638921,4,1762115162.2847333
0.525199830532074,0.406112939119339,-0.1321774423122406,0.9999964833259583,0.5602812767028809,0.4756941795349121,-0.03615288436412811,0.9999921917915344,0.4837477207183838,0.4685460031032562,-0.03700824826955795,0.9999790191650391,0.5450124144554138,0.6549962162971497,-0.005934755317866802,0.9998143315315247,0.49448880553245544,0.6526516079902649,0.005844044499099255,0.9997685551643372,0.5387395620346069,0.7864738702774048,-0.10721904039382935,0.9783621430397034,0.477033793926239,0.779130220413208,-0.05496255308389664,0.9704292416572571,0.5496105551719666,0.9109466671943665,0.005549218971282244,0.9311069250106812,0.46194058656692505,0.908610463142395,0.0396091490983963,0.9494232535362244,0.5760424733161926,0.6422796249389648,-0.05846624821424484,0.9779176712036133,0.46194806694984436,0.6218786239624023,-0.07398128509521484,0.9721691012382507,179.28617594831752,0.5197506099939346,0.6538239121437073,100.04421915562631,118.56157845456725,0.527262722108385,0.00018095341785218878,-0.0036546877856274934,-0.03024218541429933,0.061259835083971745,-174.6640972304432,1.0718626460427463,5,1762115162.3734221
0.5251215696334839,0.4061916768550873,-0.1242198795080185,0.9999962449073792,0.5609216094017029,0.47580447793006897,-0.03665395453572273,0.9999926686286926,0.48374858498573303,0.4685646593570709,-0.03570288419723511,0.9999799728393555,0.5450384616851807,0.6548410058021545,-0.005085774697363377,0.9998041391372681,0.493968665599823,0.6512888669967651,0.004991054534912109,0.9997462630271912,0.5375402569770813,0.7721730470657349,-0.1389382779598236,0.9788258075714111,0.47865065932273865,0.7606757283210754,-0.11773000657558441,0.9705167412757874,0.5495973825454712,0.9042705297470093,-0.06282088905572891,0.9348376989364624,0.4619380533695221,0.9030042886734009,-0.0573325976729393,0.9504290223121643,0.577103853225708,0.6402724981307983,-0.0614255890250206,0.9772554636001587,0.45929041504859924,0.6189191937446594,-0.06794135272502899,0.9726569652557373,179.10315489775186,0.5195035636425018,0.6530649363994598,101.04573502704264,109.12523748844555,0.501937416544496,-0.003188092659483475,-0.009794457537736372,-0.04347698723871688,-0.07923272197339618,-174.64060736601795,1.215907880338398,6,1762115162.4509125
0.5245109796524048,0.406425803899765,-0.11501172930002213,0.9999961853027344,0.5612544417381287,0.47623273730278015,-0.03522391989827156,0.9999932050704956,0.4832684099674225,0.4685742259025574,-0.033235110342502594,0.9999812841415405,0.5450328588485718,0.6538125276565552,-0.004837848711758852,0.9998003840446472,0.4928015172481537,0.6488506197929382,0.004740036558359861,0.9997353553771973,0.5364256501197815,0.7641353011131287,-0.13904210925102234,0.979239284992218,0.47908276319503784,0.7490975260734558,-0.1158309355378151,0.9706212878227234,0.549742579460144,0.9034505486488342,-0.08288486301898956,0.9385063648223877,0.4617556035518646,0.8967800736427307,-0.0714263767004013,0.9513710737228394,0.5786800980567932,0.6394186615943909,-0.06276841461658478,0.9770106077194214,0.4560534358024597,0.6131430864334106,-0.06780047714710236,0.9736202955245972,178.9292435725193,0.5189171880483627,0.6513315737247467,107.11259742821143,113.36767072808196,0.4954941200797357,-0.008466542622956463,-0.02502762583092647,-0.07621432754973376,-0.21994822077531476,-174.39133025524288,1.667021856681616,7,1762115162.5201705
0.5240166783332825,0.4064957797527313,-0.1276029646396637,0.9999961256980896,0.5614364743232727,0.47629988193511963,-0.043516844511032104,0.9999936819076538,0.48303690552711487,0.46834221482276917,-0.03734688088297844,0.9999821782112122,0.5449583530426025,0.6529821753501892,-0.004859705921262503,0.9998039603233337,0.49192100763320923,0.647261917591095,0.00475089717656374,0.9997292757034302,0.5357381701469421,0.7632530331611633,-0.14310938119888306,0.9794642925262451,0.47897544503211975,0.7528973817825317,-0.10499753803014755,0.970636248588562,0.5497362613677979,0.8989967107772827,-0.06164700537919998,0.9419196844100952,0.4617539048194885,0.8932026624679565,-0.036364711821079254,0.9525483250617981,0.5801781415939331,0.638579785823822,-0.06855557858943939,0.9774575233459473,0.45374512672424316,0.606609582901001,-0.061813462525606155,0.97453773021698,178.77661225929316,0.5184396803379059,0.6501220464706421,97.30249905024459,108.22093445115938,0.49620896998406594,-0.00722197481627855,-0.01829326559018037,0.018823229782781017,0.10185255441401092,-174.20424661244826,2.35440684194343,8,1762115162.5862892
0.5237131118774414,0.4065411388874054,-0.12590636312961578,0.9999961853027344,0.5616258382797241,0.47633132338523865,-0.04626573249697685,0.999994158744812,0.4829710125923157,0.4680512845516205,-0.038933396339416504,0.9999831318855286,0.544894814491272,0.6524624824523926,-0.004881524480879307,0.999810516834259,0.49150118231773376,0.6464276313781738,0.004774439614266157,0.9997300505638123,0.5354455709457397,0.7634612917900085,-0.13675324618816376,0.9798051118850708,0.4789363443851471,0.754362165927887,-0.09738029539585114,0.9708489179611206,0.5497458577156067,0.8979960680007935,-0.0635593831539154,0.9453749656677246,0.4617686867713928,0.8917825222015381,-0.032097093760967255,0.9540053606033325,0.5809765458106995,0.6383728981018066,-0.07392226904630661,0.9779839515686035,0.45304423570632935,0.605674147605896,-0.06381689012050629,0.9756450057029724,178.67480792607702,0.5181979984045029,0.6494450569152832,101.17355868978177,111.52685166516078,0.4948762748472215,-0.0029007420061924467,-0.008125439967034666,0.05186478506794918,0.12203741703570248,-173.99057365411997,2.8580669802596206,9,1762115162.6696064
0.5229169130325317,0.40679487586021423,-0.12475983798503876,0.9999960064888,0.5617491602897644,0.47683754563331604,-0.04890040308237076,0.9999945163726807,0.482266902923584,0.4681244194507599,-0.041908103972673416,0.9999834299087524,0.5446950793266296,0.6526042819023132,-0.00471844058483839,0.999813437461853,0.4913385808467865,0.6466487646102905,0.004583456553518772,0.9997268915176392,0.5356021523475647,0.7643629312515259,-0.13150615990161896,0.9801536798477173,0.4787500500679016,0.7528905272483826,-0.10009944438934326,0.9714622497558594,0.5494414567947388,0.8968877792358398,-0.05247427895665169,0.9488666653633118,0.46176114678382874,0.8906155824661255,-0.03616412356495857,0.9561486840248108,0.58113032579422,0.6385438442230225,-0.07572947442531586,0.9784910082817078,0.45235714316368103,0.6069509983062744,-0.06544152647256851,0.9764597415924072,178.70930807288318,0.5180168300867081,0.6496265232563019,100.24686913001081,110.884652548273,0.49385975373191193,-0.001993114754098361,0.001996393442622951,0.009985218659586185,0.11135487569169988,-173.7440142479468,2.5328106313768646,10,1762115162.7605035
0.5222223997116089,0.4084429144859314,-0.12896554172039032,0.999995768070221,0.5619570016860962,0.4783722460269928,-0.06017068773508072,0.9999947547912598,0.4819377064704895,0.46894142031669617,-0.054690707474946976,0.9999834895133972,0.5445221662521362,0.6526321172714233,-0.004392676055431366,0.9998095631599426,0.4911104142665863,0.6467470526695251,0.004231157712638378,0.999715268611908,0.5356409549713135,0.7613934278488159,-0.13006623089313507,0.9801276922225952,0.4786446690559387,0.7486814856529236,-0.10732642561197281,0.9718562364578247,0.5484176874160767,0.8949691653251648,-0.0440879687666893,0.9514826536178589,0.46180471777915955,0.8886807560920715,-0.037945520132780075,0.9578943252563477,0.5810049772262573,0.6385892629623413,-0.08258815854787827,0.979103147983551,0.45259666442871094,0.6082442402839661,-0.06895600259304047,0.9773535132408142,178.655653095107,0.5178162902593613,0.6496895849704742,97.82012962194528,106.43145818326421,0.4916156899636752,-0.002650063957554868,0.0008333385843641107,-0.008681354866301748,-0.01536936478558304,-173.2783048611601,2.032394313633018,11,1762115162.836177
0.521989643573761,0.4124606251716614,-0.1350177824497223,0.9999954104423523,0.5623984932899475,0.4819733500480652,-0.07029566168785095,0.9999949336051941,0.4812227189540863,0.4741102457046509,-0.06449832022190094,0.999983012676239,0.5445372462272644,0.652576208114624,-0.004402705002576113,0.9998095631599426,0.4911312460899353,0.6468523740768433,0.004236250184476376,0.9997087121009827,0.5355147123336792,0.7578574419021606,-0.12911181151866913,0.9800673723220825,0.4785640835762024,0.7440041303634644,-0.10763569176197052,0.9721805453300476,0.5471345782279968,0.8949669003486633,-0.04183722287416458,0.9541280269622803,0.4634109139442444,0.8855233192443848,-0.03526407852768898,0.9597553610801697,0.5810449719429016,0.6379357576370239,-0.08595363050699234,0.9795964360237122,0.45237478613853455,0.6089035272598267,-0.06982173770666122,0.9781495928764343,178.67312515132832,0.5178342461585999,0.6497142910957336,97.43421379847899,104.2455565534972,0.4877123905722484,0.0002159752114227049,0.00029716755231439396,0.034472983348864845,-0.006449114603896817,-174.4672962763504,2.24951532230781,12,1762115162.9193158
0.5212962627410889,0.4204312264919281,-0.1428997814655304,0.9999951720237732,0.562453031539917,0.48600900173187256,-0.07947743684053421,0.9999951720237732,0.4802217483520508,0.4800078570842743,-0.06775560230016708,0.9999828338623047,0.5444067716598511,0.6532251834869385,-0.004413139075040817,0.9997996687889099,0.49114030599594116,0.6474238634109497,0.004249196965247393,0.9996904730796814,0.5355590581893921,0.757846474647522,-0.1339118331670761,0.9801158308982849,0.4783431589603424,0.7442494034767151,-0.11753439903259277,0.9729305505752563,0.5450095534324646,0.8943926692008972,-0.039968304336071014,0.9562451243400574,0.4650364816188812,0.8865299820899963,-0.040963731706142426,0.9615157842636108,0.5809414982795715,0.6379932761192322,-0.08752618730068207,0.9804660677909851,0.45211848616600037,0.6085163354873657,-0.06766174733638763,0.9790812730789185,178.7797781382987,0.5177735388278961,0.6503245234489441,94.2195408833428,100.52130919729453,0.4813374995920179,-0.0007219021643597929,0.007256587490147825,-0.011152783356356803,0.08275805009989541,-175.8260193760579,1.8474250448552818,13,1762115163.0034094
0.5208742618560791,0.4240393340587616,-0.14246240258216858,0.9999949336051941,0.5624498128890991,0.4875420928001404,-0.07728739827871323,0.9999953508377075,0.47980013489723206,0.48230302333831787,-0.06593205779790878,0.999982476234436,0.5441867113113403,0.6540859937667847,-0.004420464392751455,0.9997891187667847,0.49115270376205444,0.6479941010475159,0.004259069915860891,0.9996738433837891,0.5355738401412964,0.759204089641571,-0.1323453187942505,0.9802135229110718,0.47805649042129517,0.7419144511222839,-0.12158308923244476,0.9737141728401184,0.5441197156906128,0.8942723870277405,-0.03860390931367874,0.9582566618919373,0.46565690636634827,0.8867233991622925,-0.04541803151369095,0.9632964730262756,0.5809261202812195,0.6379483938217163,-0.08513011038303375,0.9812259674072266,0.4520687460899353,0.608604371547699,-0.06416769325733185,0.9798869490623474,178.80841182396765,0.5176697075366974,0.6510400474071503,94.48102900940735,99.29915374140595,0.4774197609512421,-0.0012594276327965945,0.008678989103275957,-0.006519946159443684,0.01725310237237928,-176.3729382714096,1.792286087717717,14,1762115163.0858526
0.520529568195343,0.43273764848709106,-0.17963384091854095,0.9999949336051941,0.5620679259300232,0.48822805285453796,-0.11520500481128693,0.9999955892562866,0.47903019189834595,0.48680737614631653,-0.09418649971485138,0.9999828338623047,0.544390857219696,0.6534615755081177,-0.007434295956045389,0.9997868537902832,0.4914587438106537,0.6476182341575623,0.007212641183286905,0.9996769428253174,0.5352802872657776,0.7592910528182983,-0.13140788674354553,0.979366660118103,0.47736597061157227,0.7366793155670166,-0.119870126247406,0.9725927114486694,0.5422719120979309,0.8922535181045532,-0.042405907064676285,0.958812952041626,0.46782293915748596,0.8876209855079651,-0.04824500158429146,0.9637448191642761,0.5809001326560974,0.6365891695022583,-0.11386875063180923,0.9823976755142212,0.4521344304084778,0.6086418628692627,-0.04898834228515625,0.9809094667434692,179.07775779013357,0.5179248005151749,0.65053990483284,96.53050942307839,99.88165222212204,0.4767702976520118,0.0038174424495854087,-0.007484586621758552,0.0759748836647275,-0.24188639169181503,-179.01983309561436,2.0554958826127625,15,1762115163.1526756
0.5198726654052734,0.44110751152038574,-0.19170591235160828,0.9999951124191284,0.5614913702011108,0.4904031455516815,-0.1352517008781433,0.9999958276748657,0.4776347279548645,0.49116817116737366,-0.11006723344326019,0.9999833703041077,0.5444520711898804,0.6522731184959412,-0.00971189048141241,0.9997878670692444,0.49152255058288574,0.6458212733268738,0.009377408772706985,0.9996872544288635,0.535433292388916,0.7591730952262878,-0.11735764890909195,0.9791461825370789,0.47646188735961914,0.7360811829566956,-0.11537512391805649,0.9723573327064514,0.5414979457855225,0.8901007175445557,-0.02770858444273472,0.96025151014328,0.46911877393722534,0.8875461220741272,-0.04179929941892624,0.9650906920433044,0.5808452367782593,0.6359333992004395,-0.1024375930428505,0.9836214184761047,0.4516867995262146,0.6076673865318298,-0.046826694160699844,0.9819051623344421,179.42955081676732,0.5179873108863831,0.6490471959114075,100.24191386608777,100.16646910085234,0.4746531097021754,0.0008958835910858409,-0.021393144899507274,-0.04187107820883137,-0.19933410881846583,179.47730410105933,2.4612063787554703,16,1762115163.2224507
0.5175312161445618,0.4575563669204712,-0.19987976551055908,0.9999951720237732,0.5608094334602356,0.4941326677799225,-0.14150287210941315,0.9999960660934448,0.476478636264801,0.4942294955253601,-0.11332403123378754,0.9999840259552002,0.544299304485321,0.6505905389785767,-0.010821603238582611,0.9997715353965759,0.49153122305870056,0.6439922451972961,0.010450044646859169,0.999679446220398,0.5358295440673828,0.7625904679298401,-0.1161026731133461,0.9787115454673767,0.47460803389549255,0.7383290529251099,-0.11431101709604263,0.9719980955123901,0.5406635999679565,0.8859699964523315,-0.017987672239542007,0.9609664082527161,0.4695243239402771,0.8879541754722595,-0.03200024738907814,0.9658597707748413,0.5807833671569824,0.6356261968612671,-0.09763769805431366,0.9847509264945984,0.4513731896877289,0.6076939105987549,-0.035569656640291214,0.9824234247207642,179.72728686740723,0.5179152637720108,0.6472913920879364,98.16391822193127,98.41158951295299,0.4638200102104803,-0.0009083319306008103,-0.02213624640800279,-0.022746595506463817,-0.009368630981618524,179.93421360997553,5.791848587896178,17,1762115163.3017688
0.5172638297080994,0.46518394351005554,-0.20830027759075165,0.999995231628418,0.5606783032417297,0.5013554096221924,-0.14289867877960205,0.9999962449073792,0.47533267736434937,0.4999796450138092,-0.11942748725414276,0.9999843239784241,0.544272780418396,0.6506277918815613,-0.010836416855454445,0.9997596144676208,0.4915362000465393,0.6441532373428345,0.010466654784977436,0.9996715188026428,0.535851776599884,0.7651640176773071,-0.11528827995061874,0.9785929918289185,0.47573986649513245,0.7460137009620667,-0.1141551285982132,0.9717532992362976,0.5397613048553467,0.8861579298973083,-0.014125262387096882,0.9621591567993164,0.4694405496120453,0.8882153630256653,-0.022729283198714256,0.9668807983398438,0.581052839756012,0.6357489824295044,-0.08751609176397324,0.985774576663971,0.4508117735385895,0.6075878143310547,-0.026321496814489365,0.9825646281242371,179.96055916685611,0.5179044902324677,0.6473905146121979,97.64571877450663,96.69654076757556,0.462923739236122,-0.0001675497597294732,0.0015415504864736591,0.011520621820176543,0.3682363780912218,-179.07647664109336,0.08445568258446914,18,1762115163.3660693
0.5172990560531616,0.466126024723053,-0.21047501266002655,0.9999952912330627,0.5606601238250732,0.5036830306053162,-0.1442308872938156,0.9999963641166687,0.47497567534446716,0.5018594861030579,-0.12014427036046982,0.9999844431877136,0.5442739725112915,0.6508089900016785,-0.010815373621881008,0.9997445940971375,0.49166297912597656,0.644198477268219,0.010451015084981918,0.9996623396873474,0.5345836877822876,0.7676218748092651,-0.1157912015914917,0.9777487516403198,0.47651124000549316,0.7494057416915894,-0.11303403228521347,0.9708030819892883,0.539035439491272,0.8857425451278687,-0.009154700674116611,0.9621335864067078,0.4694940149784088,0.8876892924308777,-0.01677117310464382,0.9669957756996155,0.5811342597007751,0.6358511447906494,-0.08322940021753311,0.9866237640380859,0.45045357942581177,0.6076746582984924,-0.027867060154676437,0.9825841784477234,-179.94039085170118,0.517968475818634,0.6475037336349487,95.86689376710899,95.78112742265647,0.46484058857341654,0.0007449274155494491,0.001318108640741666,0.01062316225658835,-0.0026013351856137945,-178.78080987036356,0.1172952667529667,19,1762115163.4519644
0.5167585015296936,0.47135671973228455,-0.2109622210264206,0.9999950528144836,0.560975193977356,0.5096842646598816,-0.14577560126781464,0.9999961853027344,0.47434109449386597,0.5052759051322937,-0.12031356990337372,0.9999836683273315,0.5441681146621704,0.6508572697639465,-0.010619251057505608,0.9997089505195618,0.49167266488075256,0.644376277923584,0.010263308882713318,0.9996317028999329,0.5343241095542908,0.7746953964233398,-0.07974134385585785,0.9780761003494263,0.47752904891967773,0.7638043165206909,-0.08101754635572433,0.9714992642402649,0.5392355918884277,0.8865994215011597,0.005159453023225069,0.9637337327003479,0.4694749712944031,0.8890874981880188,-0.005615381058305502,0.9682447910308838,0.5812498331069946,0.6367751955986023,-0.06422244012355804,0.9873464703559875,0.4504157602787018,0.6077690720558167,0.0015412515494972467,0.982434093952179,-179.89277936439376,0.5179203897714615,0.6476167738437653,113.41606515471503,111.74970101329234,0.46693037128815745,-0.0007334651009713469,0.0017242225769967888,-0.02255018618008372,0.006194528699611994,-177.08702767180577,0.16679127936723845,20,1762115163.5333943
0.5159627199172974,0.471964567899704,-0.22919663786888123,0.999994695186615,0.5621926784515381,0.5128483176231384,-0.15881475806236267,0.9999958276748657,0.4728442132472992,0.5061234831809998,-0.1362115442752838,0.9999828338623047,0.5441677570343018,0.6512281894683838,-0.010471915826201439,0.9996870160102844,0.4916296899318695,0.6445763111114502,0.01012793742120266,0.9995980858802795,0.533098578453064,0.7777053117752075,-0.0739067941904068,0.9786856770515442,0.4803396165370941,0.7651704549789429,-0.06885237991809845,0.9719734191894531,0.5382453799247742,0.8890320062637329,0.0014848249265924096,0.9656259417533875,0.46974730491638184,0.8888903856277466,0.0017506827134639025,0.9691944122314453,0.5812394618988037,0.6373528242111206,-0.05749082565307617,0.9878106117248535,0.4505292773246765,0.6078495979309082,0.001421388704329729,0.9826992154121399,-179.84258905359434,0.5178987234830856,0.647902250289917,118.93928464242518,117.26765749243567,0.4767647904395617,-0.0002718626969976187,0.0035820808453097515,0.005792061487778143,0.023311900529569485,-175.69573435588018,0.1396152088809435,21,1762115163.5972202
0.5160204768180847,0.46920543909072876,-0.2594585418701172,0.9999945163726807,0.5628117322921753,0.5109039545059204,-0.18349799513816833,0.9999956488609314,0.47062787413597107,0.5050585269927979,-0.15866102278232574,0.9999805688858032,0.5440185070037842,0.6532049179077148,-0.011189037933945656,0.999699592590332,0.49155193567276,0.6476886868476868,0.01082458533346653,0.9995980858802795,0.5313807725906372,0.7809353470802307,-0.05781733989715576,0.9796850681304932,0.4812150001525879,0.7750603556632996,-0.01240669097751379,0.9721943140029907,0.5382797718048096,0.8980684876441956,0.007362358272075653,0.9682040214538574,0.46967530250549316,0.8890523314476013,0.08133263885974884,0.9698513150215149,0.5807701349258423,0.6384991407394409,-0.05057759955525398,0.9881494045257568,0.45060640573501587,0.6079436540603638,0.01799749955534935,0.982822835445404,-179.57152575489152,0.5177852213382721,0.6504468023777008,130.21342515502855,130.39435940055643,0.5220347532024581,-0.0017816376939054283,0.03994171142007073,-0.023698865322993257,0.5707353678196226,-176.3717019230429,0.4589650349218492,22,1762115163.6609268
0.5163978338241577,0.4683733582496643,-0.273271769285202,0.9999945759773254,0.5646212697029114,0.5091984272003174,-0.18996770679950714,0.9999950528144836,0.46885496377944946,0.5036730766296387,-0.17511600255966187,0.9999775290489197,0.5439398288726807,0.6517214179039001,-0.011085196398198605,0.9997159838676453,0.4905058443546295,0.6454885005950928,0.010727395303547382,0.9996091723442078,0.5297384858131409,0.783241868019104,-0.048408884555101395,0.980449378490448,0.4815560281276703,0.7770357728004456,-0.017106283456087112,0.9725787043571472,0.5380248427391052,0.9012623429298401,0.027944613248109818,0.9703676700592041,0.46960216760635376,0.8891047835350037,0.08515741676092148,0.9703035950660706,0.5806010961532593,0.640331506729126,-0.03900952637195587,0.987144410610199,0.4513401985168457,0.6104673147201538,0.028851959854364395,0.9824739098548889,-179.80465323083774,0.5172228366136551,0.6486049592494965,130.43940948372907,125.8209673278777,0.5395446093157195,-0.008840563007604463,-0.02895336504045844,-0.11096473867463136,-1.0830153055416385,-176.69791286904842,0.26418825319513034,23,1762115163.724541
0.5165653824806213,0.4673864543437958,-0.27186936140060425,0.9999944567680359,0.5654484629631042,0.5084682703018188,-0.1896338164806366,0.9999942779541016,0.4682769775390625,0.5028936862945557,-0.1742890626192093,0.9999744892120361,0.543899655342102,0.6514382362365723,-0.01102773379534483,0.9997212886810303,0.48994308710098267,0.6445929408073425,0.010669725015759468,0.9996101260185242,0.5290969610214233,0.7847477197647095,-0.03941374272108078,0.9807009696960449,0.481717050075531,0.777610719203949,-0.03113197721540928,0.9726983904838562,0.5376456379890442,0.9014555811882019,0.048190075904130936,0.9718126654624939,0.4695731997489929,0.8891472816467285,0.06710169464349747,0.9703455567359924,0.5805600881576538,0.6411347389221191,-0.03887519985437393,0.9861574769020081,0.4518437385559082,0.6111980676651001,0.033889271318912506,0.9818510413169861,-179.97639047259014,0.5169213712215424,0.6480155885219574,130.23257519535173,121.32745145763313,0.5402401154930714,-0.00474035480375948,-0.009267486194369777,0.064473210405002,0.3095481365217124,-176.71662496979783,0.03260947672348967,24,1762115163.7881365
0.5176012516021729,0.4448104798793793,-0.2630406618118286,0.9999945759773254,0.5661853551864624,0.5059031844139099,-0.17990148067474365,0.999993622303009,0.4688030779361725,0.49913138151168823,-0.1646699607372284,0.9999737739562988,0.543898344039917,0.6500558257102966,-0.010927023366093636,0.999732255935669,0.48917216062545776,0.6418595910072327,0.010576770640909672,0.9996221661567688,0.5291832685470581,0.7897469997406006,-0.05218910053372383,0.9803787469863892,0.4818058907985687,0.7770974636077881,-0.042574070394039154,0.9726117253303528,0.537715494632721,0.9029709100723267,0.05209187790751457,0.9727398753166199,0.469592809677124,0.8889395594596863,0.07552236318588257,0.9701496958732605,0.5805168151855469,0.6421353816986084,-0.0704171434044838,0.9842023253440857,0.4520672857761383,0.6128571033477783,0.029824133962392807,0.9818940162658691,179.6169574630958,0.5165352523326874,0.6459577083587646,120.30130233344394,112.12505008023857,0.5572751423465734,-0.004849296036123438,-0.02584507105513735,-0.0013682010943301902,-0.208199129527727,-176.022149511122,0.5207721831638591,25,1762115163.8677602
0.5185477137565613,0.4227675497531891,-0.2927960753440857,0.9999946355819702,0.5683761835098267,0.4974263608455658,-0.19519859552383423,0.9999919533729553,0.46867290139198303,0.4867694079875946,-0.18173392117023468,0.9999709725379944,0.5437847375869751,0.6490536332130432,-0.011109692975878716,0.9997488856315613,0.4883502125740051,0.6406401991844177,0.010801473632454872,0.9996402263641357,0.5294255018234253,0.7975837588310242,-0.03360391780734062,0.9811509847640991,0.48114505410194397,0.789402425289154,-0.016026616096496582,0.9738107919692993,0.5377814173698425,0.902190625667572,0.0746096670627594,0.9740440249443054,0.46997690200805664,0.8889230489730835,0.14404478669166565,0.9674511551856995,0.5806335210800171,0.6444182991981506,-0.028145667165517807,0.9797835350036621,0.45207372307777405,0.6142066121101379,0.02375727705657482,0.9790189862251282,179.07843965755367,0.5160674750804901,0.6448469161987305,124.79987237492348,111.7546309727659,0.6208446078577461,-0.007368488258114914,-0.01749734291261844,-0.039682644293807155,0.13149450194757792,-173.89900808578344,1.7461697543680597,26,1762115163.9312437
0.5229726433753967,0.3962693214416504,-0.3056100606918335,0.9999946355819702,0.5693851113319397,0.4823145568370819,-0.20007014274597168,0.9999902248382568,0.46877360343933105,0.4683249592781067,-0.1914525032043457,0.9999702572822571,0.5433892011642456,0.6470274329185486,-0.010557524859905243,0.9997673034667969,0.48796066641807556,0.6388999223709106,0.010287738405168056,0.999666154384613,0.5314692258834839,0.8036856055259705,-0.0339423343539238,0.9819864630699158,0.4801880419254303,0.7961962223052979,0.00334561662748456,0.9747185111045837,0.537844181060791,0.9016290307044983,0.11176139116287231,0.9751275777816772,0.4701668620109558,0.8894129991531372,0.19122613966464996,0.9658141136169434,0.581511378288269,0.6501566767692566,-0.035530198365449905,0.9771400690078735,0.4519217908382416,0.6146128177642822,-0.02251880243420601,0.9756485223770142,178.83662767451457,0.5156749337911606,0.6429636776447296,115.15127430478529,113.94823752165708,0.6771675664125192,-0.006149756839132838,-0.029503798688201282,0.01909328287924205,-0.18809940642359374,-172.0840228960139,1.866345326696149,27,1762115163.995074
0.525910496711731,0.37248432636260986,-0.2760925889015198,0.999994158744812,0.5702239274978638,0.47032827138900757,-0.18564504384994507,0.9999885559082031,0.47075986862182617,0.4532566964626312,-0.17471221089363098,0.9999650716781616,0.5432648062705994,0.646985650062561,-0.008206208236515522,0.999775230884552,0.48771825432777405,0.638312816619873,0.008009578101336956,0.999678909778595,0.5312386751174927,0.8101187944412231,-0.021281767636537552,0.9821203351020813,0.48010438680648804,0.7955434322357178,0.00808231346309185,0.9750990271568298,0.5375011563301086,0.8912020921707153,0.1644495576620102,0.9751649498939514,0.47024163603782654,0.8910136818885803,0.18674442172050476,0.9649409055709839,0.583687961101532,0.6510255336761475,-0.12162240594625473,0.9754765033721924,0.4512256979942322,0.6163226962089539,-0.05648224800825119,0.9669676423072815,178.4162769673656,0.5154915302991867,0.642649233341217,108.80157442395398,118.2246726414185,0.6880985358510439,-0.00230965777732407,-0.003959895873991918,0.048359573573794244,0.32168239090263434,-170.26089778338672,2.776231863196559,28,1762115164.0744812
0.5270710587501526,0.3679184019565582,-0.2696465849876404,0.9999931454658508,0.5708803534507751,0.4682193398475647,-0.15849921107292175,0.9999868273735046,0.47180184721946716,0.44980594515800476,-0.14834673702716827,0.9999563694000244,0.5431378483772278,0.6473672389984131,-0.007076243404299021,0.9997846484184265,0.4876522421836853,0.6384347081184387,0.00691226264461875,0.9996892809867859,0.5304809808731079,0.8128214478492737,-0.016555901616811752,0.9824713468551636,0.47918325662612915,0.8047284483909607,0.01729077287018299,0.9754059314727783,0.5370675325393677,0.8896008729934692,0.16483242809772491,0.9749196767807007,0.470215380191803,0.8921471238136292,0.21002277731895447,0.961510956287384,0.5838712453842163,0.6512480974197388,-0.1218966469168663,0.9731010794639587,0.4510127604007721,0.6211209297180176,-0.05185617879033089,0.9557698369026184,178.14797819648393,0.5153950452804565,0.6429009735584259,109.43701423069167,118.04127047316635,0.6949448288756935,-0.0012168820156302153,0.0031749814319778926,0.01378223468288699,0.08998603090542305,-169.47189249551437,4.989714481496076,29,1762115164.15377
0.5285439491271973,0.34743642807006836,-0.2731890082359314,0.9999905824661255,0.5739238858222961,0.4611836373806,-0.14970149099826813,0.999975860118866,0.47257810831069946,0.4376634359359741,-0.13806697726249695,0.9999442100524902,0.5434833765029907,0.6469727158546448,-0.005402733571827412,0.9997920989990234,0.48763832449913025,0.6379398107528687,0.005220191087573767,0.9996969103813171,0.5305023789405823,0.8179028034210205,-0.027705863118171692,0.982670783996582,0.4786510467529297,0.8120630979537964,0.00788312591612339,0.9761141538619995,0.5367091298103333,0.8895548582077026,0.20212392508983612,0.9721709489822388,0.4701947569847107,0.8928524255752563,0.25166356563568115,0.9544156789779663,0.5836347341537476,0.655373215675354,-0.11523789167404175,0.936784565448761,0.4508342742919922,0.6284829378128052,-0.02811610698699951,0.9113845825195312,177.71862486304468,0.5155608505010605,0.6424562633037567,99.73720095995517,109.27662174654986,0.7391854652423073,0.0026147412470673165,-0.007013061721710882,0.06042453519681055,-0.1606650053829387,-166.93416735662262,6.8310137308041305,30,1762115164.2171817
0.5300747156143188,0.32719120383262634,-0.272743284702301,0.999988853931427,0.5768550634384155,0.4425596594810486,-0.13293132185935974,0.9999728798866272,0.47344106435775757,0.42240533232688904,-0.12407778203487396,0.9999363422393799,0.5436254739761353,0.6437812447547913,-0.0033074896782636642,0.9997994899749756,0.48759254813194275,0.6343228816986084,0.0031319099944084883,0.9997047185897827,0.5305380821228027,0.8161895871162415,-0.01000338327139616,0.9831289649009705,0.4786543846130371,0.8117145299911499,0.019214075058698654,0.9768887758255005,0.5365623235702515,0.8897735476493835,0.2307695895433426,0.971735417842865,0.4702128469944,0.8955196142196655,0.2572616636753082,0.9533693790435791,0.5838273763656616,0.6542534828186035,-0.10399210453033447,0.9339668154716492,0.45006218552589417,0.6274113059043884,-0.051939260214567184,0.8986159563064575,177.35605066238207,0.515609011054039,0.6390520632266998,104.61479082295384,114.63236574516687,0.766480109878126,0.0006075187969924812,-0.04294210526315789,-0.025320003462371978,-0.4532250557656101,-168.9718772624177,7.885808242619571,31,1762115164.2964559
0.532884955406189,0.3057859539985657,-0.22426819801330566,0.9999889731407166,0.5807167291641235,0.426483154296875,-0.10669108480215073,0.9999734163284302,0.4753010869026184,0.4067440927028656,-0.10367047786712646,0.9999372959136963,0.5443562269210815,0.6416882872581482,-0.0015441336436197162,0.99981290102005,0.4878953993320465,0.6320773363113403,0.001344545977190137,0.9997231364250183,0.5314339399337769,0.818475067615509,-0.0007334849215112627,0.9839476346969604,0.4786554276943207,0.814605176448822,0.019496822729706764,0.9779301881790161,0.5373286604881287,0.8933785557746887,0.22820575535297394,0.9722513556480408,0.47020119428634644,0.8978144526481628,0.2450426071882248,0.9532639384269714,0.5849677920341492,0.6542453169822693,-0.10227400064468384,0.9378527402877808,0.44981589913368225,0.6278635263442993,-0.06551598012447357,0.9017177820205688,176.9119974191431,0.516125813126564,0.6368828117847443,108.2152186395321,115.98915173835238,0.7490969539760526,0.008121639596095843,-0.03409018527885498,0.11808579000791482,0.1391095501895563,-169.39419196863125,9.278184874225502,32,1762115164.3600886
0.5356464982032776,0.2888278365135193,-0.22119835019111633,0.99998939037323,0.582722008228302,0.41168731451034546,-0.09831146895885468,0.999974250793457,0.4765743613243103,0.39384961128234863,-0.10315769910812378,0.9999394416809082,0.5459128618240356,0.6393769383430481,-1.0587776159809437e-05,0.9998257160186768,0.48932355642318726,0.6306648254394531,-0.00022592426103074104,0.9997407793998718,0.53276526927948,0.8218522071838379,-0.003794081974774599,0.9844569563865662,0.4788375496864319,0.8169856667518616,0.013601849786937237,0.9783951044082642,0.5375056266784668,0.8975604772567749,0.2427561730146408,0.9698354005813599,0.4701957106590271,0.9003898501396179,0.24584579467773438,0.9493088126182556,0.5866537094116211,0.6537713408470154,-0.07418705523014069,0.9417402148246765,0.4496672749519348,0.6297848224639893,-0.08242370933294296,0.906193196773529,177.03490104358417,0.5176182091236115,0.6350208818912506,105.75851535092576,114.06558916305006,0.7681017937979104,0.023519811001728414,-0.029343578567671152,0.24267157105031306,0.07480540886430145,-170.46079272910453,6.163715778813745,33,1762115164.4235413
0.5363590717315674,0.28780654072761536,-0.23645229637622833,0.9999882578849792,0.5835077166557312,0.4070311188697815,-0.10068919509649277,0.9999743103981018,0.4769729673862457,0.3929833769798279,-0.09861244261264801,0.9999343752861023,0.5466970205307007,0.6393706202507019,0.0003799456753768027,0.9998319745063782,0.48958438634872437,0.6311870813369751,-0.0005722065106965601,0.9997472763061523,0.5335124731063843,0.8261399865150452,-0.009412044659256935,0.9843449592590332,0.47909554839134216,0.8181358575820923,0.01033750083297491,0.9778826832771301,0.5361946225166321,0.8906498551368713,0.30470338463783264,0.9602640271186829,0.4703002870082855,0.8980444073677063,0.2937934994697571,0.9358353614807129,0.5872415900230408,0.6522318720817566,-0.09161963313817978,0.943837583065033,0.4496805667877197,0.6291158199310303,-0.08594602346420288,0.9056700468063354,177.0559643011322,0.5181407034397125,0.6352788507938385,98.548310043586,109.14440070503228,0.8099155192282715,0.008216974623552703,0.004056932029515868,-0.24065911209553625,0.5252710690496727,-172.48827693071345,3.95729093271803,34,1762115164.4871285
0.5374757647514343,0.2764585614204407,-0.24209153652191162,0.9999885559082031,0.5842469930648804,0.3972409963607788,-0.1064043864607811,0.9999747276306152,0.4777739644050598,0.38375023007392883,-0.10877618938684464,0.9999352097511292,0.5478005409240723,0.6366223096847534,0.002086394466459751,0.9998411536216736,0.49032944440841675,0.6294789910316467,-0.0023024980910122395,0.9997599720954895,0.5355123281478882,0.8225330114364624,0.0012114213313907385,0.984610915184021,0.4801812767982483,0.8158383965492249,0.012639246881008148,0.9782313108444214,0.5352045893669128,0.9035958051681519,0.2763133645057678,0.959671139717102,0.47039851546287537,0.8993932008743286,0.27108681201934814,0.9346235990524292,0.588060200214386,0.6481679081916809,-0.08161233365535736,0.9469243288040161,0.44968050718307495,0.6284533143043518,-0.09025842696428299,0.909131646156311,177.18054340309183,0.5190649926662445,0.6330506503582001,106.11650440853639,112.57005567456675,0.811118505208555,0.011613433747932993,-0.027996710762815444,0.0426755520742707,-0.4027449917872313,-172.77876393707982,2.367200580830467,35,1762115164.5667164
0.5383259057998657,0.2665526866912842,-0.24274572730064392,0.9999892115592957,0.5859215259552002,0.3860141634941101,-0.10988334566354752,0.9999759197235107,0.4794418215751648,0.37460681796073914,-0.1134280115365982,0.9999362826347351,0.5493017435073853,0.631517767906189,0.002118092030286789,0.9998518824577332,0.4911007881164551,0.6257681250572205,-0.0023438865318894386,0.9997733235359192,0.5373741388320923,0.8218497633934021,-0.007314642425626516,0.9841880798339844,0.4812135100364685,0.8179883360862732,0.009949015453457832,0.9773992896080017,0.534654438495636,0.9136422276496887,0.24376757442951202,0.9544585943222046,0.4706524908542633,0.8991221785545349,0.2603655457496643,0.9215627908706665,0.5899301767349243,0.6433882117271423,-0.07696028053760529,0.9503856301307678,0.4497640132904053,0.6279359459877014,-0.09802201390266418,0.9126542210578918,177.1229150163741,0.5202012658119202,0.6286429464817047,107.24667015899355,111.68945873978406,0.8096255510287936,0.017856607605181023,-0.06926735781968325,0.09811188991315319,-0.6485709469690888,-173.88513174141735,1.8791946838488962,36,1762115164.6303496
0.5389240980148315,0.25796574354171753,-0.2439144402742386,0.9999898672103882,0.5867953300476074,0.3757328987121582,-0.1085393875837326,0.9999762177467346,0.4804005026817322,0.36878955364227295,-0.11504421383142471,0.9999376535415649,0.5500816702842712,0.629269003868103,0.0028282443527132273,0.9998560547828674,0.49157628417015076,0.6226266622543335,-0.0030707824043929577,0.9997802376747131,0.53742516040802,0.8206806778907776,0.014199068769812584,0.9839750528335571,0.48224902153015137,0.8158908486366272,0.02824859693646431,0.9769606590270996,0.5331228971481323,0.9115146398544312,0.268721342086792,0.9543702006340027,0.4715383052825928,0.9008435606956482,0.2471320927143097,0.9235454201698303,0.5916098356246948,0.6383364796638489,-0.07637381553649902,0.953914225101471,0.4501171112060547,0.6277420520782471,-0.11505892127752304,0.9174678325653076,177.11853362945376,0.520828977227211,0.6259478330612183,113.04895684679786,120.48753683279014,0.8205877085308229,0.007921234813794099,-0.03401025651825955,-0.12537675582447888,0.44491747554551997,-176.26616205545443,1.700826715231463,37,1762115164.7095938
0.5404582619667053,0.2527264356613159,-0.22830374538898468,0.9999906420707703,0.5864871144294739,0.37070032954216003,-0.09961895644664764,0.9999772310256958,0.4803870618343353,0.36616653203964233,-0.11352710425853729,0.999937891960144,0.5511183738708496,0.6272745132446289,0.0023878985084593296,0.9998617768287659,0.4920889735221863,0.6218094229698181,-0.002624915912747383,0.9997854828834534,0.5379584431648254,0.8200131058692932,0.0060849725268781185,0.9838072061538696,0.48242345452308655,0.8144009709358215,0.02588747814297676,0.9760645031929016,0.5331255197525024,0.9166042804718018,0.2389480322599411,0.952951967716217,0.47197550535202026,0.9005759358406067,0.23663589358329773,0.9197902679443359,0.5942521095275879,0.6374701261520386,-0.06623254716396332,0.9577017426490784,0.4503610134124756,0.6275454163551331,-0.10398440062999725,0.9230136275291443,177.35454802122902,0.5216036736965179,0.6245419681072235,113.6458177011758,120.73408835772123,0.8055056571307951,0.012213899351210748,-0.022164930046535407,0.06767834201622651,0.1867539495014113,-177.5531630783663,1.5485851067355247,38,1762115164.7730212
0.5405977368354797,0.2510773241519928,-0.2327934056520462,0.999991238117218,0.5864402651786804,0.37025490403175354,-0.10281721502542496,0.9999775290489197,0.4802696108818054,0.3645791709423065,-0.1187092512845993,0.999937117099762,0.5516432523727417,0.6265438795089722,0.002570125740021467,0.9998670220375061,0.4922422468662262,0.6218602061271667,-0.002801518654450774,0.999790370464325,0.5386105179786682,0.8192152976989746,0.007616308983415365,0.9827148914337158,0.48280781507492065,0.8134447932243347,0.025130217894911766,0.9737479090690613,0.5332650542259216,0.9208403825759888,0.22716160118579865,0.9484400153160095,0.4726007878780365,0.9010344743728638,0.24365171790122986,0.9092718958854675,0.5948478579521179,0.6361046433448792,-0.06281083077192307,0.9607031941413879,0.45049792528152466,0.6273261904716492,-0.11059943586587906,0.9277787804603577,177.45530217459844,0.521942749619484,0.6242020428180695,116.3623056629154,120.2055859698712,0.8099662318106507,0.004274298981155892,-0.0042850058606077,-0.10008444561813652,0.22538946753443728,-176.93996141945735,1.4673817931701452,39,1762115164.8523502
0.5406855344772339,0.2500818371772766,-0.22042962908744812,0.9999918937683105,0.5864949822425842,0.36817172169685364,-0.09774000942707062,0.999978244304657,0.4801047444343567,0.36324387788772583,-0.11573430150747299,0.9999357461929321,0.5520709156990051,0.6266190409660339,0.002322180662304163,0.9998719096183777,0.4924775958061218,0.622179388999939,-0.0025546352844685316,0.9997935891151428,0.5388118624687195,0.8185651302337646,0.006575694773346186,0.9821897745132446,0.48290690779685974,0.8130069375038147,0.030550038442015648,0.97225421667099,0.5333348512649536,0.9212287068367004,0.2061266005039215,0.9463297128677368,0.4730110764503479,0.9008451700210571,0.237588569521904,0.9025194048881531,0.5972620248794556,0.6361163854598999,-0.056470878422260284,0.9638693928718567,0.4510613977909088,0.6272790431976318,-0.10055049508810043,0.9324126839637756,177.55949115957267,0.5222742557525635,0.6243992149829865,118.51979815427136,122.89764895661953,0.7961700940010641,0.004183855699386761,0.0024884604042920678,-0.0011414619584435878,0.08548621762664715,-177.34803678726175,1.4342400645537448,40,1762115164.9315848
0.5401613712310791,0.24879887700080872,-0.20308947563171387,0.9999924898147583,0.5860229730606079,0.3655397295951843,-0.08561791479587555,0.9999788403511047,0.47964152693748474,0.36291953921318054,-0.10409734398126602,0.9999343752861023,0.5522584915161133,0.6271892786026001,0.0023848828859627247,0.9998742938041687,0.4925571382045746,0.6226531267166138,-0.0026042284443974495,0.9997943043708801,0.5394231081008911,0.8160468339920044,0.008838645182549953,0.9816634654998779,0.4832891821861267,0.8125892877578735,0.027111027389764786,0.9715595841407776,0.5333903431892395,0.9209982752799988,0.20702406764030457,0.9450436234474182,0.47400110960006714,0.9010955095291138,0.2114247977733612,0.9015259742736816,0.6005499362945557,0.63649582862854,-0.0460665263235569,0.9668788313865662,0.45230287313461304,0.6276357173919678,-0.09545931220054626,0.9367205500602722,177.71009819680765,0.5224078148603439,0.6249212026596069,119.89331284224066,124.60645543581855,0.7809641068377894,0.0021080681882326376,0.008238941050294466,-0.032763782946107156,0.09076434784823392,-178.58908193792234,1.36064030441614,41,1762115164.994941
0.5399335026741028,0.24995490908622742,-0.2120083123445511,0.9999930262565613,0.5859743356704712,0.36533698439598083,-0.0926322266459465,0.9999793767929077,0.47867757081985474,0.3625991940498352,-0.1106153130531311,0.9999336004257202,0.5525068044662476,0.6276866793632507,0.0024557295255362988,0.999872624874115,0.49253734946250916,0.6229619979858398,-0.0026686976198107004,0.9997914433479309,0.5397247076034546,0.8142475485801697,0.024243425577878952,0.9814812541007996,0.48403042554855347,0.811191201210022,0.039337433874607086,0.9716280698776245,0.5335801839828491,0.9198009967803955,0.22162863612174988,0.9461109638214111,0.47500166296958923,0.9025340676307678,0.21071195602416992,0.9051148295402527,0.6030552387237549,0.6366596221923828,-0.055756669491529465,0.9696869254112244,0.45319294929504395,0.6275888085365295,-0.10410745441913605,0.9405169486999512,177.8517541155862,0.5225220769643784,0.6253243386745453,124.81941037297774,130.6903973576264,0.7885489503706227,0.0014414010689075428,0.0050855065881878795,-0.008409916013022153,-0.03978015145809788,-178.53835479132007,1.2920845316330967,42,1762115165.0742126
0.5397035479545593,0.25295591354370117,-0.19611582159996033,0.9999935030937195,0.5838404893875122,0.36537131667137146,-0.07940365374088287,0.9999802112579346,0.477073609828949,0.3621465861797333,-0.10011763870716095,0.9999322295188904,0.5524662137031555,0.6279910206794739,0.002589354058727622,0.9998728632926941,0.49248576164245605,0.6234251856803894,-0.0027846540324389935,0.9997891187667847,0.5400532484054565,0.8109620213508606,0.026694661006331444,0.9811070561408997,0.4844230115413666,0.8093751668930054,0.043067026883363724,0.9712174534797668,0.5340527892112732,0.9189808368682861,0.21962574124336243,0.946273684501648,0.4757632315158844,0.9024348855018616,0.20434363186359406,0.9069564342498779,0.6056897640228271,0.6369225382804871,-0.050080735236406326,0.972310483455658,0.4538138508796692,0.6276785731315613,-0.09934032708406448,0.9441602826118469,178.2548531159034,0.5224759876728058,0.6257081031799316,126.76584227049133,133.88314248493512,0.7748511978550199,-0.0005787591463779744,0.004819063386944182,-0.02536784927371743,-0.0033458192662217125,-178.26999444710972,1.0886552614310527,43,1762115165.1538472
0.5395804047584534,0.25319230556488037,-0.19082295894622803,0.9999939799308777,0.5825576782226562,0.36535245180130005,-0.07462595403194427,0.9999809861183167,0.47638899087905884,0.36191320419311523,-0.09661558270454407,0.9999318718910217,0.5524544715881348,0.628265380859375,0.002734988462179899,0.9998735785484314,0.49247533082962036,0.6234972476959229,-0.0029176746029406786,0.9997889995574951,0.5401226282119751,0.8088776469230652,0.028472255915403366,0.9809232354164124,0.4845804274082184,0.808505654335022,0.04404512047767639,0.9710050225257874,0.5398833751678467,0.918067991733551,0.21713784337043762,0.9468201398849487,0.47595930099487305,0.9033429622650146,0.19895416498184204,0.9092336893081665,0.6063920259475708,0.6371231079101562,-0.046503301709890366,0.9746734499931335,0.4540639817714691,0.627755880355835,-0.09702681005001068,0.9475651383399963,178.4691690600094,0.5224649012088776,0.6258813142776489,128.07196072375757,135.76162022896438,0.7696897536377261,-0.0001717781439094489,0.0026838026139831103,0.006305927810983998,-0.033084591689165464,-178.14459901080755,1.581614367926817,44,1762115165.2183867
0.5394858121871948,0.2541291415691376,-0.1806645542383194,0.9999944567680359,0.5804640650749207,0.36462074518203735,-0.07346358895301819,0.9999823570251465,0.47528076171875,0.36198699474334717,-0.0865878090262413,0.9999328851699829,0.5523957014083862,0.6284748315811157,0.002390176523476839,0.9998765587806702,0.49223557114601135,0.6241991519927979,-0.0025630276650190353,0.999792218208313,0.5402162075042725,0.8044244647026062,0.02444380335509777,0.9812454581260681,0.48469090461730957,0.8079588413238525,0.043509095907211304,0.9715756773948669,0.5395533442497253,0.906558632850647,0.21207349002361298,0.9490016102790833,0.4759146273136139,0.9046675562858582,0.19297610223293304,0.9136705994606018,0.6077975034713745,0.6372700929641724,-0.047012776136398315,0.976950466632843,0.45398616790771484,0.627633810043335,-0.09102137386798859,0.9507480263710022,178.7897625857696,0.5223156362771988,0.6263369917869568,125.62238334542282,137.01855961515804,0.7564876718954584,-0.0019037645770932478,0.005811831962415046,-0.02209021491127865,0.03989571698239486,-178.56563490919552,1.1771410637002047,45,1762115165.2967918
0.5389171242713928,0.2550700008869171,-0.177286759018898,0.9999949932098389,0.5775569677352905,0.36315205693244934,-0.0727536603808403,0.999983549118042,0.47340908646583557,0.36245134472846985,-0.08735212683677673,0.9999353289604187,0.5519037246704102,0.6285127997398376,0.0023123412393033504,0.9998798966407776,0.49177661538124084,0.6243565678596497,-0.002478856360539794,0.9997993111610413,0.540207028388977,0.8015022277832031,0.03588172048330307,0.9818487763404846,0.4847097396850586,0.8055052161216736,0.047272149473428726,0.9727770090103149,0.5393638610839844,0.899370551109314,0.20950427651405334,0.9518156051635742,0.47613462805747986,0.9056474566459656,0.18318654596805573,0.9191670417785645,0.6080885529518127,0.6374298334121704,-0.04738623648881912,0.9790440201759338,0.45346832275390625,0.6283061504364014,-0.09085717797279358,0.9542436003684998,179.20834240488225,0.5218401700258255,0.6264346837997437,130.30357152703,141.76944255758258,0.748164218585611,-0.007485979624471655,0.001538112147989099,-0.08788919925104334,-0.06728759267158915,-179.61451691880814,0.7734074756835623,46,1762115165.360306
0.5383490324020386,0.2555857300758362,-0.1762886941432953,0.9999954104423523,0.5757052302360535,0.36292293667793274,-0.07100297510623932,0.9999846816062927,0.47185102105140686,0.36282140016555786,-0.08990868180990219,0.999937891960144,0.551759660243988,0.6284485459327698,0.002281440421938896,0.9998832941055298,0.4915269911289215,0.6248028874397278,-0.0024440032429993153,0.9998050928115845,0.5404027700424194,0.7992180585861206,0.035686857998371124,0.9822482466697693,0.48468726873397827,0.8031381964683533,0.05060986801981926,0.973599374294281,0.5392292737960815,0.8967633843421936,0.20481786131858826,0.9533759355545044,0.4761035442352295,0.9046390056610107,0.185295969247818,0.9225562810897827,0.6075682044029236,0.6374895572662354,-0.05067874863743782,0.9809553623199463,0.45217496156692505,0.6294205784797668,-0.09234758466482162,0.9576807022094727,179.53626270603192,0.5216433256864548,0.6266257166862488,130.96372902135224,143.59454997526677,0.7449919114356849,-0.0024818734932153357,0.0024086009222574266,0.06309329698839335,0.010975388075189663,-179.94398289854965,0.4374939378946145,47,1762115165.4396188
0.5362239480018616,0.25599634647369385,-0.18496564030647278,0.9999957084655762,0.5747019648551941,0.36435967683792114,-0.08313321322202682,0.9999852776527405,0.4709397256374359,0.36287379264831543,-0.10034537315368652,0.9999396204948425,0.5516748428344727,0.6284945011138916,0.0020760647021234035,0.9998828768730164,0.49144816398620605,0.6258323788642883,-0.0022285133600234985,0.9998081922531128,0.5407408475875854,0.7990292310714722,0.04265737533569336,0.9828134179115295,0.4845591187477112,0.8025314211845398,0.056160818785429,0.9747563004493713,0.539188027381897,0.8995223045349121,0.2053745537996292,0.9555245041847229,0.4760553240776062,0.9046755433082581,0.19032979011535645,0.9268832206726074,0.6068906784057617,0.6395296454429626,-0.06201740354299545,0.9825440645217896,0.45042991638183594,0.630649209022522,-0.09695025533437729,0.9600189924240112,179.7262177004913,0.5215615034103394,0.62716343998909,135.01065320480882,145.591188742438,0.7515424857920575,-0.0012908288385878601,0.008483126838332092,0.01878992935946168,0.09583176618257179,-179.17957558669147,0.2504006469133864,48,1762115165.5030062
0.5354443192481995,0.2559731602668762,-0.20007768273353577,0.9999960064888,0.5740863084793091,0.36517736315727234,-0.09016254544258118,0.9999857544898987,0.4703323245048523,0.3635198473930359,-0.10676727443933487,0.9999404549598694,0.5514677166938782,0.6287540793418884,0.002063441090285778,0.9998825192451477,0.4912685453891754,0.6269940137863159,-0.0022145595867186785,0.9998104572296143,0.5409695506095886,0.7987565994262695,0.05004231259226799,0.9831276535987854,0.48430895805358887,0.8024724125862122,0.057455457746982574,0.9756553173065186,0.538678765296936,0.9029555320739746,0.21943283081054688,0.9571616053581238,0.47526293992996216,0.9046238660812378,0.19552907347679138,0.9304624795913696,0.6065564155578613,0.6405825614929199,-0.06931863725185394,0.9839621186256409,0.4494655132293701,0.6312685608863831,-0.10264623165130615,0.96183180809021,179.81710983130785,0.5213681310415268,0.6278740465641022,137.30006655611612,145.2988136425462,0.7658857924794564,-0.0024436880274539695,0.008980087435711251,-0.014568928407259629,0.006280197472830145,-179.08475244773877,0.14837287819320727,49,1762115165.5821376
0.5344423055648804,0.256319522857666,-0.2070019543170929,0.9999962449073792,0.5739156603813171,0.3658924102783203,-0.09258423745632172,0.9999860525131226,0.4696303904056549,0.36395561695098877,-0.11112929880619049,0.9999426603317261,0.5512200593948364,0.6290945410728455,0.0021181530319154263,0.9998743534088135,0.49097996950149536,0.6276459693908691,-0.0022597825154662132,0.9998064041137695,0.5413625836372375,0.7990455031394958,0.0432291142642498,0.9832448363304138,0.48399004340171814,0.8022051453590393,0.05425073578953743,0.976396381855011,0.5386413335800171,0.9042086005210876,0.21388821303844452,0.9575648903846741,0.47507351636886597,0.9065314531326294,0.17889678478240967,0.9328099489212036,0.6057131290435791,0.6408824920654297,-0.07241905480623245,0.9851462244987488,0.4467613697052002,0.6334614157676697,-0.10737226903438568,0.9638780951499939,179.85363008934317,0.5211000144481659,0.6283702552318573,135.20428361829175,147.88574388890538,0.7646924657890787,-0.003382458214149289,0.006259982133672613,-0.011843171992387037,-0.03431582658461953,-178.93602109440204,0.11563983401265115,50,1762115165.6614044
0.5325967669487,0.2543448209762573,-0.2877712845802307,0.9999961256980896,0.5733769536018372,0.36626893281936646,-0.13851132988929749,0.9999850392341614,0.4692400097846985,0.36376091837882996,-0.16027945280075073,0.9999432563781738,0.5508751273155212,0.6292842626571655,0.002274615690112114,0.9998664855957031,0.49058395624160767,0.6278485059738159,-0.002425883896648884,0.9998003244400024,0.5414713621139526,0.7991167902946472,0.040349654853343964,0.9833771586418152,0.4836152493953705,0.8016489744186401,0.05497352033853531,0.9768062233924866,0.5384012460708618,0.9073476195335388,0.25671395659446716,0.9576309323310852,0.4748569428920746,0.9053258299827576,0.2438456118106842,0.934597909450531,0.6019909381866455,0.6411757469177246,-0.08680354803800583,0.9855597019195557,0.44414228200912476,0.6393342614173889,-0.14002683758735657,0.9647408127784729,179.87413934071404,0.5207295417785645,0.6285663843154907,129.1893332215322,137.07297034777412,0.8457344235803697,-0.003892423692088025,0.0020606580578900564,-0.005358024684010348,-0.04412079449994634,-178.6203659947385,0.09787307468239004,51,1762115165.7565823
0.5301908254623413,0.2523826062679291,-0.2592374384403229,0.9999956488609314,0.5734618306159973,0.3665403127670288,-0.1240321546792984,0.9999833703041077,0.4692506790161133,0.3630911409854889,-0.1407839059829712,0.9999423027038574,0.5503703951835632,0.6296112537384033,0.0023018885403871536,0.99985671043396,0.4899683892726898,0.627744197845459,-0.002459119074046612,0.9997914433479309,0.5416790246963501,0.8003897666931152,0.04023256525397301,0.9836364984512329,0.4830838739871979,0.8004236221313477,0.053375493735075,0.9772565960884094,0.5378206372261047,0.9118291139602661,0.24204261600971222,0.9583231806755066,0.4748397469520569,0.904875636100769,0.23002378642559052,0.9365425109863281,0.5963963270187378,0.639252245426178,-0.08240956813097,0.9858551621437073,0.4397425651550293,0.6388176679611206,-0.12429346144199371,0.9651753902435303,179.7422828644537,0.5201693922281265,0.6286777257919312,131.4226657568388,138.5451533642026,0.8222886803687839,-0.008922366322345434,0.0017735075193680693,-0.08011965856698759,-0.0045738897627408655,-178.10432120957256,0.1961024686121254,52,1762115165.8193626
0.5282138586044312,0.25094613432884216,-0.2687828838825226,0.9999948740005493,0.5736137628555298,0.3666176199913025,-0.12834173440933228,0.9999815821647644,0.4691708981990814,0.3632771670818329,-0.13905248045921326,0.9999402165412903,0.549837052822113,0.6296157240867615,0.002019238891080022,0.9998462200164795,0.48949021100997925,0.6268780827522278,-0.002186622004956007,0.9997807145118713,0.5419243574142456,0.8007065653800964,0.03899183124303818,0.9840376377105713,0.48273152112960815,0.7986468076705933,0.05718354135751724,0.9777076840400696,0.5376557111740112,0.9125334024429321,0.24834737181663513,0.9590880870819092,0.47482743859291077,0.903486967086792,0.2472558319568634,0.9381066560745239,0.5924317240715027,0.6316452622413635,-0.08858136832714081,0.9858602285385132,0.43626052141189575,0.6383614540100098,-0.1193632259964943,0.9655665159225464,179.62382872881741,0.5196636319160461,0.6282469034194946,130.3052899567763,137.9756364138117,0.8361073367485817,-0.005597632769166627,-0.004768237783864516,0.03679734657207265,-0.07240245428964509,-178.16810241557212,0.28398145748181863,53,1762115165.9097152
0.5274291634559631,0.25018906593322754,-0.27152055501937866,0.9999942183494568,0.573694109916687,0.3666490316390991,-0.1290963590145111,0.9999802112579346,0.4690209925174713,0.36341917514801025,-0.14026829600334167,0.999938428401947,0.549586296081543,0.6296411156654358,0.0019299188861623406,0.9998388290405273,0.4892636239528656,0.6265171766281128,-0.002102113561704755,0.9997730851173401,0.5421724915504456,0.8008724451065063,0.039619576185941696,0.984446108341217,0.4825391173362732,0.7974935173988342,0.05964314192533493,0.9781625270843506,0.5376332998275757,0.9126693606376648,0.2539774775505066,0.9599713683128357,0.47482219338417053,0.9020160436630249,0.2537863850593567,0.9397343397140503,0.591096043586731,0.6287657022476196,-0.09026045352220535,0.9860009551048279,0.4351973533630371,0.6380783915519714,-0.11920677125453949,0.9661439657211304,179.57905564061122,0.5194249600172043,0.6280791461467743,129.9642356969504,138.1800122945595,0.8416342283353249,-0.0035393243529910903,-0.0024877139018526376,0.030523162293871867,0.033818450149971535,-178.23260784913674,0.3153161955912458,54,1762115165.9771495
0.5265175700187683,0.24934890866279602,-0.3088858723640442,0.999993085861206,0.5737653970718384,0.3664010763168335,-0.14057332277297974,0.9999781250953674,0.4690361022949219,0.3633113503456116,-0.1511167734861374,0.999936044216156,0.5493782162666321,0.6296604871749878,0.0016037210589274764,0.9998316764831543,0.4889009892940521,0.6264621019363403,-0.0017709906678646803,0.9997654557228088,0.5421818494796753,0.8005365133285522,0.04924475774168968,0.985004186630249,0.48234835267066956,0.7955250144004822,0.07228367030620575,0.9789189100265503,0.5375027060508728,0.9112743139266968,0.28930917382240295,0.9615552425384521,0.4748264253139496,0.8981224298477173,0.2942050099372864,0.9421530365943909,0.5896734595298767,0.6202784776687622,-0.10121262073516846,0.9854090213775635,0.4334637224674225,0.6292860507965088,-0.14045554399490356,0.966147243976593,179.50779450451327,0.5191396027803421,0.6280612945556641,130.3471026209517,138.48820052946033,0.8891957794713856,-0.0044928752149072425,-0.00028106864268714763,-0.015013409439921188,0.03474305366148957,-178.31014879650397,0.37058654215471987,55,1762115166.0406628
0.5260255932807922,0.24791757762432098,-0.2939434349536896,0.9999926686286926,0.5738179087638855,0.3655487596988678,-0.13599438965320587,0.9999774098396301,0.4688534140586853,0.3629896342754364,-0.14517109096050262,0.9999338388442993,0.5491325855255127,0.6296523809432983,0.001137692597694695,0.9998286366462708,0.4883621335029602,0.6259748339653015,-0.0012971200048923492,0.9997621178627014,0.5421003103256226,0.7985934019088745,0.05868939682841301,0.9855524897575378,0.48226791620254517,0.7931976318359375,0.0788632184267044,0.9796348214149475,0.537422776222229,0.9064974188804626,0.2890661060810089,0.9631680846214294,0.4748220443725586,0.896352231502533,0.29064345359802246,0.9443856477737427,0.5891293287277222,0.6179872751235962,-0.09693914651870728,0.9855971932411194,0.4308807849884033,0.6188040971755981,-0.13590751588344574,0.9665082693099976,179.43730923075023,0.5187473595142365,0.6278136074542999,133.9137590224288,141.60025812589913,0.8765205159672143,-0.006148348917341226,-0.0038824547241593232,-0.025949278994901254,-0.05645113664993562,-178.60335588945057,0.4269221024466642,56,1762115166.1044593
0.5251058340072632,0.2474350780248642,-0.2826499342918396,0.9999924898147583,0.5738592743873596,0.36448079347610474,-0.13340727984905243,0.9999765157699585,0.46847209334373474,0.361908882856369,-0.14285141229629517,0.9999336004257202,0.5486212968826294,0.6295627355575562,-0.0006559511530213058,0.9998210668563843,0.48780399560928345,0.6257650256156921,0.0004920673673041165,0.9997578263282776,0.5418398380279541,0.796016275882721,0.06495516747236252,0.9860155582427979,0.48141542077064514,0.7917193174362183,0.08473365753889084,0.9803929924964905,0.5374348759651184,0.89952152967453,0.2946438193321228,0.964662492275238,0.47481751441955566,0.8960967063903809,0.2892906367778778,0.9467526078224182,0.5885700583457947,0.6155514121055603,-0.09743187576532364,0.9856523871421814,0.42918461561203003,0.6110705733299255,-0.13091079890727997,0.966946005821228,179.3602670480785,0.5182126462459564,0.6276638805866241,135.77266374460856,143.96196366312705,0.8680619228308978,-0.00845338248375473,-0.0023670601715741705,-0.03644070856416853,0.023957157090951333,-178.60200853427702,0.5366784060505603,57,1762115166.1677136
0.524351954460144,0.2467033416032791,-0.30962297320365906,0.9999922513961792,0.5738622546195984,0.3644029498100281,-0.14791229367256165,0.9999756217002869,0.4677378535270691,0.3614630699157715,-0.1464182436466217,0.9999324679374695,0.5480040907859802,0.6292586922645569,-0.0016102135414257646,0.9998119473457336,0.48668307065963745,0.6251183152198792,0.0014525114092975855,0.9997504949569702,0.5413714647293091,0.7943010330200195,0.0637332946062088,0.9864687919616699,0.480319082736969,0.7906807065010071,0.08621527254581451,0.9811313152313232,0.5375398397445679,0.8919976353645325,0.31455370783805847,0.9660882949829102,0.4747186601161957,0.8953959941864014,0.3061549663543701,0.9490476250648499,0.5880210399627686,0.6159878373146057,-0.11481799185276031,0.9853483438491821,0.42744940519332886,0.6084592342376709,-0.1378519982099533,0.9667056798934937,179.2506114476492,0.5173435807228088,0.627188503742218,132.8788595367208,142.57946649543152,0.8962725515011909,-0.010959057523307869,-0.005994579285836693,-0.03159696957454426,-0.045743605725055106,-178.41318641156863,0.7327657215773374,58,1762115166.2470148
0.5238410234451294,0.2462533712387085,-0.2955440580844879,0.9999918937683105,0.5738341808319092,0.3642328381538391,-0.14067894220352173,0.9999744892120361,0.4674549996852875,0.3613024055957794,-0.13501682877540588,0.9999301433563232,0.5476389527320862,0.6291911005973816,-0.0023357770405709743,0.9998025298118591,0.48623672127723694,0.624810516834259,0.002175454283133149,0.9997413158416748,0.5410986542701721,0.7942702174186707,0.06058578938245773,0.9868364334106445,0.4796781539916992,0.7903860211372375,0.08180385082960129,0.981770396232605,0.5373721122741699,0.8937519788742065,0.29238781332969666,0.9673303365707397,0.47451692819595337,0.8955228328704834,0.28546321392059326,0.9510183930397034,0.58796226978302,0.6170254945755005,-0.10629316419363022,0.9851416945457458,0.4266875684261322,0.6071812510490417,-0.12754499912261963,0.9661847352981567,179.19628798518414,0.5169378370046616,0.6270008087158203,134.0905573517609,142.9953203039807,0.8731132924479975,-0.005512103996553746,-0.0025498718990998926,0.07399787836756026,0.04679699155933196,-178.42206938292318,0.8339370253017344,59,1762115166.3206244
0.5228127241134644,0.24621060490608215,-0.3487750291824341,0.9999916553497314,0.5731912851333618,0.36388978362083435,-0.16190005838871002,0.9999744892120361,0.466696560382843,0.359173446893692,-0.16059570014476776,0.9999297261238098,0.546382486820221,0.6264441609382629,-0.0022946298122406006,0.9997904896736145,0.4853738844394684,0.621807336807251,0.0021433483343571424,0.9997238516807556,0.5398844480514526,0.7942506670951843,0.058664001524448395,0.9870373606681824,0.47832241654396057,0.7905112504959106,0.07941506803035736,0.9819668531417847,0.5374006032943726,0.8939977288246155,0.2998005151748657,0.9674921631813049,0.47407665848731995,0.8977431654930115,0.3012973666191101,0.9510786533355713,0.5883216261863708,0.6138351559638977,-0.1358589231967926,0.9851330518722534,0.42466098070144653,0.60761958360672,-0.15966379642486572,0.9660136103630066,179.11296203338293,0.5158781856298447,0.624125748872757,132.42577651236107,140.40001738865683,0.9186789719020027,-0.01534062080415296,-0.04162237117778829,-0.1422878816522814,-0.5656543364637008,-177.46419619582375,1.2079551455325779,60,1762115166.3896992
0.5199572443962097,0.24647857248783112,-0.3273843228816986,0.9999916553497314,0.5698636770248413,0.3639174997806549,-0.15232546627521515,0.9999743700027466,0.4641374945640564,0.35865625739097595,-0.15364228188991547,0.999930202960968,0.5429242253303528,0.6256617903709412,-0.002331422409042716,0.9997757077217102,0.4819696843624115,0.6209664344787598,0.0021977019496262074,0.9997138381004333,0.5356265306472778,0.7923809289932251,0.0626409500837326,0.9867488741874695,0.4750366806983948,0.79060959815979,0.07934503257274628,0.9818934798240662,0.5332392454147339,0.8933583498001099,0.3258726894855499,0.9662007093429565,0.472147136926651,0.9021755456924438,0.2984696924686432,0.9509100914001465,0.5876265168190002,0.6127709746360779,-0.14016620814800262,0.9853307008743286,0.4205091595649719,0.607068657875061,-0.16307243704795837,0.9669053554534912,179.0043875575737,0.5124469548463821,0.6233141124248505,132.259129244434,141.42083733655596,0.9129654158771553,-0.05469792216973065,-0.012938455632793763,-0.6274024519949678,0.4572559174874206,-177.15114537524065,1.7252428310778896,61,1762115166.4524298
0.5161846876144409,0.24651362001895905,-0.33852773904800415,0.9999917149543762,0.5676363706588745,0.3639015555381775,-0.16133353114128113,0.9999732375144958,0.46113818883895874,0.35766008496284485,-0.16254624724388123,0.9999321103096008,0.5398260951042175,0.6251541376113892,-0.0022997744381427765,0.9997588396072388,0.47807255387306213,0.6193450689315796,0.0021675103344023228,0.9997082948684692,0.5315493941307068,0.7897700071334839,0.0649167150259018,0.9866594076156616,0.4714863896369934,0.7891972064971924,0.07834848761558533,0.9823164343833923,0.5318685173988342,0.8710213303565979,0.34183430671691895,0.966414213180542,0.46893206238746643,0.902103841304779,0.3025437891483307,0.9526500105857849,0.5865089297294617,0.6134310960769653,-0.145178884267807,0.9853629469871521,0.41774052381515503,0.6053542494773865,-0.1690874993801117,0.9679924249649048,178.80855002777537,0.5089493244886398,0.6222496032714844,128.509660053247,140.87054927248093,0.9200317920844334,-0.04410462658701646,-0.013423310614783792,0.13357996649568268,-0.006113953088893085,-176.6459395898387,4.86138528760793,62,1762115166.5317328
0.51444411277771,0.24583610892295837,-0.3357252776622772,0.9999921321868896,0.5653549432754517,0.36118537187576294,-0.15996262431144714,0.9999738335609436,0.45869144797325134,0.3553335964679718,-0.16305643320083618,0.9999349117279053,0.5377284288406372,0.6231388449668884,-0.002289350377395749,0.9997461438179016,0.4758566915988922,0.6174415349960327,0.002154253888875246,0.9997048377990723,0.5285519957542419,0.7885463237762451,0.06550098955631256,0.98676997423172,0.46884530782699585,0.7879585027694702,0.07764532417058945,0.9827118515968323,0.5302571058273315,0.8585978150367737,0.3437483608722687,0.9669549465179443,0.46623557806015015,0.9009325504302979,0.3016071021556854,0.9545730352401733,0.5860355496406555,0.6141065955162048,-0.14887219667434692,0.9859936833381653,0.4153825640678406,0.6047085523605347,-0.17624402046203613,0.9694086909294128,178.8564182416691,0.5067925602197647,0.6202901899814606,126.33800365542272,140.6285441683632,0.9141241496069739,-0.027208273053474376,-0.02471862715315646,0.21315291948360243,-0.142494041206347,-176.85978547035776,11.538764138061893,63,1762115166.6110015
0.514140248298645,0.24587059020996094,-0.3244507908821106,0.9999926090240479,0.5640592575073242,0.36013492941856384,-0.1554810255765915,0.9999752044677734,0.4581548571586609,0.35414937138557434,-0.15858283638954163,0.9999380111694336,0.5363806486129761,0.6206678748130798,-0.0031028357334434986,0.9997438788414001,0.47490018606185913,0.6159009337425232,0.0029530911706387997,0.9997024536132812,0.5281884074211121,0.7869539856910706,0.05400826781988144,0.9870584607124329,0.4677738547325134,0.7870855331420898,0.07454492896795273,0.9829987287521362,0.527440071105957,0.8637853860855103,0.31427356600761414,0.9677699208259583,0.46491122245788574,0.9005777835845947,0.2833978235721588,0.9560173153877258,0.5855262875556946,0.6136722564697266,-0.14194466173648834,0.9866349101066589,0.41498643159866333,0.6032357811927795,-0.1649935096502304,0.9709185361862183,178.80076986620136,0.5056404173374176,0.6182844042778015,125.36578910929175,141.19833724958255,0.8908986766236532,-0.01817252369133574,-0.03163686447051745,0.14251910233384296,-0.10912000019989651,-176.76516984165136,3.026120963815917,64,1762115166.6744018
0.514003574848175,0.24468199908733368,-0.28789058327674866,0.9999931454658508,0.5629301071166992,0.3586982786655426,-0.14832398295402527,0.9999763369560242,0.45778435468673706,0.35233074426651,-0.1456461250782013,0.999940812587738,0.5356615781784058,0.6178582310676575,-0.003071596845984459,0.9997308850288391,0.4747169613838196,0.6128684282302856,0.002909615868702531,0.9996973276138306,0.5264829397201538,0.7839170098304749,0.04989565163850784,0.9870120882987976,0.4671134948730469,0.7843495011329651,0.06150534003973007,0.9831123948097229,0.5241794586181641,0.8669030666351318,0.2939063310623169,0.9678509831428528,0.4628223776817322,0.8993601202964783,0.2506617605686188,0.9570431113243103,0.5855768322944641,0.6133823394775391,-0.13622649013996124,0.9874417781829834,0.41495388746261597,0.6037154793739319,-0.14354027807712555,0.9721599817276001,178.860632380277,0.5051892697811127,0.6153633296489716,126.4459687856913,140.16355877238277,0.8496080617392483,-0.00718486820622252,-0.046520336717723626,0.17498677639419033,-0.2370306234682755,-176.53445031771932,1.566856398047144,65,1762115166.737193
0.5136486887931824,0.23599828779697418,-0.34892332553863525,0.9999933838844299,0.5616790652275085,0.3522641360759735,-0.1678217202425003,0.9999771118164062,0.45699581503868103,0.3462948799133301,-0.17089241743087769,0.9999412298202515,0.5343114137649536,0.6111781597137451,-0.0030617599841207266,0.9997251033782959,0.47375398874282837,0.6060882806777954,0.0029002847149968147,0.9996914863586426,0.5254083871841431,0.7819409966468811,0.049431126564741135,0.987238347530365,0.46619677543640137,0.779918909072876,0.06256197392940521,0.9834887385368347,0.5243728160858154,0.8677601218223572,0.3071236312389374,0.9686076641082764,0.462557852268219,0.8982543349266052,0.26054292917251587,0.9586470127105713,0.5848167538642883,0.6123660802841187,-0.15580816566944122,0.9879993200302124,0.41487425565719604,0.6024423837661743,-0.17765624821186066,0.9725584983825684,178.82825361311967,0.504032701253891,0.6086332201957703,125.46837206964683,139.80058758002647,0.9052120520098679,-0.013726111585845496,-0.07987268472669447,-0.07763122930083746,-0.3958244061169576,-176.73640989744928,2.268681870174786,66,1762115166.8214536
0.5050027370452881,0.2239823192358017,-0.3788643181324005,0.999993622303009,0.5557957291603088,0.34130075573921204,-0.19305071234703064,0.999977171421051,0.44896483421325684,0.3345376253128052,-0.19775976240634918,0.9999431371688843,0.5257012844085693,0.5997830629348755,-0.0039332350715994835,0.9997379183769226,0.4640963673591614,0.5938119888305664,0.0037374752573668957,0.9997041821479797,0.5180363655090332,0.7698137760162354,0.06608401238918304,0.9876924157142639,0.4591853618621826,0.7679714560508728,0.0945214182138443,0.98406583070755,0.5178524851799011,0.8685417771339417,0.31228792667388916,0.9705047011375427,0.4563201367855072,0.8859602808952332,0.31820258498191833,0.960976779460907,0.578498899936676,0.6058551669120789,-0.18747836351394653,0.9880872964859009,0.41130495071411133,0.5946581363677979,-0.21561431884765625,0.9734702110290527,178.34464106018933,0.49489882588386536,0.596797525882721,134.18506768978278,145.3383361235569,0.9533462677129703,-0.1225763257418203,-0.1588346526226875,-1.4607665166130048,-1.059667173672771,-176.3776171336729,4.904095275553067,67,1762115166.8959694
