nose_x,nose_y,nose_z,nose_visibility,left_shoulder_x,left_shoulder_y,left_shoulder_z,left_shoulder_visibility,right_shoulder_x,right_shoulder_y,right_shoulder_z,right_shoulder_visibility,left_hip_x,left_hip_y,left_hip_z,left_hip_visibility,right_hip_x,right_hip_y,right_hip_z,right_hip_visibility,left_knee_x,left_knee_y,left_knee_z,left_knee_visibility,right_knee_x,right_knee_y,right_knee_z,right_knee_visibility,left_ankle_x,left_ankle_y,left_ankle_z,left_ankle_visibility,right_ankle_x,right_ankle_y,right_ankle_z,right_ankle_visibility,left_wrist_x,left_wrist_y,left_wrist_z,left_wrist_visibility,right_wrist_x,right_wrist_y,right_wrist_z,right_wrist_visibility,trunk_lateral_inclination,center_mass_x,center_mass_y,left_knee_angle,right_knee_angle,person_height,center_mass_velocity_x,center_mass_velocity_y,center_mass_acceleration_x,center_mass_acceleration_y,body_orientation,torso_leg_ratio,frame,timestamp
0.47962483763694763,0.351487934589386,0.11638574302196503,0.9886294603347778,0.44771629571914673,0.44145333766937256,-0.013680769130587578,0.9995648264884949,0.525416374206543,0.43607789278030396,0.021960604935884476,0.998053789138794,0.4813935160636902,0.5912492871284485,-0.019149787724018097,0.999988317489624,0.5143876671791077,0.5910699963569641,0.01900589093565941,0.9999687671661377,0.46355801820755005,0.6257222294807434,0.0670168474316597,0.8042254447937012,0.503239631652832,0.6154276132583618,0.08358650654554367,0.22775687277317047,0.4723828434944153,0.7342053651809692,-0.04894073307514191,0.9711658358573914,0.4985499382019043,0.713468074798584,-0.014331688173115253,0.8434620499610901,0.45549511909484863,0.5421394109725952,0.07648306339979172,0.20267030596733093,0.5407978296279907,0.5552058219909668,0.15490296483039856,0.05179433524608612,-175.75021527833442,0.4978905916213989,0.5911596417427063,64.75971549845714,66.38593248200235,0.40073462602359666,0.0,0.0,0.0,0.0,-3.957529454443015,5.474448051273149,0,1762115173.125451
0.4805152416229248,0.35000818967819214,0.24670560657978058,0.989660382270813,0.4466732144355774,0.4403921365737915,0.08016695827245712,0.9996041655540466,0.5283122658729553,0.4355678856372833,0.11469008773565292,0.998210608959198,0.4707961678504944,0.5995755791664124,-0.02019118145108223,0.9999892711639404,0.5160667300224304,0.5997669100761414,0.019835395738482475,0.9999709725379944,0.4554119110107422,0.6400365829467773,0.14522358775138855,0.7893944978713989,0.5112925171852112,0.6168330907821655,0.20982816815376282,0.20895391702651978,0.47753238677978516,0.7342647910118103,-0.08387608081102371,0.9704104661941528,0.4976891577243805,0.6994526982307434,-0.011677421629428864,0.8358114361763,0.4579099118709564,0.5195357203483582,0.10397078096866608,0.2093837857246399,0.526319146156311,0.5433580875396729,0.16032886505126953,0.05023692175745964,-177.8965460235897,0.4934314489364624,0.5996712446212769,35.95432081198617,26.01291232222922,0.4704779859593962,-0.06898981180237405,0.1316876184995832,-1.0673787471760938,2.037410475264575,-3.381814865022082,1.3942077012075142,1,1762115173.190086
0.48179441690444946,0.3478880822658539,0.27034157514572144,0.9905661344528198,0.4462931156158447,0.43985459208488464,0.09777918457984924,0.9996389746665955,0.5294343829154968,0.43493783473968506,0.13968907296657562,0.9983605742454529,0.47108641266822815,0.5995053052902222,-0.023113267496228218,0.9999902248382568,0.5188597440719604,0.601704478263855,0.022608716040849686,0.9999731183052063,0.4520992636680603,0.6434394121170044,0.1749393194913864,0.774074375629425,0.5210033655166626,0.6050567030906677,0.259902685880661,0.19268234074115753,0.4769105315208435,0.7343739867210388,-0.022076638415455818,0.9688286781311035,0.5015910863876343,0.6781120300292969,0.07621997594833374,0.8258584141731262,0.4600714147090912,0.5192610621452332,0.13364481925964355,0.20604683458805084,0.524979829788208,0.5464411973953247,0.2607942521572113,0.047668520361185074,-177.50578696373304,0.4949730783700943,0.6006048917770386,37.096076762423394,23.030976009265416,0.4331906026208289,0.024281212096177604,0.014705274897765293,1.469051812518225,-1.8425135344048575,-3.384381070008716,2.6326028318314894,2,1762115173.2535765
0.4824029505252838,0.3462432324886322,0.28525087237358093,0.9913856387138367,0.4461134970188141,0.4394015967845917,0.11329321563243866,0.9996702671051025,0.5305271148681641,0.4345042407512665,0.14494703710079193,0.9984917640686035,0.4700986444950104,0.5994210243225098,-0.022788312286138535,0.9999909400939941,0.5193706750869751,0.6039305329322815,0.022340426221489906,0.9999744892120361,0.45007413625717163,0.6422154903411865,0.16224682331085205,0.7548693418502808,0.5184553861618042,0.6133215427398682,0.23412616550922394,0.17818427085876465,0.4740890562534332,0.7346968650817871,-0.08646956831216812,0.9677157402038574,0.5015851855278015,0.6850697994232178,0.01341322809457779,0.8202541470527649,0.46073850989341736,0.5173910856246948,0.1135048046708107,0.21309374272823334,0.5248835682868958,0.5442651510238647,0.2374519407749176,0.046039991080760956,-177.77001314311138,0.49473465979099274,0.6016757786273956,33.26749175263241,21.000094035476934,0.4855979865533956,-0.003756828034953528,0.01687426272249814,-0.4418032168747843,0.034177345985935456,-3.3203605479728124,1.7950484753542175,3,1762115173.3170393
0.48286622762680054,0.34578797221183777,0.22128434479236603,0.9920952320098877,0.4457165598869324,0.4393898546695709,0.06341306865215302,0.9996969699859619,0.5311514139175415,0.4343375265598297,0.10268429666757584,0.9985933303833008,0.47086676955223083,0.6029478907585144,-0.024689001962542534,0.9999914169311523,0.5197094678878784,0.606876015663147,0.024231646209955215,0.9999750256538391,0.44751715660095215,0.6407329440116882,0.16911403834819794,0.7408536076545715,0.5160881876945496,0.6136422753334045,0.2512206435203552,0.1659756898880005,0.46797648072242737,0.7351670861244202,0.019134122878313065,0.9660106301307678,0.5015523433685303,0.689591109752655,0.11470755189657211,0.8107426166534424,0.4620041251182556,0.5203291773796082,0.1391628086566925,0.20651867985725403,0.5254179239273071,0.5415673851966858,0.2725512385368347,0.0436151921749115,-177.66438956213713,0.4952881187200546,0.6049119532108307,42.9240968160639,31.38526529024203,0.3977697185357455,0.006970593710963775,0.040758323724416255,0.13510758365339412,0.30081018964575873,-3.3843369870545748,2.3134436550012065,4,1762115173.3964384
0.4829832911491394,0.3448643982410431,0.18440088629722595,0.9927531480789185,0.44482892751693726,0.4394896328449249,0.018201682716608047,0.9997216463088989,0.5311892032623291,0.43359336256980896,0.07112397253513336,0.9986857175827026,0.4683162569999695,0.609282374382019,-0.02613130584359169,0.999991774559021,0.5194932222366333,0.6091212630271912,0.025678103789687157,0.9999752640724182,0.4481140971183777,0.6412134766578674,0.17496278882026672,0.7264857888221741,0.5150095224380493,0.6048014163970947,0.25734665989875793,0.15409472584724426,0.46708178520202637,0.7367680668830872,0.057099759578704834,0.9629759192466736,0.5008665323257446,0.6874209642410278,0.15718986093997955,0.7945519089698792,0.46222180128097534,0.5219554901123047,0.13027025759220123,0.19794176518917084,0.5253896117210388,0.5298565626144409,0.2673594355583191,0.041497066617012024,-178.04433320281436,0.4939047396183014,0.6092018187046051,47.7599062919966,39.07985612191315,0.3752698258200454,-0.017445317197835236,0.05409801563439567,-0.30790063977275806,0.16822225837881627,-3.905822753565963,2.4429430901501226,5,1762115173.4757364
0.4835313856601715,0.3432046175003052,0.2064787596464157,0.9932991862297058,0.44477367401123047,0.43949469923973083,0.03992445021867752,0.9997432231903076,0.531396746635437,0.43287867307662964,0.09055597335100174,0.9987762570381165,0.46850162744522095,0.6130731701850891,-0.025572866201400757,0.9999919533729553,0.5196102857589722,0.6113088130950928,0.02515207603573799,0.9999752640724182,0.44824033975601196,0.6367456316947937,0.18080267310142517,0.704606831073761,0.5153316855430603,0.6039592027664185,0.25654366612434387,0.14476504921913147,0.4675394892692566,0.7334219813346863,0.032096266746520996,0.9591981768608093,0.5018652677536011,0.6885992884635925,0.12079925835132599,0.7879579663276672,0.46185198426246643,0.5142881870269775,0.09627772867679596,0.20213066041469574,0.5242864489555359,0.5178213119506836,0.2687442898750305,0.040608931332826614,-178.05705082241906,0.49405595660209656,0.6121909916400909,39.361347468529196,30.665352756226014,0.3901162619850873,0.002407294948191445,0.04758606292936577,0.31604315684718676,-0.10366686635487045,-4.367610556768327,2.0466223851982606,6,1762115173.5385525
0.4836558401584625,0.3432410657405853,0.17504125833511353,0.9938529133796692,0.44482478499412537,0.43945837020874023,0.007555036339908838,0.9997643828392029,0.5313657522201538,0.43232759833335876,0.06244654580950737,0.9988632202148438,0.46857720613479614,0.6138263940811157,-0.027749130502343178,0.9999921321868896,0.5197356939315796,0.6109084486961365,0.027295883744955063,0.9999751448631287,0.4488670825958252,0.6362738013267517,0.1694420725107193,0.6985391974449158,0.5143888592720032,0.6050967574119568,0.25761088728904724,0.1364416778087616,0.4679437279701233,0.7349972128868103,0.051540374755859375,0.9572238326072693,0.500842273235321,0.6899994015693665,0.15243376791477203,0.7755956649780273,0.46012061834335327,0.5149511098861694,0.09749346971511841,0.20172981917858124,0.5245496034622192,0.5239745378494263,0.24823176860809326,0.040214814245700836,-178.0328955219575,0.49415645003318787,0.6123674213886261,46.15337659174419,38.07495821498567,0.376415153832417,0.0010015611522586807,0.001758375451177755,-0.014010153152638816,-0.4567386243813344,-4.7103963082773195,2.1912929909606995,7,1762115173.6388893
0.48361897468566895,0.3433726727962494,0.18397048115730286,0.9943272471427917,0.4448614716529846,0.438830703496933,0.01203397661447525,0.9997830390930176,0.5312557816505432,0.43200743198394775,0.06669609248638153,0.9989362955093384,0.46834796667099,0.6141078472137451,-0.0325186662375927,0.9999922513961792,0.5196724534034729,0.6112558245658875,0.0320575088262558,0.9999750256538391,0.4480183720588684,0.6352354288101196,0.15761660039424896,0.7006615400314331,0.5128010511398315,0.60528165102005,0.2458065003156662,0.13071008026599884,0.46777790784835815,0.7364445924758911,0.030021226033568382,0.9570721387863159,0.49769139289855957,0.6949868202209473,0.12755629420280457,0.7695116400718689,0.459998220205307,0.5161522626876831,0.11034780740737915,0.1984146684408188,0.524492621421814,0.526322066783905,0.2588796317577362,0.03911823034286499,-178.0770211042798,0.49401021003723145,0.6126818358898163,44.4693916899589,36.351593893044395,0.38691512131870975,-0.0023121534361417806,0.004971106327959198,-0.05239207319348171,0.050795452280801685,-4.515746943695458,2.5587876395188855,8,1762115173.7021377
0.4839094579219818,0.34331297874450684,0.17525842785835266,0.9946421980857849,0.44526076316833496,0.4379584491252899,0.014423562213778496,0.9997996687889099,0.5311983823776245,0.43113288283348083,0.06079056113958359,0.998999834060669,0.46846485137939453,0.6138368844985962,-0.03064381144940853,0.9999924898147583,0.5197435617446899,0.6108541488647461,0.030127476900815964,0.9999750852584839,0.4524729251861572,0.6364489197731018,0.17718812823295593,0.688568115234375,0.5156962871551514,0.6058704257011414,0.24790672957897186,0.12479683011770248,0.47260206937789917,0.7377731204032898,0.056436240673065186,0.9539004564285278,0.4980717599391937,0.6951056718826294,0.1400425136089325,0.7613807320594788,0.45887333154678345,0.506754994392395,0.07380104064941406,0.20782814919948578,0.5250745415687561,0.5202064514160156,0.2457098513841629,0.03904420882463455,-178.10759504759957,0.49410420656204224,0.6123455166816711,46.04544662011825,39.08059768883037,0.38099513798307383,0.0010186522526619314,-0.0036447338843658516,0.03609636340182612,-0.09337095236793902,-4.541164912589753,4.687300729082768,9,1762115173.794413
0.4844263195991516,0.34334275126457214,0.1675506979227066,0.9950084090232849,0.4454672932624817,0.43753671646118164,0.011219908483326435,0.9998152852058411,0.531248927116394,0.43080392479896545,0.05698338896036148,0.9990608096122742,0.4687342643737793,0.6148069500923157,-0.028659220784902573,0.9999926686286926,0.5200300216674805,0.6119901537895203,0.02814684808254242,0.9999751448631287,0.4526306092739105,0.6363688111305237,0.19423061609268188,0.6787132620811462,0.5157672762870789,0.6020722985267639,0.2654743194580078,0.11965401470661163,0.4726502299308777,0.7384593486785889,0.107527956366539,0.950676679611206,0.500078558921814,0.6951313614845276,0.19740119576454163,0.7538279891014099,0.45913583040237427,0.5043135285377502,0.07048201560974121,0.2127791792154312,0.5255798697471619,0.5219595432281494,0.24135403335094452,0.03877037763595581,-178.074958558924,0.4943821430206299,0.613398551940918,54.98549169262652,52.02241468364726,0.3737622165286532,0.0037330041436906387,0.014143466482217995,0.036456846676879456,0.23891585153919886,-4.487805967566969,2.780598792836362,10,1762115173.868867
0.4843558371067047,0.3435710370540619,0.18365660309791565,0.9952686429023743,0.445725679397583,0.43716883659362793,0.014368265867233276,0.99982750415802,0.5312069058418274,0.4306226372718811,0.07189320027828217,0.9991155862808228,0.46865493059158325,0.6173405051231384,-0.02818904258310795,0.9999926686286926,0.5199745297431946,0.6131789684295654,0.027706747874617577,0.9999750852584839,0.45246848464012146,0.6358832716941833,0.18355950713157654,0.6563224196434021,0.5166831612586975,0.6029507517814636,0.26361098885536194,0.113776795566082,0.4729847013950348,0.7386151552200317,0.08771274238824844,0.9413594603538513,0.5019693970680237,0.6985288262367249,0.18051472306251526,0.7369198203086853,0.4579468369483948,0.5068716406822205,0.1192026138305664,0.21038439869880676,0.5259885787963867,0.5278639197349548,0.27720218896865845,0.037510164082050323,-178.15302534655015,0.4943147301673889,0.6152597367763519,51.79160193636569,47.008534189000656,0.3782723268050739,-0.0008105156341371125,0.022377326201369063,-0.05462747290605199,0.09899702669176098,-4.3791949315171115,2.0151556009657825,11,1762115173.9520397
0.4843202531337738,0.34363657236099243,0.17420169711112976,0.9956220388412476,0.44577503204345703,0.4371185600757599,0.006423961371183395,0.999838650226593,0.5311121344566345,0.4302579164505005,0.05475110560655594,0.999165952205658,0.46873512864112854,0.6181765198707581,-0.026095708832144737,0.9999924898147583,0.5199387073516846,0.613606333732605,0.025566160678863525,0.9999749064445496,0.45113152265548706,0.6327995657920837,0.17693522572517395,0.6319735646247864,0.5193051099777222,0.6037005186080933,0.2504369616508484,0.1107080802321434,0.4729515612125397,0.7370942831039429,0.0787469670176506,0.9329105615615845,0.5032809972763062,0.704114556312561,0.16243316233158112,0.7275431156158447,0.4585134983062744,0.5214499831199646,0.1226091980934143,0.20326295495033264,0.5253154039382935,0.5283634066581726,0.2638445794582367,0.036149729043245316,-178.1474224925489,0.49433691799640656,0.6158914268016815,50.59291672970956,46.6640550128877,0.3807799559855631,0.0003322569013038573,0.009459391914085373,0.01711271802297174,-0.19344266688406356,-4.596386633481439,2.032911386968299,12,1762115174.0188189
0.4842766225337982,0.34326159954071045,0.16538789868354797,0.9958285093307495,0.4461280405521393,0.4359178841114044,0.0009159774635918438,0.9998472929000854,0.5310367941856384,0.42868706583976746,0.04351271688938141,0.9992011785507202,0.46825966238975525,0.6175559163093567,-0.023358488455414772,0.9999917149543762,0.5195711255073547,0.6134301424026489,0.02287377044558525,0.9999722838401794,0.4530393183231354,0.6328232288360596,0.17263774573802948,0.6173381805419922,0.5202257037162781,0.6103061437606812,0.23695898056030273,0.11210617423057556,0.4735279083251953,0.7373765110969543,0.061868082731962204,0.9274953007698059,0.5019116401672363,0.7079554200172424,0.14557558298110962,0.7223444581031799,0.4551163613796234,0.5198485255241394,0.12217162549495697,0.20689110457897186,0.5254963636398315,0.5285869240760803,0.24552881717681885,0.03562745451927185,-178.33249712801668,0.493915393948555,0.6154930293560028,47.623365938794166,46.54018189050541,0.38439853267226887,-0.005057613309990503,-0.00478013113178401,-0.06466980818461655,-0.17085146541880394,-4.8675568668937235,4.900447290471385,13,1762115174.1021633
0.48425358533859253,0.34204646944999695,0.16382309794425964,0.9959403276443481,0.44623565673828125,0.4338943064212799,-0.005701418966054916,0.9998552799224854,0.5306153893470764,0.4276030957698822,0.04586569219827652,0.9992471933364868,0.46784839034080505,0.6170328855514526,-0.025982629507780075,0.9999914169311523,0.5193590521812439,0.6131872534751892,0.025549331679940224,0.9999710917472839,0.45276108384132385,0.6314057111740112,0.16059954464435577,0.6105312705039978,0.520119309425354,0.611146092414856,0.23765742778778076,0.110981285572052,0.47344279289245605,0.7366105914115906,0.0414544902741909,0.9258795380592346,0.501279354095459,0.707329511642456,0.13577303290367126,0.7208253145217896,0.44796687364578247,0.5184982419013977,0.05150497704744339,0.21864864230155945,0.5256129503250122,0.5304864048957825,0.214229017496109,0.035620372742414474,-178.3911438477791,0.4936037212610245,0.6151100695133209,45.66627916870204,43.31153710821225,0.38730869984533484,-0.0037563359884141925,-0.004615501764306978,0.015683231253510812,0.0019841431172671754,-4.263987347287237,5.617017239017154,14,1762115174.1851358
0.4840875566005707,0.34142276644706726,0.1595000922679901,0.9961358904838562,0.4464903771877289,0.4327258765697479,-0.01471080631017685,0.9998624324798584,0.5304584503173828,0.42702215909957886,0.040953002870082855,0.9992890357971191,0.4676267206668854,0.6166528463363647,-0.027250951156020164,0.9999911785125732,0.5193513631820679,0.6130779981613159,0.026826834306120872,0.9999704957008362,0.4519144594669342,0.6284312605857849,0.15257591009140015,0.6101584434509277,0.5202105045318604,0.6101318001747131,0.23829932510852814,0.11363909393548965,0.473323255777359,0.7342413067817688,0.044624585658311844,0.9247995615005493,0.5013669729232788,0.7066859006881714,0.14308449625968933,0.7208765149116516,0.4454726278781891,0.5197428464889526,0.06951996684074402,0.223334401845932,0.5258103609085083,0.5399488806724548,0.21235807240009308,0.03533950820565224,-178.44724306172952,0.4934890419244766,0.6148654222488403,47.93695759593907,45.10944950163147,0.38469716196128684,-0.0017093956344665336,-0.0036466810715529555,0.030511433100168746,0.014441118274899845,-3.8859733820232716,3.9065922328307954,15,1762115174.2522235
0.4838334023952484,0.33980292081832886,0.15600785613059998,0.9963074326515198,0.44685593247413635,0.43049830198287964,-0.015262064523994923,0.9998674392700195,0.5301767587661743,0.42601174116134644,0.03916173428297043,0.999324381351471,0.4675288200378418,0.6164158582687378,-0.028026044368743896,0.9999909400939941,0.5193222761154175,0.611976146697998,0.02759125828742981,0.9999699592590332,0.4510113596916199,0.6280212998390198,0.1484031081199646,0.60247403383255,0.5198283195495605,0.6109194159507751,0.2382287085056305,0.1122463122010231,0.4747844636440277,0.721162736415863,0.03302033990621567,0.9217438101768494,0.5017421245574951,0.7062582969665527,0.13678576052188873,0.7133851051330566,0.4450543522834778,0.5196391344070435,0.07769458740949631,0.2241705060005188,0.5263302326202393,0.5425485968589783,0.2077411413192749,0.035113003104925156,-178.4876316576452,0.49342554807662964,0.6141960024833679,42.48227452889358,43.4230401816736,0.38063421761106647,-0.0009549632089273933,-0.010068239192174188,0.011346850670445647,-0.0965818257535863,-3.082218392377249,1.725885399360944,16,1762115174.3187118
0.48382633924484253,0.3379570543766022,0.12225788831710815,0.996509313583374,0.44761547446250916,0.4279337227344513,-0.038331180810928345,0.9998720288276672,0.5301364660263062,0.42453426122665405,0.0034906291402876377,0.999341607093811,0.46754851937294006,0.616219699382782,-0.025600329041481018,0.9999908804893494,0.5193101763725281,0.6114396452903748,0.025177782401442528,0.9999690651893616,0.4528147280216217,0.6290323138237,0.15704739093780518,0.6095904111862183,0.5196110010147095,0.6104366779327393,0.23814766108989716,0.11865664273500443,0.4766138195991516,0.7232722043991089,0.0683169737458229,0.922002911567688,0.5048947334289551,0.7034509181976318,0.15723904967308044,0.7123092412948608,0.4444337487220764,0.5195863246917725,0.058581747114658356,0.23157575726509094,0.5274716019630432,0.5385366678237915,0.17951978743076324,0.03643085062503815,-178.60957296872417,0.49342934787273407,0.6138296723365784,50.58634757613348,49.05471194328499,0.3755880831342741,4.6113983640567e-05,-0.0044457497012537215,0.012148982738097358,0.06823402658400825,-2.358972248721145,1.002414055010551,17,1762115174.4011118
0.48391810059547424,0.33728694915771484,0.1180490106344223,0.9964771866798401,0.44846972823143005,0.424334853887558,-0.039096955209970474,0.9998721480369568,0.5301453471183777,0.4232969582080841,-0.0013842476764693856,0.9993616938591003,0.4675937592983246,0.6161681413650513,-0.025591174140572548,0.9999905228614807,0.5193513631820679,0.6110410690307617,0.025167187675833702,0.9999669790267944,0.4541667103767395,0.6340529918670654,0.15151157975196838,0.6075041890144348,0.5192922949790955,0.6154325604438782,0.2297930270433426,0.11631420254707336,0.47829875349998474,0.724558413028717,0.02558123506605625,0.9213284254074097,0.5045403242111206,0.7035238742828369,0.11481902748346329,0.7056284546852112,0.44395512342453003,0.5098122358322144,0.04494493454694748,0.24069087207317352,0.5274947881698608,0.531661331653595,0.16096527874469757,0.040552880614995956,-178.74281253879755,0.49347256124019623,0.6136046051979065,41.425138912733715,39.06001402825224,0.37985459047355075,0.0005897032125404252,-0.0030713370076588214,0.007417989696482899,0.0187556681732568,-0.7280488619311443,0.8878685662560796,18,1762115174.4743917
0.48396506905555725,0.33650630712509155,0.1382068693637848,0.9964010119438171,0.4493703246116638,0.4206826090812683,-0.017963150516152382,0.9998746514320374,0.5301544666290283,0.4227010905742645,0.012062511406838894,0.9993804693222046,0.46746450662612915,0.6160646677017212,-0.02546137198805809,0.9999902844429016,0.5193144083023071,0.6109641790390015,0.02501680515706539,0.9999651312828064,0.45392942428588867,0.6390390396118164,0.1527228057384491,0.6099551320075989,0.5172232389450073,0.6212984919548035,0.2305128574371338,0.11406070739030838,0.4792086184024811,0.7252006530761719,-0.030474701896309853,0.9235161542892456,0.5036712884902954,0.7060250043869019,0.055364061146974564,0.7042292356491089,0.4425901770591736,0.49202197790145874,0.03240144997835159,0.2700520157814026,0.5293163061141968,0.515546977519989,0.17212997376918793,0.04910462349653244,-178.91675640392288,0.49338945746421814,0.6135144233703613,32.49025468657128,29.037263301185952,0.39949187349557563,-0.0012186946047906913,-0.0013224923342645264,-0.026519669381542696,0.025646338484601697,1.4313008669077558,0.6184647447746108,19,1762115174.5425825
0.4840591847896576,0.33657339215278625,0.12668852508068085,0.9963131546974182,0.44993194937705994,0.41951411962509155,-0.032783143222332,0.9998769760131836,0.5301493406295776,0.4221045672893524,0.004199191927909851,0.9993863105773926,0.4674960672855377,0.6161529421806335,-0.02550410106778145,0.9999901056289673,0.5192635655403137,0.6112028956413269,0.02505384013056755,0.9999629855155945,0.453940212726593,0.6426115036010742,0.16101303696632385,0.6150331497192383,0.514535665512085,0.6229568719863892,0.24613182246685028,0.11262240260839462,0.48078006505966187,0.7330277562141418,0.031825002282857895,0.9247575998306274,0.5030887126922607,0.7074337005615234,0.13080671429634094,0.7020567059516907,0.44042253494262695,0.4956264793872833,0.03702908009290695,0.284136563539505,0.5301821231842041,0.514636754989624,0.16697068512439728,0.055239830166101456,-179.00812604678492,0.4933798164129257,0.6136779189109802,43.07790143037826,39.66086315500008,0.3864112438556969,-0.00014868313165741935,0.0025214085325273652,0.01650158804361044,0.05928017612608954,1.8496008831823096,0.43380230013637416,20,1762115174.6074255
0.48490816354751587,0.3366185426712036,0.09828558564186096,0.9961163401603699,0.4501133859157562,0.4177418053150177,-0.0565774068236351,0.9998738765716553,0.5304708480834961,0.421763151884079,-0.027979496866464615,0.9993845820426941,0.46745428442955017,0.6162060499191284,-0.02251700684428215,0.9999898672103882,0.5192562937736511,0.6112142205238342,0.02203451097011566,0.9999615550041199,0.4540530741214752,0.64497971534729,0.16526854038238525,0.6164256930351257,0.5139505863189697,0.6216921806335449,0.2438075840473175,0.11277991533279419,0.48117589950561523,0.7363937497138977,0.06771984696388245,0.9244674444198608,0.5034083127975464,0.7072285413742065,0.15533819794654846,0.6999961733818054,0.43979978561401367,0.49813026189804077,0.04717016965150833,0.2824028730392456,0.5301482081413269,0.5177218914031982,0.15383075177669525,0.06007285788655281,-179.09520331888197,0.49335528910160065,0.6137101352214813,51.84227627892816,47.11268045469383,0.38549092406303087,-0.00030971985970405384,0.0004068130842528338,-0.002033499398151198,-0.02670216057888534,2.8648756614345188,0.36944520087545274,21,1762115174.6866174
0.4853542447090149,0.33667707443237305,0.10769043862819672,0.9957107901573181,0.45040327310562134,0.4156842827796936,-0.046272896230220795,0.9998675584793091,0.5305687785148621,0.4214501976966858,-0.021347973495721817,0.9993823766708374,0.46709054708480835,0.6160268783569336,-0.019650869071483612,0.9999893307685852,0.5188852548599243,0.6111526489257812,0.019172977656126022,0.9999587535858154,0.45531851053237915,0.6441143155097961,0.15480391681194305,0.6121022701263428,0.5140876770019531,0.6241768002510071,0.21958597004413605,0.1147049143910408,0.48065170645713806,0.7361276149749756,0.014933968894183636,0.9253966212272644,0.5033906698226929,0.7077778577804565,0.09530717134475708,0.7034071087837219,0.4386650025844574,0.4850475788116455,0.027568679302930832,0.294613242149353,0.5301469564437866,0.5163609981536865,0.14296561479568481,0.06500978022813797,-179.26501297285668,0.49298790097236633,0.6135897636413574,42.48441951410563,38.01685189223159,0.3889027833497182,-0.005790886406084999,-0.001897334430677535,-0.08639585854087714,-0.03631869257625041,4.113922438367777,0.34182851521080126,22,1762115174.7500598
0.4865696430206299,0.3367612361907959,0.10615597665309906,0.9950859546661377,0.45073825120925903,0.4141593873500824,-0.04998338222503662,0.9998509287834167,0.5307124853134155,0.4212339222431183,-0.03224843740463257,0.9993647933006287,0.46689730882644653,0.6149805784225464,-0.015718355774879456,0.9999880790710449,0.5185230374336243,0.6099541783332825,0.015254253521561623,0.9999548196792603,0.4588378071784973,0.6374406218528748,0.13446635007858276,0.6026756763458252,0.5158685445785522,0.623238742351532,0.19054727256298065,0.11869368702173233,0.47887668013572693,0.7366192936897278,-0.013668174855411053,0.9253004789352417,0.5033520460128784,0.7083691954612732,0.05890001729130745,0.7074640989303589,0.43900132179260254,0.48269322514533997,0.02863461710512638,0.296563059091568,0.530120313167572,0.5177115201950073,0.1285340040922165,0.06910697370767593,-179.41614938932838,0.4927101731300354,0.6124673783779144,42.28878033090206,37.58564425607154,0.3947018483615055,-0.003502172181050163,-0.014153375524254769,0.02886088489370748,-0.154549741241241,5.055236109734209,0.5275667491839755,23,1762115174.8293614
0.4881356656551361,0.336805522441864,0.11503194272518158,0.9949549436569214,0.45097875595092773,0.41303321719169617,-0.04455573484301567,0.9998401403427124,0.5315791964530945,0.4205925762653351,-0.013643676415085793,0.9993411898612976,0.4673873782157898,0.6140428185462952,-0.018884804099798203,0.9999872446060181,0.5189799070358276,0.6089804768562317,0.018376406282186508,0.999952495098114,0.4596517086029053,0.6352661848068237,0.13805820047855377,0.5961312055587769,0.5161077380180359,0.6178048253059387,0.2081412822008133,0.11901409924030304,0.47673875093460083,0.7365003228187561,-0.0029411278665065765,0.9234684109687805,0.503326952457428,0.7082885503768921,0.08401163667440414,0.7046878337860107,0.4393135607242584,0.47811490297317505,0.07786530256271362,0.2918168604373932,0.5287145376205444,0.5066863298416138,0.20049774646759033,0.06848205626010895,-179.4395142963388,0.4931836426258087,0.6115116477012634,43.34580660579788,39.12204302359896,0.39272403364917324,0.007438319118732185,-0.015014757715026276,0.17187773727762223,-0.01353252041651851,5.357986800685348,0.8841935497343917,24,1762115174.8930142
0.4898730218410492,0.3368723392486572,0.13241201639175415,0.9948903918266296,0.4514886736869812,0.41192325949668884,-0.038369905203580856,0.9998282194137573,0.5318081378936768,0.4198088049888611,0.009083747863769531,0.9993282556533813,0.46782898902893066,0.6125779747962952,-0.0213145911693573,0.9999858736991882,0.5192586779594421,0.607483983039856,0.02078315056860447,0.9999493360519409,0.4591527581214905,0.6339443325996399,0.13422255218029022,0.5882535576820374,0.5160849690437317,0.6200041770935059,0.20312316715717316,0.11929117143154144,0.4747646749019623,0.736421525478363,-0.022862853482365608,0.9199793338775635,0.5032879114151001,0.7118784785270691,0.05619870498776436,0.7014002203941345,0.43817228078842163,0.4759019613265991,0.09683346003293991,0.2888399362564087,0.5288394689559937,0.509100079536438,0.2122541218996048,0.0677795261144638,-179.44069946630728,0.4935438334941864,0.6100309789180756,40.870792637097104,36.29867547323662,0.4042046505615319,0.005684148346583491,-0.02336633644740258,-0.02768245330328259,-0.13179571335834447,5.607173693421882,1.3457738578225813,25,1762115174.9563818
0.49099212884902954,0.3375064730644226,0.13522979617118835,0.9951073527336121,0.4518556594848633,0.41072002053260803,-0.036980725824832916,0.9998213052749634,0.5318247079849243,0.4186384975910187,0.011553481221199036,0.9993469715118408,0.4683193564414978,0.6103804111480713,-0.023426096886396408,0.9999844431877136,0.5192103385925293,0.6059035658836365,0.022888777777552605,0.9999479651451111,0.4592786431312561,0.6273806691169739,0.13860327005386353,0.5870548486709595,0.5139347910881042,0.6211236119270325,0.20512118935585022,0.1286683827638626,0.4727042317390442,0.7357029318809509,0.04980074241757393,0.9172859191894531,0.5036154389381409,0.719113826751709,0.13446389138698578,0.7035381197929382,0.438187837600708,0.48310378193855286,0.12146906554698944,0.27652665972709656,0.5313775539398193,0.5109988451004028,0.21113386750221252,0.07089774310588837,-179.43001179528676,0.49376484751701355,0.6081419885158539,56.51338528467048,59.28464513864819,0.39228677151381797,0.002598698688315948,-0.022210884258389702,-0.03627893776711003,0.01358588948153712,5.654952595436704,1.238428162229796,26,1762115175.0414298
0.4918026328086853,0.34046873450279236,0.16736584901809692,0.9953116774559021,0.452390193939209,0.41074952483177185,-0.009396793320775032,0.9998101592063904,0.5319710373878479,0.41837337613105774,0.059126149863004684,0.9993432760238647,0.4686424136161804,0.6083638668060303,-0.03115737810730934,0.9999838471412659,0.5191949605941772,0.6043791174888611,0.03061959706246853,0.9999474883079529,0.4591277539730072,0.6275330781936646,0.11785222589969635,0.5848686695098877,0.515662431716919,0.6196243166923523,0.2022109031677246,0.13000252842903137,0.4711727499961853,0.7350572943687439,-0.019075758755207062,0.9149250388145447,0.5057021379470825,0.7175604701042175,0.07929694652557373,0.6984477043151855,0.4383455812931061,0.4795340299606323,0.1771383285522461,0.25878578424453735,0.531131386756897,0.5055451989173889,0.2682660222053528,0.06756096333265305,-179.48083305873058,0.49391868710517883,0.6063714921474457,45.36995281791102,43.86685939001229,0.40953992376893444,0.0026549346192776438,-0.030554892650532014,0.0009705090980684675,-0.1439993242834292,5.472240350915284,1.6658547608955885,27,1762115175.0993745
0.49263134598731995,0.3443300426006317,0.15763339400291443,0.9954153299331665,0.45455628633499146,0.40867847204208374,-0.011548115871846676,0.9998105764389038,0.5322455167770386,0.4181540310382843,0.048767514526844025,0.9993723630905151,0.47021597623825073,0.6059786081314087,-0.03481174632906914,0.9999843835830688,0.5188488960266113,0.6014914512634277,0.03426641225814819,0.9999494552612305,0.4620782732963562,0.6202315092086792,0.10029073804616928,0.5947046279907227,0.5135366320610046,0.617582380771637,0.1941280961036682,0.13544218242168427,0.471417099237442,0.7337217330932617,-0.008750715292990208,0.9161170125007629,0.5058711171150208,0.7173373103141785,0.08090537786483765,0.6955322027206421,0.43650707602500916,0.4943944811820984,0.1588253229856491,0.2526085376739502,0.534392774105072,0.5059985518455505,0.2544366419315338,0.07118877023458481,-179.6593536784086,0.49453243613243103,0.6037350296974182,52.07021601567228,47.35976692453822,0.40013100019504244,0.007729319921933643,-0.033202597207626486,0.06390486285083702,-0.033344175993513206,6.953874988557828,1.3508352535430845,28,1762115175.1787798
0.49324551224708557,0.3460215926170349,0.14745019376277924,0.9949386119842529,0.4564477801322937,0.4055596590042114,-0.014486720785498619,0.9998030066490173,0.5315466523170471,0.41528457403182983,0.04472695291042328,0.9993955492973328,0.47059378027915955,0.5990365743637085,-0.03466402739286423,0.9999845027923584,0.5187676548957825,0.5952446460723877,0.03410857170820236,0.9999499917030334,0.4622154235839844,0.620125949382782,0.09124040603637695,0.6057569980621338,0.507010817527771,0.6176818013191223,0.1858811229467392,0.14015179872512817,0.4749581813812256,0.7327532172203064,-0.005951707251369953,0.9177310466766357,0.5058168172836304,0.7214289307594299,0.08191557973623276,0.6939736604690552,0.43638095259666443,0.511764645576477,0.07259431481361389,0.26219531893730164,0.5378717184066772,0.5141045451164246,0.14459767937660217,0.09807094931602478,-179.79026411533684,0.494680717587471,0.5971406102180481,58.54470945452783,53.521181151521,0.39649138360892744,0.0018707700406076103,-0.08319747330425628,-0.07391348834845933,-0.6307526208199691,7.378446715128605,0.11834745204519073,29,1762115175.258042
0.4936344027519226,0.34612804651260376,0.14267286658287048,0.9945728778839111,0.45703038573265076,0.4044179618358612,-0.01729450188577175,0.9997990131378174,0.5315052270889282,0.41479453444480896,0.04416175186634064,0.9994239807128906,0.470952570438385,0.5952180027961731,-0.03396661579608917,0.9999845623970032,0.5187150239944458,0.5923904180526733,0.03341672196984291,0.9999502897262573,0.4622337818145752,0.6214827299118042,0.1025136336684227,0.6136581897735596,0.5035609006881714,0.6186352968215942,0.19276908040046692,0.140507310628891,0.47748541831970215,0.7349592447280884,0.038217298686504364,0.9152058362960815,0.5058428645133972,0.725391149520874,0.13934148848056793,0.6827561855316162,0.436034619808197,0.5150200128555298,0.08289958536624908,0.2664838135242462,0.5391365885734558,0.5179075598716736,0.17100349068641663,0.12027645856142044,-179.823946030982,0.4948337972164154,0.5938042104244232,71.08655935875784,72.74089119254158,0.3878151650654751,0.0019793956340385913,-0.04314130645892229,0.0014045828753624294,0.5179461324587796,7.93195139705958,0.0645533423393813,30,1762115175.3353786
0.4942273199558258,0.3459262549877167,0.08374647796154022,0.993242621421814,0.4580686092376709,0.401582807302475,-0.054367829114198685,0.9997846484184265,0.5305393934249878,0.4103143811225891,-0.02892361208796501,0.9994131922721863,0.470933735370636,0.5849195122718811,-0.029687698930501938,0.9999819397926331,0.518236517906189,0.5822584629058838,0.029218003153800964,0.9999425411224365,0.46252280473709106,0.6216224431991577,0.08325536549091339,0.6167057752609253,0.5018722414970398,0.6233339309692383,0.15740081667900085,0.147340789437294,0.47632527351379395,0.7422704100608826,0.0276024229824543,0.9132316708564758,0.5008649230003357,0.7268946170806885,0.12519320845603943,0.6829884648323059,0.4363417625427246,0.5189440250396729,-0.02539524994790554,0.29016563296318054,0.54026859998703,0.5190364718437195,0.03655924275517464,0.16457097232341766,-179.909326477738,0.4945851266384125,0.5835889875888824,82.87178503075178,90.55252478184426,0.38876652645746723,-0.003897462725608161,-0.16010519038899892,-0.09210915333993427,-1.8331978858168834,6.870112349327553,0.04393561080899594,31,1762115175.3991818
0.4939272999763489,0.3453885018825531,0.10701344907283783,0.9930192232131958,0.4581877589225769,0.3989798128604889,-0.04379479959607124,0.999785840511322,0.5304051637649536,0.40617331862449646,-0.010744140483438969,0.9994177222251892,0.47136634588241577,0.5812873244285583,-0.029987260699272156,0.9999810457229614,0.5182859301567078,0.5803275108337402,0.02952153980731964,0.9999362826347351,0.4646206498146057,0.6318025588989258,0.093958780169487,0.6319859027862549,0.4999297261238098,0.6240198612213135,0.17752346396446228,0.14832253754138947,0.47616973519325256,0.7533999681472778,0.07807104289531708,0.9113454222679138,0.49650996923446655,0.7317708134651184,0.18152174353599548,0.6730973124504089,0.4395168721675873,0.5154596567153931,0.041474513709545135,0.29612767696380615,0.5415308475494385,0.518964946269989,0.08630925416946411,0.19818834960460663,-179.8297256150438,0.49482613801956177,0.5808074176311493,104.36418918828515,108.65326801041844,0.39792210353030866,0.0037908902380943453,-0.04375157035764778,0.12093081271987549,1.8301368186034455,5.688413233625112,0.1302804766756811,32,1762115175.4627583
0.493732750415802,0.34210121631622314,0.13683965802192688,0.9931626915931702,0.4578877389431,0.39538493752479553,-0.01708311028778553,0.9997815489768982,0.5303606986999512,0.40121960639953613,0.014298288151621819,0.9994491338729858,0.4713835120201111,0.5809255242347717,-0.030510783195495605,0.999980628490448,0.5184274315834045,0.5799096822738647,0.030036497861146927,0.9999350905418396,0.46429938077926636,0.6328775882720947,0.09802739322185516,0.6496384143829346,0.4983135163784027,0.6258363127708435,0.17600086331367493,0.15417572855949402,0.4757321774959564,0.7532055974006653,0.06429749727249146,0.9148364663124084,0.4910871386528015,0.7321451902389526,0.149142324924469,0.6803119778633118,0.44235435128211975,0.5133899450302124,0.07998578250408173,0.28884369134902954,0.541765570640564,0.5208309888839722,0.12804868817329407,0.21900467574596405,-179.75420946937538,0.4949054718017578,0.5804176032543182,96.04526914711654,93.74357333273679,0.4018375754865345,0.0012503052961842674,-0.006143498600334417,-0.04003977524261449,0.5927055284122211,4.60285368498621,0.37128098788951663,33,1762115175.5262098
0.4935784935951233,0.3361349105834961,0.13537654280662537,0.9931354522705078,0.4576632082462311,0.3883182108402252,-0.019899850711226463,0.9997768402099609,0.530106782913208,0.3935103416442871,0.00416281633079052,0.9994770288467407,0.47117409110069275,0.570988655090332,-0.028740108013153076,0.9999789595603943,0.5182079076766968,0.5696125626564026,0.028275052085518837,0.9999306201934814,0.4639766216278076,0.6393657326698303,0.10036219656467438,0.6702432632446289,0.4940554201602936,0.6264011263847351,0.17332050204277039,0.16812750697135925,0.47572436928749084,0.758945643901825,0.08437968790531158,0.9172528982162476,0.48545971512794495,0.7341184616088867,0.16360676288604736,0.6860722303390503,0.4434727132320404,0.516684889793396,0.07451644539833069,0.28445807099342346,0.5418292284011841,0.527387261390686,0.08812405169010162,0.24782700836658478,-179.74256508237923,0.49469099938869476,0.5703006088733673,109.87724148987793,106.7038245923663,0.41076032200998364,-0.002704662098575754,-0.1275830810259864,-0.04987518096588826,-1.5314465443952945,4.099457699028924,0.5110925274059178,34,1762115175.6055071
0.4934315085411072,0.3343309164047241,0.0881771519780159,0.9933967590332031,0.45762038230895996,0.3879118263721466,-0.06004884093999863,0.9997801780700684,0.5298153758049011,0.39269310235977173,-0.035452935844659805,0.9995088577270508,0.4710618555545807,0.5739415287971497,-0.02702493593096733,0.9999787211418152,0.517889142036438,0.5702349543571472,0.026496585458517075,0.9999309778213501,0.46500658988952637,0.6402139663696289,0.15385551750659943,0.6836709976196289,0.49476972222328186,0.6288425922393799,0.21928422152996063,0.17556948959827423,0.47805944085121155,0.7568837404251099,0.1770055592060089,0.9185461401939392,0.4887263774871826,0.7327492833137512,0.2583919167518616,0.6898065805435181,0.44328632950782776,0.5178332328796387,0.05854250118136406,0.28239375352859497,0.5434651970863342,0.5277063846588135,0.06910984218120575,0.27581852674484253,-179.76121255006814,0.49447549879550934,0.5720882415771484,120.8895961588089,127.62851341603759,0.43055201637149243,-0.0027074284858469373,0.022458813838550248,-3.4755336819151226e-05,1.8850421440704075,3.789008868480141,0.2161075564089608,35,1762115175.6851032
0.4933520257472992,0.3265482485294342,0.05682709813117981,0.993855893611908,0.45762357115745544,0.3802633583545685,-0.08344922214746475,0.9997879862785339,0.5292047262191772,0.38520199060440063,-0.05526324361562729,0.9995324015617371,0.4710426926612854,0.5604631304740906,-0.02600964531302452,0.9999763369560242,0.516125500202179,0.5564841032028198,0.02549717202782631,0.9999256134033203,0.4685683250427246,0.6440285444259644,0.13864204287528992,0.7049973607063293,0.49481263756752014,0.628370463848114,0.20872263610363007,0.20605097711086273,0.48193079233169556,0.7593640685081482,0.21551206707954407,0.9204062223434448,0.48810067772865295,0.7316986918449402,0.2999224066734314,0.6962525844573975,0.44325000047683716,0.521442174911499,0.005871105007827282,0.3031429648399353,0.5432654023170471,0.5298857092857361,0.03223586827516556,0.31440338492393494,-179.9445929601293,0.4935840964317322,0.5584736168384552,149.9660481977926,152.72716953328995,0.4647291751040051,-0.013815881855168004,-0.21101362811648935,-0.1721703751085735,-3.618598968955352,3.9467802001480004,0.051092838208901765,36,1762115175.7496233
0.49294155836105347,0.3144991099834442,0.08257798105478287,0.9943979382514954,0.4579683840274811,0.3701965808868408,-0.06625375151634216,0.999801754951477,0.5287551879882812,0.37757018208503723,-0.03575672209262848,0.999556303024292,0.47102054953575134,0.5420206785202026,-0.020979048684239388,0.9999732375144958,0.5141814947128296,0.5404654741287231,0.020550454035401344,0.9999160170555115,0.4699500501155853,0.643885612487793,0.09955091774463654,0.7254902720451355,0.4941377639770508,0.6305814981460571,0.1455821543931961,0.25768736004829407,0.479743093252182,0.7611216902732849,0.158055379986763,0.9219335317611694,0.4859737455844879,0.7439481019973755,0.22099927067756653,0.7115848064422607,0.44097575545310974,0.5221699476242065,0.010481680743396282,0.35602593421936035,0.5429143905639648,0.5293285846710205,0.03734144568443298,0.36063650250434875,179.73955342381078,0.49260102212429047,0.5412430763244629,156.27403426506692,159.12330295492623,0.4510157224332661,-0.011750107575295583,-0.20594649162052564,0.024690981984816972,0.06056449494771297,5.946843664911128,0.9328661461127735,37,1762115175.8332884
0.49177223443984985,0.30356112122535706,0.09825056046247482,0.9948232173919678,0.4579464793205261,0.3601245880126953,-0.04736149683594704,0.999814510345459,0.5282102227210999,0.3674691915512085,-0.02782825566828251,0.9995560646057129,0.47087201476097107,0.5336945056915283,-0.018428510054945946,0.999968409538269,0.5142759084701538,0.5321789979934692,0.018103422597050667,0.9998897910118103,0.47138553857803345,0.6448361873626709,0.06971460580825806,0.7497879266738892,0.4929843842983246,0.6308742165565491,0.11487454175949097,0.31590577960014343,0.47977399826049805,0.7700287103652954,0.1371893584728241,0.9255455136299133,0.47971194982528687,0.7470771074295044,0.20683977007865906,0.7280706763267517,0.4384375214576721,0.5209118723869324,0.015227829106152058,0.4127413332462311,0.542840301990509,0.5248494744300842,0.03648421913385391,0.4085004925727844,179.8291396354792,0.49257396161556244,0.5329367518424988,169.41161647737493,172.9333833912981,0.46108931695850724,-0.0003242301319773753,-0.09952365308804205,0.13690111256361576,1.275123514106582,5.967403407668954,0.20646418652167664,38,1762115175.9167492
0.49072664976119995,0.2882464826107025,0.12966495752334595,0.995245099067688,0.45804935693740845,0.34487682580947876,-0.023662865161895752,0.9998283386230469,0.5272343754768372,0.35158059000968933,0.0009679918875917792,0.9995586276054382,0.4701988697052002,0.5143615007400513,-0.018024150282144547,0.9999657273292542,0.5132583975791931,0.5120285749435425,0.017765987664461136,0.9998682737350464,0.4720681607723236,0.6358168125152588,0.039433106780052185,0.7714508175849915,0.4938940405845642,0.62330162525177,0.09283354133367538,0.37056630849838257,0.47772011160850525,0.7665503025054932,0.10793018341064453,0.9277706146240234,0.48191380500793457,0.743598997592926,0.16612766683101654,0.7420006990432739,0.43852072954177856,0.5126494765281677,0.008533990941941738,0.4646254777908325,0.5425487756729126,0.512624204158783,0.03241220861673355,0.45330148935317993,179.68282111139513,0.49172863364219666,0.5131950378417969,177.22060738901203,175.70002586766984,0.4670136906990745,-0.0102577557450231,-0.2395587116335452,-0.12053981724967999,-1.6992758687262959,5.534464686520128,0.28852811599167255,39,1762115175.999158
0.4899243414402008,0.28522562980651855,0.12422561645507812,0.99562007188797,0.45803651213645935,0.34263256192207336,-0.017301218584179878,0.9998409152030945,0.5270628929138184,0.3499770164489746,-0.0011120853014290333,0.9995802044868469,0.4698239266872406,0.5105124115943909,-0.015139134600758553,0.9999650120735168,0.5125961899757385,0.5069729685783386,0.014964556321501732,0.9998584389686584,0.47223860025405884,0.6361597180366516,0.02355853095650673,0.7915860414505005,0.4944094121456146,0.6167235374450684,0.054837267845869064,0.4115721881389618,0.4794504642486572,0.7656609416007996,0.0597013421356678,0.9300755262374878,0.47811922430992126,0.7353740930557251,0.10439107567071915,0.7513241767883301,0.43853116035461426,0.5076722502708435,0.02220229059457779,0.5105401277542114,0.5427490472793579,0.5120754837989807,0.03320195525884628,0.4967970848083496,179.52748577882875,0.49121005833148956,0.5087426900863647,177.3993702484082,176.79891060840245,0.46733257045916776,-0.007297153353239172,-0.06265139061294327,0.04166023569721508,2.489358486885613,6.073459817490984,0.2950652899814965,40,1762115176.0702233
0.489372581243515,0.27408474683761597,0.1204749196767807,0.9959853887557983,0.4577544331550598,0.33411046862602234,-0.025416743010282516,0.9998518824577332,0.5270764231681824,0.3387329876422882,0.0066999406553804874,0.9995903968811035,0.4699414372444153,0.5004575252532959,-0.01651616580784321,0.9999629855155945,0.5128543972969055,0.49689701199531555,0.016201764345169067,0.9998407363891602,0.4693370759487152,0.6272184252738953,0.025844445452094078,0.8067982792854309,0.49775975942611694,0.6084790825843811,0.08885974436998367,0.43964529037475586,0.47373706102371216,0.7648645043373108,0.0684024915099144,0.9252605438232422,0.4910135269165039,0.7318338751792908,0.13813017308712006,0.744090735912323,0.4384051263332367,0.5025956034660339,0.025585096329450607,0.5453871488571167,0.5427205562591553,0.5048328638076782,0.05078551173210144,0.525011420249939,179.64070061779947,0.4913979172706604,0.4986772686243057,177.5388177477463,168.17702960283415,0.47462812740882665,0.0025348733588771034,-0.13581769822963013,0.1326683877079007,-0.9872690901138538,3.8149413171397732,0.8666130118669071,41,1762115176.1443331
0.48908406496047974,0.2597481310367584,0.10010883957147598,0.996243417263031,0.4575710892677307,0.32490184903144836,-0.04211920127272606,0.9998517036437988,0.5271309614181519,0.3266906142234802,-0.009761891327798367,0.9995905756950378,0.47051841020584106,0.4970700442790985,-0.017471345141530037,0.9999446868896484,0.5130115151405334,0.4920474886894226,0.017165636643767357,0.9997906684875488,0.4679892659187317,0.6193670630455017,0.01240686234086752,0.8194578289985657,0.4977789521217346,0.6077700853347778,0.05640718340873718,0.4654958248138428,0.47265252470970154,0.7530320882797241,0.056974757462739944,0.9134809970855713,0.4862041473388672,0.732096254825592,0.10563685745000839,0.7368366122245789,0.43842998147010803,0.4943923056125641,0.03700960427522659,0.5721865296363831,0.5426298379898071,0.492692768573761,0.056679923087358475,0.5447729229927063,179.80102940174015,0.49176496267318726,0.49455876648426056,174.35756792313646,176.36642909797285,0.48327850779593096,0.004285066147838261,-0.0480813925977883,0.02043259994686724,1.024276208368771,1.4730635695443228,0.16954039806515261,42,1762115176.22999
0.4891001284122467,0.2409459501504898,0.09150678664445877,0.9964717030525208,0.457714706659317,0.3109758198261261,-0.054097700864076614,0.9998499155044556,0.5276184678077698,0.31297731399536133,-0.015593764372169971,0.9995684027671814,0.47176870703697205,0.4873385429382324,-0.01880352757871151,0.9999282956123352,0.5132148861885071,0.4829246997833252,0.0186509657651186,0.9997208118438721,0.46633267402648926,0.6107834577560425,0.027911338955163956,0.827686071395874,0.4977543354034424,0.6002420783042908,0.09038911759853363,0.4808840751647949,0.47159069776535034,0.7450056076049805,0.07852282375097275,0.8957260847091675,0.48741206526756287,0.7277150750160217,0.14173319935798645,0.7164806723594666,0.4391375184059143,0.4864621162414551,0.02080509252846241,0.5902665853500366,0.5422617197036743,0.481373131275177,0.05419396609067917,0.555469810962677,179.9421630428247,0.49249179661273956,0.4851316213607788,175.50323997752906,170.28557445280546,0.49585714165227435,0.008082749377599962,-0.10483447075448937,0.04223209744523654,-0.6311220241455792,1.6400526197161724,0.06873069338768,43,1762115176.319914
0.4893619120121002,0.2241760641336441,0.09636800736188889,0.9963979721069336,0.4583955705165863,0.2979242205619812,-0.04879153147339821,0.9998294711112976,0.5294557809829712,0.3005310595035553,-0.010260378941893578,0.9995311498641968,0.47352248430252075,0.47662073373794556,-0.015446072444319725,0.9999041557312012,0.5134178400039673,0.4727656841278076,0.015334175899624825,0.9996216297149658,0.4670303463935852,0.6048086881637573,0.02470473386347294,0.8265793919563293,0.5021820068359375,0.5800043940544128,0.0747206062078476,0.47779473662376404,0.4696354269981384,0.7393563389778137,0.07254336029291153,0.8652279376983643,0.49308228492736816,0.7050628066062927,0.130303293466568,0.6796829700469971,0.4437989592552185,0.47139421105384827,0.0246659517288208,0.5778172612190247,0.5417004823684692,0.46175774931907654,0.07363301515579224,0.5393317937850952,179.85125886448338,0.493470162153244,0.4746932089328766,175.5695465255567,174.76346528284085,0.49812345950392883,0.01192299925618586,-0.12720928779796148,0.04679978448785012,-0.27267408337895943,2.1009496002704067,0.14023048994659384,44,1762115176.401971
0.4896215796470642,0.22453071177005768,0.0983937606215477,0.9963504076004028,0.4587448537349701,0.29748502373695374,-0.034691184759140015,0.9998151063919067,0.5300123691558838,0.2997928261756897,-0.012645460665225983,0.9995080828666687,0.4740404188632965,0.47508400678634644,-0.00882768165320158,0.9998570084571838,0.5137597322463989,0.4697779715061188,0.008762634359300137,0.9994750618934631,0.468062162399292,0.603274405002594,-0.003176337108016014,0.8216080665588379,0.5071172714233398,0.5868571400642395,0.028417328372597694,0.47968193888664246,0.4679170548915863,0.7403106093406677,0.011999683454632759,0.835172176361084,0.49845924973487854,0.7100533843040466,0.05289531871676445,0.6512293219566345,0.44994449615478516,0.4702916145324707,0.03497268259525299,0.552736759185791,0.5416646599769592,0.46366140246391296,0.0673164427280426,0.5189557671546936,179.84223665383382,0.4939000755548477,0.4724309891462326,175.35671719509006,178.02683162334424,0.5050168386881254,0.006427605172917751,-0.033822289671987395,-0.0821612522546955,1.3962224717783889,1.854718095053456,0.10869480274918343,45,1762115176.4688566
0.4910719394683838,0.20996354520320892,0.11379919946193695,0.9965209364891052,0.4590151309967041,0.28820645809173584,-0.034962303936481476,0.999808669090271,0.5310565829277039,0.2882164418697357,-0.00022258814715314656,0.999488890171051,0.4760975241661072,0.46650588512420654,-0.009680182673037052,0.9998305439949036,0.5145282745361328,0.46355628967285156,0.00942151714116335,0.9993909001350403,0.46938666701316833,0.597100555896759,0.01334650069475174,0.8230032920837402,0.508884072303772,0.5847457647323608,0.06648968905210495,0.490431010723114,0.4668591618537903,0.7393104434013367,0.048120710998773575,0.8166149258613586,0.5021202564239502,0.714022159576416,0.0997011587023735,0.6319523453712463,0.448292076587677,0.4704637825489044,0.021330799907445908,0.550872802734375,0.5416356325149536,0.4472781717777252,0.08406542241573334,0.5025826692581177,-179.91022859862267,0.49531289935112,0.46503108739852905,175.7626118799187,169.17602135051007,0.5182819095463614,0.01699357487188458,-0.08900670042929779,0.12708845763159357,-0.6637631801216201,0.00794026666584155,0.059621826846922195,46,1762115176.5519953
0.4929346442222595,0.19953276216983795,0.11737577617168427,0.9966414570808411,0.45932072401046753,0.2794896960258484,-0.03982219472527504,0.9998082518577576,0.5323677062988281,0.27919676899909973,0.004962351638823748,0.9994662404060364,0.4776175022125244,0.46206748485565186,-0.012599947862327099,0.9998224377632141,0.5166040658950806,0.45975545048713684,0.012401320971548557,0.9993425607681274,0.4701306223869324,0.5949592590332031,0.03239257261157036,0.8214524984359741,0.5113739967346191,0.5740591287612915,0.10921372473239899,0.48958414793014526,0.4678218364715576,0.7399063110351562,0.10879462957382202,0.7905128598213196,0.5066708326339722,0.706452488899231,0.19788910448551178,0.5999420285224915,0.4477788805961609,0.4702652096748352,0.016849372535943985,0.5473543405532837,0.5414223670959473,0.4352531433105469,0.12485592067241669,0.4751241207122803,-179.6003272528963,0.4971107840538025,0.46091146767139435,170.6272648596789,173.52468079540145,0.5249111523248251,0.024824945187350622,-0.05688314371119495,0.1081344863400968,0.44355766171201666,-0.2297616116063953,0.3611570930107807,47,1762115176.6244178
0.4963286519050598,0.19113479554653168,0.12498080730438232,0.9967880845069885,0.4610198140144348,0.2697487771511078,-0.0314139798283577,0.9998052716255188,0.5341124534606934,0.27094966173171997,0.011213451623916626,0.9994658827781677,0.4780939519405365,0.4570441246032715,-0.013658493757247925,0.9998113512992859,0.5175295472145081,0.45535749197006226,0.013584723696112633,0.9993065595626831,0.47009024024009705,0.5929941534996033,0.022041987627744675,0.8194114565849304,0.510013222694397,0.5747983455657959,0.08972589671611786,0.48728448152542114,0.47277727723121643,0.7332596778869629,0.06769780069589615,0.7661553025245667,0.5035820603370667,0.7094283103942871,0.15129098296165466,0.5748010277748108,0.4549998342990875,0.4491574466228485,0.03858228027820587,0.5129647850990295,0.5397292971611023,0.4189431071281433,0.11671195179224014,0.45424357056617737,-179.92427967441276,0.4978117495775223,0.45620080828666687,174.5396665997124,172.02823848138587,0.530497906936473,0.011685463036565978,-0.078529163354531,-0.21904206098157647,-0.36085050387171297,0.9412634256556756,0.13113060346222313,48,1762115176.684404
0.4979665279388428,0.1847866326570511,0.12350436300039291,0.9970295429229736,0.4633405804634094,0.2651229798793793,-0.03265835717320442,0.9998145699501038,0.5359752178192139,0.2647117078304291,0.006467188708484173,0.9994743466377258,0.47981590032577515,0.4534280002117157,-0.014144097454845905,0.9998210668563843,0.5195415616035461,0.4516526460647583,0.014108739793300629,0.999318540096283,0.47372570633888245,0.589215874671936,0.0332869328558445,0.8235099911689758,0.5153957605361938,0.548078715801239,0.1087367981672287,0.4762258231639862,0.47269517183303833,0.7334690690040588,0.08853866159915924,0.7488879561424255,0.5053455233573914,0.6767550706863403,0.1836262345314026,0.5420348644256592,0.4583624303340912,0.4443031847476959,0.026403486728668213,0.49517735838890076,0.5397473573684692,0.40687257051467896,0.10812022536993027,0.4323299825191498,-179.99363843620267,0.49967873096466064,0.452540323138237,177.2860453823913,165.5909236531506,0.5205543227672575,0.023346961136536427,-0.0457750704372326,0.14582927543327756,0.40959622825955594,-0.3244168577515766,0.003759316521490406,49,1762115176.7643707
0.4985918402671814,0.18407414853572845,0.12975497543811798,0.9972609877586365,0.46369725465774536,0.26446449756622314,-0.026174623519182205,0.999817967414856,0.5364660024642944,0.26461905241012573,0.01212752889841795,0.9994907379150391,0.4801715910434723,0.45138049125671387,-0.014781872741878033,0.9998160600662231,0.5200614929199219,0.4490692615509033,0.014700996689498425,0.9993031620979309,0.47445106506347656,0.5898274779319763,0.02629953622817993,0.8266353011131287,0.5133825540542603,0.563320517539978,0.0846424326300621,0.48761987686157227,0.4706754684448242,0.7340593338012695,0.06520608067512512,0.7399239540100098,0.5038841366767883,0.6880560517311096,0.1356400102376938,0.5353894829750061,0.4577288031578064,0.4407489001750946,0.042145662009716034,0.46996456384658813,0.5397634506225586,0.4071158170700073,0.12602338194847107,0.4146225154399872,-179.98922685147792,0.5001165419816971,0.4502248764038086,178.26134833260227,170.6858576249775,0.527920429802845,0.005778710836700528,-0.030561810039902822,-0.23188507013079476,0.20080132591153993,0.1216913470455593,0.005259623963544706,50,1762115176.8401334
0.5008600950241089,0.18069031834602356,0.1276259869337082,0.9974807500839233,0.4656173586845398,0.260888010263443,-0.02745441533625126,0.9998217821121216,0.5389062166213989,0.26353031396865845,0.009337061084806919,0.9995025396347046,0.4807491898536682,0.4498260021209717,-0.0149171631783247,0.9998114109039307,0.520997941493988,0.4480398893356323,0.014828410930931568,0.9992872476577759,0.47580093145370483,0.5858826637268066,0.026752840727567673,0.8272795081138611,0.5188572406768799,0.5674138069152832,0.08066998422145844,0.4938974380493164,0.47127050161361694,0.7286491990089417,0.061603792011737823,0.729659378528595,0.5033656358718872,0.6946285367012024,0.12674179673194885,0.5245547294616699,0.4620346128940582,0.4346245527267456,0.040123939514160156,0.44642364978790283,0.5401551723480225,0.4067992866039276,0.11569861322641373,0.397871732711792,179.57403500793774,0.5008735656738281,0.448932945728302,176.6372098863617,169.4101032279164,0.5321737167449635,0.009321240899483326,-0.01590755636449037,0.04361921093368407,0.1804379838180987,2.064806444363736,0.13865557104220141,51,1762115176.9213483
0.5024406909942627,0.17925047874450684,0.10912951081991196,0.9976859092712402,0.46751490235328674,0.2615158259868622,-0.03159701079130173,0.9998276829719543,0.541225254535675,0.2620599865913391,0.0016969520365819335,0.9995124340057373,0.4820326268672943,0.4479699432849884,-0.01515896338969469,0.9998128414154053,0.5226549506187439,0.44620436429977417,0.015080297365784645,0.9992778301239014,0.47645607590675354,0.5796900987625122,0.028612956404685974,0.8254963159561157,0.5164382457733154,0.5565572381019592,0.09190931916236877,0.4866549074649811,0.4728299081325531,0.7218925356864929,0.07209030538797379,0.7151898145675659,0.5039649605751038,0.6862298250198364,0.14859721064567566,0.5022461414337158,0.4637288451194763,0.43347692489624023,0.03280959278345108,0.4237554371356964,0.5402176380157471,0.40782517194747925,0.11001714318990707,0.3811447322368622,179.37348250340852,0.5023437887430191,0.4470871537923813,178.25614051953283,168.52641517598107,0.5249999618821852,0.018793906099995428,-0.023594814318150647,0.12108936665854567,-0.09826645165283242,0.4229736896656467,0.2516902921660044,52,1762115176.999577
0.5039710402488708,0.18027471005916595,0.10232250392436981,0.9978524446487427,0.469094455242157,0.2617734372615814,-0.03190654516220093,0.9998238682746887,0.5428624749183655,0.2630002200603485,-0.004549416713416576,0.999502956867218,0.48294544219970703,0.4469556510448456,-0.014463985338807106,0.9997995495796204,0.5239917039871216,0.4463787376880646,0.014380243606865406,0.9992403984069824,0.47614938020706177,0.5798932909965515,0.02840510569512844,0.8281557559967041,0.5163820385932922,0.5612392425537109,0.08301002532243729,0.49068835377693176,0.47287625074386597,0.7215278744697571,0.07028485089540482,0.7153095006942749,0.5066499710083008,0.6913950443267822,0.13347648084163666,0.49682581424713135,0.4727117419242859,0.4243372678756714,0.035195156931877136,0.3945201635360718,0.5395962595939636,0.4085923135280609,0.11531683057546616,0.3588116466999054,179.21968178141432,0.5034685730934143,0.4466671943664551,177.86090060952787,170.30840152638226,0.5263787188498243,0.01564946427386718,-0.005843022291514629,-0.04374956853014334,0.24698604227588258,0.9527570108872959,0.38592357408727257,53,1762115177.0714507
0.5052282214164734,0.18074485659599304,0.08759555965662003,0.9980382919311523,0.47023385763168335,0.2627015709877014,-0.04184628650546074,0.9998311996459961,0.544659435749054,0.26471447944641113,-0.017205173149704933,0.9995046854019165,0.4838918149471283,0.44772711396217346,-0.01267454493790865,0.9998026490211487,0.5257166624069214,0.4478764832019806,0.012563422322273254,0.9992380142211914,0.4766872525215149,0.5751600861549377,0.04855269938707352,0.8313544988632202,0.5167527198791504,0.5575100779533386,0.09698493778705597,0.4962240159511566,0.4735317826271057,0.7154557108879089,0.10676722228527069,0.7142063975334167,0.5068341493606567,0.686793327331543,0.16521373391151428,0.48819980025291443,0.4680350720882416,0.4338264465332031,0.018003983423113823,0.38183918595314026,0.5386219620704651,0.4089060425758362,0.1115122064948082,0.33722758293151855,179.17765588656,0.5048042386770248,0.447801798582077,176.3870582610703,170.2287502865687,0.522841678713187,0.0173029851437749,0.014698319794916145,0.021420666518631847,0.2661044361073754,1.5492395705237347,0.4041602702200897,54,1762115177.1486435
0.5058493614196777,0.18055708706378937,0.088917076587677,0.9981778264045715,0.47067269682884216,0.26315003633499146,-0.041085999459028244,0.999836266040802,0.5455000996589661,0.2645849883556366,-0.016103927046060562,0.9994850754737854,0.4842579960823059,0.4488331377506256,-0.012543204240500927,0.99981290102005,0.5271058678627014,0.44878438115119934,0.012410882860422134,0.9992464184761047,0.476723849773407,0.5763272047042847,0.050076983869075775,0.8324589133262634,0.5184141993522644,0.5431061387062073,0.11435467004776001,0.4808666706085205,0.47341495752334595,0.7171735167503357,0.10451322793960571,0.7081277370452881,0.5105966329574585,0.6666700839996338,0.19289027154445648,0.46395063400268555,0.46953660249710083,0.43675222992897034,0.02008778788149357,0.3621869683265686,0.5377095341682434,0.41028693318367004,0.11073426157236099,0.3146182596683502,179.25512556022198,0.5056819319725037,0.4488087594509125,174.64161139858518,165.22053340420578,0.5150337090798757,0.012194016131436426,0.01398996339787012,-0.07098020558249496,-0.00984137554300578,1.0986164865702635,0.43212925493676047,55,1762115177.2206209
0.5071832537651062,0.18304911255836487,0.08063250780105591,0.998327374458313,0.47223949432373047,0.2644394338130951,-0.04208669811487198,0.99984210729599,0.5466092824935913,0.2663882076740265,-0.021601134911179543,0.999483048915863,0.48476114869117737,0.45068228244781494,-0.011523022316396236,0.9998206496238708,0.5278934240341187,0.4506128132343292,0.011398529633879662,0.9992576837539673,0.47657066583633423,0.5765365362167358,0.05664626508951187,0.8305319547653198,0.5178791284561157,0.5484970808029175,0.12023112922906876,0.4673745930194855,0.4734031558036804,0.7156211733818054,0.11609500646591187,0.702367901802063,0.5098181962966919,0.6724687814712524,0.20865340530872345,0.44620493054389954,0.4769464135169983,0.4298498332500458,0.03509080782532692,0.33768534660339355,0.5348957180976868,0.40816500782966614,0.10950636863708496,0.29335615038871765,179.04210563803397,0.506327286362648,0.4506475478410721,174.28656687847715,167.44703262683586,0.5177267467449174,0.009782799223682736,0.02787382856688508,-0.036551158950088494,0.2104627588676904,1.5010258162930847,0.5515547817338282,56,1762115177.2865891
0.5086439847946167,0.18426568806171417,0.0847548097372055,0.9984623193740845,0.47405409812927246,0.26535481214523315,-0.04350662976503372,0.9998493194580078,0.5476665496826172,0.26685526967048645,-0.02089749276638031,0.9994864463806152,0.48596256971359253,0.45166048407554626,-0.011277714744210243,0.9998292326927185,0.5290449261665344,0.4513213634490967,0.011148772202432156,0.9992783665657043,0.4767582416534424,0.5754599571228027,0.05727757140994072,0.8306674957275391,0.5216609239578247,0.5515795350074768,0.11706934124231339,0.46999332308769226,0.47454437613487244,0.7119923830032349,0.11718970537185669,0.6978872418403625,0.5104859471321106,0.6764376759529114,0.1997998207807541,0.4349841773509979,0.47262042760849,0.43273085355758667,0.016166722401976585,0.3276362717151642,0.5352930426597595,0.4068010449409485,0.11390147358179092,0.27446091175079346,178.962722391589,0.5075037479400635,0.45149092376232147,173.965490468011,166.89809321098542,0.5155056260274894,0.019228352485942412,0.013784325645012334,0.15438024584744472,-0.23028200302865506,1.1677097906371197,0.5013240959130726,57,1762115177.3477728
0.5100780725479126,0.18392592668533325,0.08555185049772263,0.9985895156860352,0.4774194657802582,0.2640848457813263,-0.04550741985440254,0.9998549818992615,0.5491377711296082,0.26541420817375183,-0.017510395497083664,0.9995005130767822,0.48788127303123474,0.4506170451641083,-0.011500385589897633,0.9998363256454468,0.5311078429222107,0.4499458372592926,0.01130726933479309,0.9993038773536682,0.4772750735282898,0.5709494948387146,0.054894864559173584,0.8318508267402649,0.5219694375991821,0.553061306476593,0.11486037820577621,0.4697246551513672,0.47471147775650024,0.7110927700996399,0.1045844554901123,0.7008259296417236,0.5115296244621277,0.6793982982635498,0.18055064976215363,0.43221673369407654,0.47161197662353516,0.4348039925098419,0.007051388267427683,0.3389807641506195,0.5362130999565125,0.4055021107196808,0.12669765949249268,0.26056933403015137,178.83157224026164,0.5094945579767227,0.45028144121170044,170.02276512182638,162.3729459778345,0.5147679951518618,0.02485892294684696,-0.015102612995611763,0.07030802269276326,-0.36070653081627224,1.061906480404012,0.5819210306624341,58,1762115177.4278572
0.5106877684593201,0.1837182193994522,0.10620994865894318,0.9986836910247803,0.4810849130153656,0.26164937019348145,-0.044739410281181335,0.9998612403869629,0.5504064559936523,0.26308074593544006,0.005042873788625002,0.9995073676109314,0.4895458221435547,0.4454904794692993,-0.01530021708458662,0.9998355507850647,0.5327084064483643,0.44498053193092346,0.015084239654242992,0.9992972016334534,0.47795891761779785,0.5706945061683655,0.034670427441596985,0.8307825326919556,0.5212420225143433,0.5535240173339844,0.09684224426746368,0.4715617001056671,0.47511887550354004,0.7118915319442749,0.07811323553323746,0.6946147680282593,0.5111094117164612,0.6807213425636292,0.14946570992469788,0.4226855933666229,0.465414434671402,0.4359413683414459,0.010901392437517643,0.3684512674808502,0.5400909781455994,0.40556132793426514,0.1562240868806839,0.24721871316432953,178.55324717331706,0.5111271142959595,0.4452355057001114,173.96168335174752,165.5081408062967,0.5129453797030682,0.018652429673092587,-0.05765127742047959,-0.0709109866172017,-0.486130837581089,1.182895431980979,0.7119373812656026,59,1762115177.5153823
0.5106202363967896,0.18362249433994293,0.11157117038965225,0.998748242855072,0.4817472994327545,0.2598781883716583,-0.045559220016002655,0.9998666048049927,0.5506356954574585,0.2616328299045563,0.009941053576767445,0.9995152354240417,0.49021467566490173,0.4417872130870819,-0.018508946523070335,0.9998284578323364,0.5326892137527466,0.44171279668807983,0.018327176570892334,0.9992822408676147,0.47986406087875366,0.5720577239990234,0.02781599387526512,0.8250935673713684,0.5207458138465881,0.5572966933250427,0.0872139185667038,0.47524550557136536,0.4769999384880066,0.7101605534553528,0.0723598301410675,0.6866793036460876,0.5106311440467834,0.6873383522033691,0.14294013381004333,0.4167073369026184,0.46312856674194336,0.4373147189617157,0.0117050651460886,0.3952261507511139,0.5419579744338989,0.4054076373577118,0.15231475234031677,0.23734493553638458,178.49998574360063,0.5114519447088242,0.44175000488758087,176.37626834826446,172.34049248119948,0.5154159066807401,0.003975783812491975,-0.04266102298327322,-0.17963579986139006,0.18347423324985243,1.4590530177236165,0.7302409077517003,60,1762115177.5970845
0.5109818577766418,0.18373490869998932,0.11676138639450073,0.9988090395927429,0.4845762252807617,0.2575105130672455,-0.044975943863391876,0.9998716115951538,0.5512048006057739,0.25968897342681885,0.016626600176095963,0.9995278120040894,0.4908991754055023,0.44115176796913147,-0.019616656005382538,0.9998210072517395,0.5329660177230835,0.4410121440887451,0.01942548155784607,0.9992727637290955,0.48162975907325745,0.5730205774307251,0.02892269566655159,0.8178147077560425,0.5235192179679871,0.5609235763549805,0.0852261409163475,0.480286568403244,0.4789232313632965,0.7092292308807373,0.06946860253810883,0.6727036237716675,0.5110965967178345,0.6922301054000854,0.1342516392469406,0.4072876274585724,0.4609471261501312,0.43775156140327454,0.013806846924126148,0.4288443922996521,0.5445979833602905,0.3973486125469208,0.16432252526283264,0.23076657950878143,178.12999721806494,0.5119325965642929,0.4410819560289383,175.4519355310781,171.64916776409632,0.5174560193766506,0.0062462239159734164,-0.008681507645117813,0.029505092121865268,0.44157462192959546,1.8726520260946147,0.7875034995267423,61,1762115177.6740353
0.5108376741409302,0.18416985869407654,0.12137774378061295,0.9988357424736023,0.4884570240974426,0.2534744441509247,-0.044983871281147,0.9998776316642761,0.5517804622650146,0.25821682810783386,0.024290746077895164,0.9995369911193848,0.4916630685329437,0.4396511912345886,-0.02359817922115326,0.9998146295547485,0.5331524610519409,0.4380972981452942,0.023387989029288292,0.999255359172821,0.48127585649490356,0.5723277926445007,0.021697398275136948,0.8065515756607056,0.5228262543678284,0.5604667067527771,0.08584392070770264,0.47431087493896484,0.47854796051979065,0.7098608613014221,0.05962633341550827,0.6571699976921082,0.5113643407821655,0.6933820247650146,0.13277918100357056,0.39494070410728455,0.46070900559425354,0.43831688165664673,0.014680495485663414,0.46528178453445435,0.5456196069717407,0.38934728503227234,0.17458811402320862,0.2283603399991989,177.58756072434008,0.5124077647924423,0.4388742446899414,175.31506255019283,172.4029659708199,0.5183069986719296,0.00637698780917032,-0.02962855565865677,0.0017549147931121653,-0.281119531793359,4.282968478898649,1.086680082023989,62,1762115177.7485483
0.5104091763496399,0.1842329055070877,0.12605202198028564,0.998853862285614,0.48999470472335815,0.25252479314804077,-0.04895263537764549,0.9998838901519775,0.5526362061500549,0.257232129573822,0.035272739827632904,0.9995515942573547,0.4929744601249695,0.4357077181339264,-0.029062768444418907,0.9998053312301636,0.533774733543396,0.4335031807422638,0.02885136380791664,0.9992338418960571,0.48196759819984436,0.5718499422073364,0.001664780080318451,0.7912807464599609,0.5224887132644653,0.5637030005455017,0.07527594268321991,0.4627229571342468,0.47835293412208557,0.7105084657669067,0.027557790279388428,0.6454424858093262,0.5112794637680054,0.6970883011817932,0.11062165349721909,0.3818587362766266,0.46061643958091736,0.44082704186439514,0.009202007204294205,0.5025723576545715,0.5450552701950073,0.3815351724624634,0.1814294159412384,0.2240249365568161,177.4701519425183,0.5133745968341827,0.4346054494380951,176.238034335707,175.19734372471498,0.5229112070624026,0.013671736719137186,-0.06036399526652754,0.10315326987896492,-0.4346223750604354,4.297542719160533,1.0712133944086135,63,1762115177.8192658
0.5085971355438232,0.18439394235610962,0.1229039654135704,0.9988217353820801,0.49101200699806213,0.2516390383243561,-0.06294503062963486,0.9998888373374939,0.5520439743995667,0.25413215160369873,0.03714127093553543,0.99956214427948,0.4933798909187317,0.4375046491622925,-0.035518087446689606,0.999776303768158,0.5337444543838501,0.43531888723373413,0.03531227260828018,0.9991723299026489,0.4823823869228363,0.5730811357498169,0.0003746506117749959,0.7740653157234192,0.5227450728416443,0.5694311857223511,0.08074305951595306,0.45139726996421814,0.4781626760959625,0.7104400396347046,0.03637716919183731,0.6322188377380371,0.5114030241966248,0.6996227502822876,0.12441913783550262,0.37108978629112244,0.4601575434207916,0.4433338940143585,-0.008576156571507454,0.5395258665084839,0.5451826453208923,0.3803732097148895,0.18557491898536682,0.2266170084476471,177.5146789333355,0.5135621726512909,0.4364117681980133,177.15655649766555,179.33518364540873,0.522552328076927,0.0024108956856688456,0.023216458136064305,-0.14473461175934985,1.0742523083259163,2.339192080028007,1.0236367455959492,64,1762115177.8970692
