nose_x,nose_y,nose_z,nose_visibility,left_shoulder_x,left_shoulder_y,left_shoulder_z,left_shoulder_visibility,right_shoulder_x,right_shoulder_y,right_shoulder_z,right_shoulder_visibility,left_hip_x,left_hip_y,left_hip_z,left_hip_visibility,right_hip_x,right_hip_y,right_hip_z,right_hip_visibility,left_knee_x,left_knee_y,left_knee_z,left_knee_visibility,right_knee_x,right_knee_y,right_knee_z,right_knee_visibility,left_ankle_x,left_ankle_y,left_ankle_z,left_ankle_visibility,right_ankle_x,right_ankle_y,right_ankle_z,right_ankle_visibility,left_wrist_x,left_wrist_y,left_wrist_z,left_wrist_visibility,right_wrist_x,right_wrist_y,right_wrist_z,right_wrist_visibility,trunk_lateral_inclination,center_mass_x,center_mass_y,left_knee_angle,right_knee_angle,person_height,center_mass_velocity_x,center_mass_velocity_y,center_mass_acceleration_x,center_mass_acceleration_y,body_orientation,torso_leg_ratio,frame,timestamp
0.500127911567688,0.3582976162433624,-0.10653984546661377,0.9997771382331848,0.5371106863021851,0.4394221305847168,-0.18602116405963898,0.9999778270721436,0.5199448466300964,0.41634562611579895,0.0323118194937706,0.9996080994606018,0.5189389586448669,0.6349653005599976,-0.06585720181465149,0.9999040365219116,0.5049542784690857,0.60932856798172,0.0658792182803154,0.999841570854187,0.4276864528656006,0.661174476146698,-0.05688721686601639,0.9696253538131714,0.44554510712623596,0.6304479241371155,0.11037276685237885,0.767324686050415,0.4382292628288269,0.78331458568573,0.05465611815452576,0.9191471934318542,0.4762653708457947,0.7638946771621704,0.17594577372074127,0.6725111603736877,0.4811503291130066,0.6180849671363831,-0.16402676701545715,0.9970790147781372,0.47256994247436523,0.5320401191711426,0.08816483616828918,0.39153602719306946,175.12139489548375,0.5119466185569763,0.6221469342708588,101.82656392290629,109.49713163183756,0.47279170783073443,0.0,0.0,0.0,0.0,-126.64432525019372,0.8036407755686016,0,1762115178.4430387
0.5006536245346069,0.357028067111969,-0.08369249850511551,0.9997851252555847,0.5367871522903442,0.4358823001384735,-0.16749480366706848,0.9999775290489197,0.5197839140892029,0.4164794981479645,0.04446982964873314,0.9995937347412109,0.5175318121910095,0.6351169347763062,-0.06537188589572906,0.999905526638031,0.5049911737442017,0.6099777221679688,0.06541020423173904,0.9998374581336975,0.42779427766799927,0.6611009836196899,-0.06578699499368668,0.9705682992935181,0.4449633061885834,0.6311873197555542,0.10556201636791229,0.7656443119049072,0.43802762031555176,0.7848892211914062,0.031377993524074554,0.9225493669509888,0.484346479177475,0.7557881474494934,0.1621890664100647,0.6715502738952637,0.48020505905151367,0.6185075044631958,-0.1499365270137787,0.9969709515571594,0.47256940603256226,0.5326772928237915,0.09493888914585114,0.3903576731681824,175.0451160059013,0.5112614929676056,0.6225473284721375,98.81482288597238,103.772999481955,0.45271942047569874,-0.00828105368114071,0.004839530045070487,-0.1000923788774544,0.05849498065242506,-131.22902398806883,0.6861970779982001,1,1762115178.5257728
0.5006494522094727,0.3550814092159271,-0.08556096255779266,0.9997919797897339,0.5360944271087646,0.435720831155777,-0.1677999198436737,0.9999771118164062,0.5193919539451599,0.41702502965927124,0.043398790061473846,0.999591052532196,0.5148303508758545,0.6355408430099487,-0.06502790749073029,0.999907374382019,0.5049635171890259,0.612044632434845,0.06507191061973572,0.9998359084129333,0.4278177320957184,0.6608880758285522,-0.06418682634830475,0.9715819358825684,0.44643735885620117,0.6326133012771606,0.11211799085140228,0.7646292448043823,0.43785303831100464,0.7848701477050781,0.03854130581021309,0.9252045750617981,0.4883858561515808,0.755400538444519,0.16264772415161133,0.6700925827026367,0.47967225313186646,0.6188878417015076,-0.15324506163597107,0.996878981590271,0.4720749258995056,0.5326827764511108,0.10837952047586441,0.39303553104400635,174.83464432311007,0.5098969340324402,0.6237927377223969,99.27136956033738,103.04728526437196,0.45643414760844736,-0.017854914537247035,0.01629587052213546,-0.12527158994166315,0.1499033679353719,-131.77699513755383,0.6865819238846848,2,1762115178.6021976
0.5011239051818848,0.35562875866889954,-0.09816804528236389,0.9998038411140442,0.5360126495361328,0.4375900328159332,-0.17078045010566711,0.9999767541885376,0.5184326767921448,0.41775721311569214,0.03405630588531494,0.9996029138565063,0.5144411325454712,0.6366996169090271,-0.06491623818874359,0.9999094009399414,0.5049441456794739,0.6133196353912354,0.06496023386716843,0.9998371601104736,0.4279250204563141,0.6605342626571655,-0.06658568233251572,0.9725757241249084,0.4475197196006775,0.6354299187660217,0.11355502903461456,0.7663947939872742,0.4378207325935364,0.78501957654953,0.039258334785699844,0.9280955195426941,0.4923369884490967,0.7558085322380066,0.16574305295944214,0.6752983927726746,0.47939905524253845,0.6190492510795593,-0.15759840607643127,0.9966855049133301,0.4718111455440521,0.5331233143806458,0.10488102585077286,0.3987390697002411,174.9235476789915,0.5096926391124725,0.6250096261501312,97.56410909737116,103.96662343410398,0.462183978160408,-0.002666958197035105,0.015885811393338792,0.19827044482629955,-0.005353097154772691,-131.5540409777863,0.6407760264512038,3,1762115178.6787999
0.5014398097991943,0.35590192675590515,-0.09704931080341339,0.9998133778572083,0.535151481628418,0.43813377618789673,-0.17298248410224915,0.9999765157699585,0.5184401273727417,0.41928303241729736,0.035822175443172455,0.9996099472045898,0.5144702196121216,0.6396676301956177,-0.06532886624336243,0.9999098777770996,0.5062155723571777,0.616777777671814,0.06537314504384995,0.9998357892036438,0.4286910593509674,0.6594893336296082,-0.06554131954908371,0.9730237126350403,0.4490395188331604,0.6391153335571289,0.11501538753509521,0.7655494213104248,0.43801790475845337,0.7849043011665344,0.039440710097551346,0.9307529330253601,0.4944775104522705,0.7560224533081055,0.17296496033668518,0.67972332239151,0.4791981279850006,0.6195910573005676,-0.1585855633020401,0.9964641332626343,0.4717840552330017,0.5345228910446167,0.10927703231573105,0.3973141014575958,175.28578146393266,0.5103428959846497,0.6282227039337158,96.62305088374595,105.36371216518667,0.46304547848351485,0.008756152060639334,0.04326628269461059,0.15381996669525563,0.36869671119846636,-131.55727750839117,0.6008347171095623,4,1762115178.7530627
0.5017861127853394,0.35614368319511414,-0.09621031582355499,0.999822199344635,0.5348222851753235,0.4381788969039917,-0.17306454479694366,0.9999760389328003,0.5184651017189026,0.4195450246334076,0.0358157642185688,0.9996151328086853,0.5142784118652344,0.6394987106323242,-0.06531040370464325,0.9999099373817444,0.5061913132667542,0.6167169809341431,0.06535308063030243,0.999833881855011,0.429063081741333,0.6578590273857117,-0.07261843234300613,0.973675549030304,0.4498666822910309,0.6386578679084778,0.11056783050298691,0.7652546167373657,0.43803563714027405,0.7843876481056213,0.028358343988656998,0.933458685874939,0.49490857124328613,0.7562639713287354,0.16675487160682678,0.6842707991600037,0.47905731201171875,0.6197595596313477,-0.1583411693572998,0.996233344078064,0.47181177139282227,0.5354811549186707,0.1068277582526207,0.3964053988456726,175.29204886251395,0.5102348625659943,0.6281078457832336,93.31658226013896,104.3707174704543,0.4586278816458357,-0.0014272687470273436,-0.0015174327589085193,-0.13453687236328796,-0.591653936699531,-131.27730437725293,0.607549463064774,5,1762115178.8287551
0.5021609663963318,0.3571932017803192,-0.09759902209043503,0.9998302459716797,0.5348390340805054,0.4384203553199768,-0.17391139268875122,0.9999756813049316,0.5184853672981262,0.41990232467651367,0.03413624316453934,0.9996179342269897,0.514213502407074,0.63937908411026,-0.06527432799339294,0.9999093413352966,0.5061613321304321,0.6167283654212952,0.06531665474176407,0.9998294711112976,0.4292769432067871,0.6578911542892456,-0.07319528609514236,0.9740452170372009,0.4500451683998108,0.6390644311904907,0.10967333614826202,0.764218270778656,0.4379993975162506,0.7847071886062622,0.0295089278370142,0.9353970885276794,0.4937199652194977,0.7565371990203857,0.16739144921302795,0.6869292259216309,0.47897952795028687,0.619888424873352,-0.15935027599334717,0.996086061000824,0.4718145728111267,0.5357055068016052,0.10296131670475006,0.3968476951122284,175.26484865176144,0.510187417268753,0.6280537247657776,93.18752206943034,105.32614907888471,0.4589952153684035,-0.0006556124045820388,-0.0007478593760810192,0.010662963446293193,0.010634180526950662,-131.4484079350668,0.6288175142028931,6,1762115178.901123
0.5014175176620483,0.3571043610572815,-0.09382624179124832,0.9998357892036438,0.5344640612602234,0.43820181488990784,-0.1732669174671173,0.9999751448631287,0.5183649063110352,0.42022743821144104,0.0369231142103672,0.9996162056922913,0.5140092372894287,0.6393255591392517,-0.0652695745229721,0.9999078512191772,0.5059463977813721,0.6176847815513611,0.06531092524528503,0.9998281002044678,0.42934465408325195,0.6580400466918945,-0.07160060107707977,0.9743453860282898,0.4513816237449646,0.6445906162261963,0.10969678312540054,0.7651420831680298,0.43795451521873474,0.7845878005027771,0.031047504395246506,0.9362799525260925,0.49571675062179565,0.7646904587745667,0.16792038083076477,0.6919482350349426,0.4790547490119934,0.6200022101402283,-0.16008399426937103,0.9960185289382935,0.4717794954776764,0.5359760522842407,0.10185258090496063,0.3932194709777832,175.2851504648795,0.5099778175354004,0.6285051703453064,93.9992769158821,108.70291140151974,0.46141089835526844,-0.0024668537355313925,0.005313223430375307,-0.021317142783209255,0.07133503713630585,-131.8499298872925,0.6208725696126932,7,1762115178.9860895
0.5006245374679565,0.3573510944843292,-0.0941585823893547,0.9998446702957153,0.5336788296699524,0.4395579993724823,-0.17350086569786072,0.99997478723526,0.5183748006820679,0.420854389667511,0.033901818096637726,0.9996216893196106,0.5139814615249634,0.6400474309921265,-0.064952053129673,0.9999068379402161,0.5058414340019226,0.6177237033843994,0.06499776244163513,0.999824047088623,0.4294736981391907,0.6583976745605469,-0.06754045188426971,0.9747889637947083,0.4515066146850586,0.6439806818962097,0.11153575032949448,0.765301525592804,0.4379292130470276,0.7847815752029419,0.03708995133638382,0.9379461407661438,0.4950945973396301,0.7645553350448608,0.17066366970539093,0.6952313780784607,0.4789946973323822,0.620059609413147,-0.15979066491127014,0.995841383934021,0.47173547744750977,0.5383247137069702,0.10124950110912323,0.38768187165260315,175.36275194609343,0.509911447763443,0.6288855671882629,95.3840305908099,109.25914539462133,0.46317973618995534,-0.0007941319107662464,0.00455154903862612,0.020014559937524254,-0.009113635955985574,-129.29138049774332,0.6192799826053343,8,1762115179.0696647
0.4994172155857086,0.3578110933303833,-0.09409396350383759,0.9998523592948914,0.5327221155166626,0.4399680197238922,-0.17357274889945984,0.9999741911888123,0.5181456208229065,0.42204052209854126,0.035143911838531494,0.9996309876441956,0.5135780572891235,0.6406905055046082,-0.06490496546030045,0.9999052286148071,0.5054568648338318,0.6188135147094727,0.06495009362697601,0.9998229146003723,0.4294811189174652,0.6589087247848511,-0.06738683581352234,0.9750939607620239,0.4538012146949768,0.6480864882469177,0.11561498790979385,0.765872061252594,0.4378804564476013,0.7845414876937866,0.045768074691295624,0.9386794567108154,0.49741196632385254,0.7665021419525146,0.17638471722602844,0.701169490814209,0.47900041937828064,0.6202007532119751,-0.1589544713497162,0.9956889748573303,0.47172456979751587,0.538223922252655,0.10077957808971405,0.38496822118759155,175.42132713614325,0.5095174610614777,0.6297520101070404,95.12400078179802,113.11752404928731,0.4664617025650174,-0.005124174007956811,0.011268919132626957,-0.05631634026504546,0.08736582495247336,-129.11387980300591,0.6120272177357498,9,1762115179.1465526
0.4988057613372803,0.3583202362060547,-0.09271369129419327,0.9998592734336853,0.532713770866394,0.4401475787162781,-0.17170031368732452,0.9999737739562988,0.5176897644996643,0.422648161649704,0.03570590913295746,0.999636709690094,0.5133742690086365,0.6411927938461304,-0.06457709521055222,0.9999042749404907,0.5050082802772522,0.6191887855529785,0.06462245434522629,0.999821126461029,0.4295097887516022,0.6594235897064209,-0.071115642786026,0.9756870865821838,0.4540674686431885,0.6498087644577026,0.11330381780862808,0.7675541639328003,0.4378023147583008,0.7845363020896912,0.04282983019948006,0.9399154782295227,0.49904194474220276,0.7660781145095825,0.1701427400112152,0.7070355415344238,0.4790087640285492,0.6203020215034485,-0.15571202337741852,0.9955910444259644,0.4716602861881256,0.5381399393081665,0.10125742852687836,0.3837655782699585,175.39541976844671,0.5091912746429443,0.6301907896995544,93.30358062256302,112.54453230227953,0.4631219391928737,-0.0030180182167524414,0.004059779095956711,0.019487066855065974,-0.06670209034337003,-130.6475166260062,0.6011185645382223,10,1762115179.2556472
0.4983949065208435,0.35969361662864685,-0.09504920989274979,0.9998679161071777,0.5327667593955994,0.43994811177253723,-0.17058323323726654,0.9999736547470093,0.516951322555542,0.4231247305870056,0.03275429829955101,0.9996412396430969,0.5131016969680786,0.6410861015319824,-0.06374423950910568,0.9999030232429504,0.5038405656814575,0.6191245317459106,0.06378620862960815,0.9998185634613037,0.4294954836368561,0.660492479801178,-0.07404138892889023,0.9767339825630188,0.45324286818504333,0.6494759321212769,0.10513514280319214,0.7740490436553955,0.4377821087837219,0.7852283716201782,0.032025378197431564,0.9419520497322083,0.4978572726249695,0.7639082074165344,0.15256927907466888,0.7158702611923218,0.4789998531341553,0.6203034520149231,-0.1506883054971695,0.995457112789154,0.471412718296051,0.5414037704467773,0.07356657832860947,0.382382333278656,175.28206615475293,0.5084711313247681,0.6301053166389465,92.57061604934991,109.56567815668599,0.45623959004704095,-0.008261829281968945,-0.0009805879151087125,-0.06015951368879351,-0.05782550599698506,-133.23116729529957,0.6195452237349406,11,1762115179.3417974
0.49688848853111267,0.35970985889434814,-0.08941369503736496,0.9998717904090881,0.5315528512001038,0.43866512179374695,-0.16721919178962708,0.9999727606773376,0.5168311595916748,0.42310112714767456,0.03577963262796402,0.9996343851089478,0.5130589604377747,0.6410565376281738,-0.06329359114170074,0.9998995065689087,0.5035744309425354,0.6189921498298645,0.06334200501441956,0.9998111128807068,0.42947322130203247,0.6611530780792236,-0.07812722027301788,0.9774382710456848,0.4514274597167969,0.6471008062362671,0.09936805814504623,0.7778257131576538,0.4377511143684387,0.7851411700248718,0.028298471122980118,0.9430617690086365,0.4961854815483093,0.762683093547821,0.14629802107810974,0.7207063436508179,0.47900405526161194,0.6203024983406067,-0.14773011207580566,0.9951128363609314,0.47146472334861755,0.5420730710029602,0.082132987678051,0.3697606325149536,175.44208516018594,0.508316695690155,0.6300243437290192,90.8876876655774,106.47033317741929,0.4513156886410382,-0.001298827596301725,-0.000680994708443031,0.058559922164988225,0.0025196252500720743,-133.40690511989968,0.5986400384060809,12,1762115179.4607012
0.4937604069709778,0.36010420322418213,-0.09182125329971313,0.9998713731765747,0.5303699374198914,0.435757577419281,-0.17178931832313538,0.9999728798866272,0.5159528851509094,0.42305904626846313,0.03596166521310806,0.9996234178543091,0.5130289793014526,0.6412794589996338,-0.0654744878411293,0.9998960494995117,0.5028327703475952,0.6189367175102234,0.06550974398851395,0.999804675579071,0.42935943603515625,0.6617061495780945,-0.07768209278583527,0.9776757955551147,0.45007556676864624,0.6479453444480896,0.1016523614525795,0.7815590500831604,0.4376373291015625,0.7852433323860168,0.030567403882741928,0.9438149333000183,0.49778228998184204,0.7626557350158691,0.15215006470680237,0.7261385917663574,0.4790036082267761,0.6207908987998962,-0.14841489493846893,0.9948791265487671,0.471472829580307,0.5436683893203735,0.07927879691123962,0.358397513628006,175.66030370888532,0.5079308748245239,0.6301080882549286,92.04033753712234,106.25226810952557,0.4533227316591981,-0.003954696637560881,0.0008583885023594992,-0.027222883215735807,0.015778808638875395,-138.62641984012058,0.5440777626143304,13,1762115179.5582614
0.4909917712211609,0.36110538244247437,-0.0978904739022255,0.9998760223388672,0.5269543528556824,0.4358299970626831,-0.17815649509429932,0.9999733567237854,0.514544665813446,0.4232577085494995,0.03496302664279938,0.9996268153190613,0.5129159688949585,0.6415098309516907,-0.06762254983186722,0.9998926520347595,0.5025442838668823,0.6190809011459351,0.06764792650938034,0.9997982978820801,0.4291037917137146,0.662666380405426,-0.08927389979362488,0.978367030620575,0.449749618768692,0.6501107215881348,0.10284645855426788,0.7881081104278564,0.43741923570632935,0.785226583480835,0.025454778224229813,0.9457901120185852,0.49959105253219604,0.7628136277198792,0.15490983426570892,0.7379791140556335,0.47843679785728455,0.6208054423332214,-0.15377672016620636,0.9946373701095581,0.47157198190689087,0.5494446158409119,0.07941682636737823,0.3484593331813812,176.28938034284798,0.5077301263809204,0.6302953660488129,87.75027672793026,106.59066763435916,0.45428579950430525,-0.0022086404532696796,0.0020604359572961206,0.019210162993461493,0.01322496248571857,-134.62708127500275,0.44771781904866814,14,1762115179.6491537
0.4882165491580963,0.36201587319374084,-0.08687697350978851,0.9998695254325867,0.523818850517273,0.4348941743373871,-0.1703035980463028,0.999972939491272,0.5145326256752014,0.42334243655204773,0.038804735988378525,0.999601423740387,0.5125116109848022,0.6413005590438843,-0.06706325709819794,0.9998853802680969,0.5026839971542358,0.6190878748893738,0.06709616631269455,0.9997785091400146,0.4287198483943939,0.6624751091003418,-0.08569339662790298,0.9790324568748474,0.4473639130592346,0.6401065587997437,0.10094557702541351,0.790403425693512,0.4373934268951416,0.785610020160675,0.018950307741761208,0.9475526809692383,0.4961838126182556,0.7565727233886719,0.14807870984077454,0.7408483028411865,0.47828611731529236,0.6207176446914673,-0.14812424778938293,0.9942973256111145,0.4720628261566162,0.5623165369033813,0.06869249045848846,0.32755112648010254,176.70455259367026,0.507597804069519,0.630194216966629,89.7237961068373,98.40052656284584,0.44366110595636066,-0.001896482793262873,-0.001449698783859052,0.004473936592540462,-0.05030829697678809,-128.7951471498756,0.40274242140164307,15,1762115179.7189262
0.48544248938560486,0.36365562677383423,-0.08757512271404266,0.9998722672462463,0.5219193696975708,0.4358847737312317,-0.17052727937698364,0.9999738335609436,0.5120168924331665,0.4251813292503357,0.03925783559679985,0.9995977878570557,0.5125911831855774,0.6438102126121521,-0.06705891340970993,0.9998858571052551,0.5027002096176147,0.6192460060119629,0.06709513813257217,0.999773383140564,0.42852646112442017,0.6636723875999451,-0.08402420580387115,0.9798596501350403,0.44595837593078613,0.6332758665084839,0.1037590503692627,0.7925273776054382,0.4375670850276947,0.7876396775245667,0.01952042058110237,0.9499853849411011,0.49482208490371704,0.7501328587532043,0.1499078869819641,0.7446880340576172,0.47795581817626953,0.6207166910171509,-0.14859317243099213,0.9941085577011108,0.4714867174625397,0.5659030675888062,0.07437218725681305,0.3105038106441498,177.34444397348588,0.5076456964015961,0.6315281093120575,89.78113740335571,93.44427618527484,0.4407561109287736,0.0005600942436113706,0.015599687713477115,0.028729330931895853,0.19939023263484248,-132.77399190120508,0.321983251251723,16,1762115179.8044338
0.479694128036499,0.3689882457256317,-0.08397641032934189,0.999856173992157,0.5181751847267151,0.4359019100666046,-0.17078210413455963,0.9999743700027466,0.5074136853218079,0.4267839193344116,0.043028902262449265,0.9995493292808533,0.5128496885299683,0.6464328169822693,-0.06850279867649078,0.9998821020126343,0.5030690431594849,0.6235556602478027,0.06855358183383942,0.999758780002594,0.4280189871788025,0.6654596328735352,-0.09141608327627182,0.9805400371551514,0.4462134838104248,0.6390174627304077,0.10401348024606705,0.7936097979545593,0.4373401701450348,0.7882271409034729,0.02159741148352623,0.951645016670227,0.5001970529556274,0.7515313625335693,0.15123994648456573,0.7517522573471069,0.4779115617275238,0.6208618879318237,-0.15471872687339783,0.9939213395118713,0.47078704833984375,0.5844843983650208,0.07275589555501938,0.2907260060310364,178.6399448910668,0.5079593658447266,0.634994238615036,86.01472973983752,92.15482721900251,0.43573782491149177,0.004241270035719352,0.04686714206501696,0.04977488539356303,0.42278175365407983,-139.72609941789275,0.15275050506536936,17,1762115179.8783903
0.4723300337791443,0.3733147382736206,-0.07315286248922348,0.9998354911804199,0.5122024416923523,0.4361238181591034,-0.16872578859329224,0.9999732971191406,0.5032216906547546,0.4284888505935669,0.05084800720214844,0.9994760751724243,0.5136563777923584,0.6472839713096619,-0.06918880343437195,0.9998776912689209,0.5047483444213867,0.6266483068466187,0.06922529637813568,0.9997461438179016,0.42758259177207947,0.6668522953987122,-0.11071290820837021,0.9809480309486389,0.4520539343357086,0.6603118181228638,0.09886734187602997,0.793381929397583,0.43718671798706055,0.7895365953445435,0.02044736035168171,0.9522667527198792,0.5110376477241516,0.7592092752456665,0.15020659565925598,0.76217120885849,0.4768804907798767,0.6216585636138916,-0.15430912375450134,0.9934678077697754,0.4710974097251892,0.6026630401611328,0.04893413931131363,0.269109308719635,-179.58279008005513,0.5092023611068726,0.6369661390781403,77.24993337597988,101.5223732164131,0.4312385804826345,0.01781704845649373,0.028265148848479048,0.19459470950835286,-0.2666402878754458,-139.63054071983655,0.04345526806698334,18,1762115179.9481547
0.4641560912132263,0.376409113407135,-0.05902820825576782,0.9997946619987488,0.5045537948608398,0.43741390109062195,-0.16924864053726196,0.9999719858169556,0.4997252821922302,0.4298836588859558,0.050273358821868896,0.9994081258773804,0.5137888789176941,0.6487939357757568,-0.06990807503461838,0.9998785853385925,0.5061764121055603,0.6289114356040955,0.06987636536359787,0.9997410774230957,0.42713648080825806,0.6666886806488037,-0.10511543601751328,0.9807141423225403,0.4566550850868225,0.6583753824234009,0.12044016271829605,0.7846730947494507,0.4371379315853119,0.7908310890197754,0.025327716022729874,0.9536537528038025,0.5072763562202454,0.7669192552566528,0.18180671334266663,0.7658437490463257,0.4758921265602112,0.6225476861000061,-0.14090558886528015,0.9919834136962891,0.4916626513004303,0.6162973046302795,0.03674600273370743,0.24771088361740112,-177.8111610752071,0.5099826455116272,0.6388526856899261,79.13435460814647,111.5760178843929,0.4341440077214898,0.01190047634631468,0.028772590087633176,-0.0902363625614066,0.007739219734370078,-122.66864709930842,0.25874286059980356,19,1762115180.0137222
0.46088728308677673,0.37604108452796936,-0.0512898787856102,0.999755322933197,0.5019148588180542,0.44252875447273254,-0.15971222519874573,0.9999696016311646,0.49781256914138794,0.4334110617637634,0.051554542034864426,0.9993438124656677,0.5136648416519165,0.6494086980819702,-0.06789238750934601,0.9998840093612671,0.5103567838668823,0.6315674185752869,0.06780503690242767,0.999737024307251,0.42641979455947876,0.6653417944908142,-0.06557787954807281,0.9806962013244629,0.46686553955078125,0.6479727625846863,0.16619619727134705,0.7574902772903442,0.43612176179885864,0.7912601232528687,0.021994154900312424,0.9557819962501526,0.5061237215995789,0.7599085569381714,0.23755934834480286,0.7520428895950317,0.47522878646850586,0.6225531697273254,-0.1204804927110672,0.9895194172859192,0.4958423972129822,0.6194707751274109,0.040434837341308594,0.22667081654071808,-176.56749449318724,0.5120108127593994,0.6404880583286285,95.7347784104424,118.33597331317218,0.4387763693841,0.02887373183671114,0.023281763905247117,0.24163748229541146,-0.07816941276729122,-114.22423326359319,0.49618323363151096,20,1762115180.0839648
0.44923463463783264,0.38063713908195496,-0.06294596195220947,0.9997004270553589,0.4918782114982605,0.45562249422073364,-0.16647487878799438,0.9999619722366333,0.4863251745700836,0.43426844477653503,0.0411517471075058,0.9992969036102295,0.5096547603607178,0.650551438331604,-0.06790971755981445,0.9998803734779358,0.510254979133606,0.6304885149002075,0.06782399863004684,0.999722421169281,0.4264589250087738,0.6625635623931885,-0.06754296272993088,0.9807259440422058,0.46392884850502014,0.6458934545516968,0.1524534672498703,0.752640426158905,0.4361334443092346,0.7909706830978394,0.02092108502984047,0.9577435255050659,0.5052998065948486,0.7596044540405273,0.2174897938966751,0.7582252025604248,0.47518450021743774,0.6233118176460266,-0.1300886869430542,0.9792541861534119,0.4915153980255127,0.6173408627510071,0.0308432225137949,0.20732571184635162,-173.9138193197797,0.5099548697471619,0.6405199766159058,93.3611082996444,113.43904355117576,0.43518912033897894,-0.030080754874943313,0.0004670003837164684,-0.8625703402261804,-0.3338056088792343,-104.57668938031935,0.8170110563370043,21,1762115180.1523123
0.44263869524002075,0.3860633373260498,-0.06473489850759506,0.9996404051780701,0.48470503091812134,0.45332658290863037,-0.1670631468296051,0.9999484419822693,0.4811583459377289,0.4367339611053467,0.038684360682964325,0.9990952014923096,0.511049747467041,0.6502669453620911,-0.06703317165374756,0.9998370409011841,0.5099703669548035,0.6303502917289734,0.06696070730686188,0.9995934963226318,0.42693576216697693,0.6627542972564697,-0.05469051003456116,0.979299008846283,0.46247920393943787,0.6398180723190308,0.13933417201042175,0.7449103593826294,0.43694573640823364,0.7908509969711304,0.02170339599251747,0.9587067365646362,0.5052425861358643,0.7566713094711304,0.2015179693698883,0.7561051845550537,0.4752126634120941,0.6247599124908447,-0.12288673222064972,0.9716469049453735,0.49157094955444336,0.6167179346084595,0.029109397903084755,0.18837596476078033,-171.9615100972714,0.5105100572109222,0.6403086185455322,97.60722569013177,107.16841048273197,0.4268689189923888,0.009160673962816387,-0.0034874389255619637,0.647489287641645,-0.06524882419477639,-102.06544709698629,1.0451229757419656,22,1762115180.2129178
0.4377123713493347,0.3935926556587219,-0.06433260440826416,0.9996274709701538,0.4806939661502838,0.46698880195617676,-0.16994699835777283,0.999936044216156,0.4766004681587219,0.43907153606414795,0.03524097800254822,0.9990209341049194,0.510966956615448,0.6532791256904602,-0.06703468412160873,0.9997923374176025,0.5098750591278076,0.6314051151275635,0.0669635757803917,0.9994668364524841,0.4272076487541199,0.6630144715309143,-0.04816373065114021,0.9779496788978577,0.4621950089931488,0.6402171850204468,0.1506565809249878,0.7422245144844055,0.4386231005191803,0.7909169793128967,0.027537787333130836,0.9596202373504639,0.5082315802574158,0.7550321817398071,0.22549588978290558,0.7541913390159607,0.4730452597141266,0.625799834728241,-0.1290910392999649,0.9665422439575195,0.4838394224643707,0.6096251010894775,0.06363236159086227,0.17272624373435974,-170.47237647933918,0.5104210078716278,0.6423421204090118,97.66250374307201,111.30055808909354,0.4261803770825945,-0.0010987136078695547,0.025089868007283574,-0.12658295751134258,0.3525941489533886,-98.34181345754577,1.1060597340905445,23,1762115180.2939665
0.42247992753982544,0.3974264860153198,-0.06391599029302597,0.9996240139007568,0.47039899230003357,0.46803176403045654,-0.16984006762504578,0.99992835521698,0.46604233980178833,0.44320911169052124,0.03689635172486305,0.9987403154373169,0.5114319324493408,0.6526524424552917,-0.0665896087884903,0.999737024307251,0.5116002559661865,0.6310258507728577,0.066532664000988,0.9992841482162476,0.42669764161109924,0.6714211702346802,-0.03722197934985161,0.9761890172958374,0.46135973930358887,0.6405009031295776,0.14572462439537048,0.7312843799591064,0.4399870038032532,0.7926547527313232,0.0460725836455822,0.959926187992096,0.5080181360244751,0.75495845079422,0.20800849795341492,0.7437966465950012,0.4733307361602783,0.630562424659729,-0.11591361463069916,0.9653857946395874,0.484417587518692,0.6069228649139404,0.04985697567462921,0.15702562034130096,-166.91139028409225,0.5115160942077637,0.6418391466140747,105.40802379214544,106.34901086494463,0.4251834556684427,0.014640795483885364,-0.006724525932277406,0.2104299232170751,-0.42534366446070354,-99.95466005853153,1.4443904009573982,24,1762115180.3687634
0.4183734953403473,0.39705967903137207,-0.04024764150381088,0.9995861053466797,0.46439775824546814,0.46390560269355774,-0.1561208814382553,0.9999247193336487,0.46368569135665894,0.44572868943214417,0.06302661448717117,0.998528003692627,0.5114996433258057,0.6536321640014648,-0.06669113785028458,0.999735951423645,0.5141698718070984,0.6305474638938904,0.06663362681865692,0.9992450475692749,0.4267147183418274,0.6711763739585876,-0.03949655964970589,0.9751238822937012,0.46598324179649353,0.6277155876159668,0.1602296084165573,0.705379843711853,0.44036826491355896,0.7959502935409546,0.04063718765974045,0.9602525234222412,0.5090974569320679,0.7356587648391724,0.22859367728233337,0.7260079383850098,0.473518043756485,0.6342915892601013,-0.1154492124915123,0.9617355465888977,0.48658013343811035,0.6128308773040771,0.04876207932829857,0.1425381749868393,-165.3965170826567,0.512834757566452,0.6420898139476776,103.74220172925831,106.42355504810193,0.41197844269736605,0.018206903703020947,0.0034609864408007137,0.04923757721222748,0.14063228626222038,-92.24337190914676,1.7189796574083254,25,1762115180.44119
0.4129238724708557,0.4038703143596649,-0.04301236942410469,0.999591588973999,0.46063241362571716,0.4689590334892273,-0.15175721049308777,0.999922513961792,0.4552140235900879,0.44910764694213867,0.061346255242824554,0.9984437823295593,0.5149185061454773,0.6521612405776978,-0.0660589188337326,0.9997119903564453,0.5136843323707581,0.6293125748634338,0.06602209806442261,0.9991589784622192,0.42700308561325073,0.674687922000885,-0.04522037133574486,0.9745773673057556,0.449934720993042,0.6275397539138794,0.13319464027881622,0.6928542256355286,0.440477192401886,0.7971013188362122,0.0385633148252964,0.9582953453063965,0.49548888206481934,0.7340611815452576,0.16638001799583435,0.715135931968689,0.47420674562454224,0.6405467987060547,-0.08231844007968903,0.9603546857833862,0.49268561601638794,0.6181834936141968,0.04947990924119949,0.12973131239414215,-162.76215370486466,0.5143014192581177,0.6407369077205658,103.84359833909366,85.5623655785267,0.393740926761336,0.018945798531549513,-0.017476347106216275,0.009544772756291044,-0.2704608059402874,-105.26687253426195,1.9101455132655427,26,1762115180.5186036
0.40272170305252075,0.40158092975616455,-0.04952207952737808,0.9995313286781311,0.4486304223537445,0.4660685956478119,-0.15655341744422913,0.9999094009399414,0.44166678190231323,0.44848519563674927,0.058325689285993576,0.9982321858406067,0.5148438215255737,0.6429125666618347,-0.0686851218342781,0.9995425343513489,0.509319007396698,0.6222559809684753,0.06872087717056274,0.9988693594932556,0.42643100023269653,0.6755809187889099,-0.046850014477968216,0.9739425182342529,0.43489518761634827,0.6418299078941345,0.11730567365884781,0.6739051938056946,0.44043630361557007,0.7967818379402161,0.04790302366018295,0.9562749862670898,0.4504455626010895,0.7518989443778992,0.17557522654533386,0.7022765874862671,0.475629985332489,0.6386232972145081,-0.10406516492366791,0.9561108946800232,0.48598021268844604,0.6164925694465637,0.04173170402646065,0.11938443034887314,-159.10301381389752,0.5120814144611359,0.632584273815155,108.69146836605931,109.57982858860797,0.4083867343593555,-0.02660856606437122,-0.0977159590671517,-0.5460061714816831,-0.9617371182011702,-111.60529535513365,4.528962762274509,27,1762115180.6020355
0.3987996578216553,0.3997974097728729,-0.003495430573821068,0.9994747042655945,0.4321736693382263,0.4649013578891754,-0.12815171480178833,0.9999125599861145,0.4455488324165344,0.4458906352519989,0.06498909741640091,0.9982702732086182,0.5069566965103149,0.643424928188324,-0.06774935126304626,0.9995773434638977,0.5147359371185303,0.6165392398834229,0.06771799921989441,0.9989413022994995,0.42469319701194763,0.6768665909767151,0.010441528633236885,0.973981499671936,0.46477818489074707,0.6327176094055176,0.19105614721775055,0.637435793876648,0.44012150168418884,0.7966700792312622,0.08568777143955231,0.9549767971038818,0.46193361282348633,0.7382792830467224,0.23168358206748962,0.692326009273529,0.4756513237953186,0.6374688744544983,-0.09176027774810791,0.9532605409622192,0.4897860586643219,0.6137154698371887,0.048881545662879944,0.11446940898895264,-157.5927422725794,0.5108463168144226,0.6299820840358734,120.79347398150738,116.89215155058713,0.40523701821558206,-0.016839683514883186,-0.03547901855806832,0.13319180946155226,0.8485566982469483,-54.87135623317155,11.439153873101683,28,1762115180.67538
0.3933146595954895,0.39983099699020386,0.0012407124741002917,0.9994696974754333,0.42133933305740356,0.4646604657173157,-0.12598735094070435,0.9999192357063293,0.4448862075805664,0.43779537081718445,0.0642707422375679,0.9983725547790527,0.501672625541687,0.6435167789459229,-0.06348931044340134,0.9996165633201599,0.5207713842391968,0.6143795847892761,0.06329340487718582,0.9990332722663879,0.4223543703556061,0.680720865726471,0.0661466047167778,0.9694129824638367,0.4856613278388977,0.6245995759963989,0.2462516576051712,0.5893345475196838,0.4397974908351898,0.7964929938316345,0.13203266263008118,0.9451554417610168,0.5007944107055664,0.7050958275794983,0.2843701243400574,0.673010528087616,0.4756346642971039,0.6366583704948425,-0.10166151821613312,0.9534525275230408,0.49374714493751526,0.613142728805542,0.0487077459692955,0.11191070824861526,-156.27419268821757,0.5112220048904419,0.6289481818675995,123.05182566618646,115.53176136144546,0.41464944283360344,0.004940940746338389,-0.013597581815958383,0.28645246086391973,0.28777831740916504,-48.76589466616181,4.795183684089935,29,1762115180.7514157
0.39327767491340637,0.3992823362350464,-0.0002940923150163144,0.9995014667510986,0.41999655961990356,0.46366673707962036,-0.12834548950195312,0.9999265074729919,0.4427054524421692,0.43481865525245667,0.0605744794011116,0.9984943866729736,0.500991702079773,0.6437652707099915,-0.06251481920480728,0.9996529221534729,0.5253485441207886,0.6105009317398071,0.0622900016605854,0.9991213083267212,0.42205414175987244,0.6839228868484497,0.07065393030643463,0.9685976505279541,0.49711814522743225,0.6138825416564941,0.24766607582569122,0.5552630424499512,0.440145343542099,0.7955308556556702,0.1450929045677185,0.93880695104599,0.5123880505561829,0.695859968662262,0.2912437915802002,0.6661821007728577,0.47581881284713745,0.6360778212547302,-0.11078985780477524,0.9557996988296509,0.4936654567718506,0.6031245589256287,0.06502727419137955,0.11110763251781464,-155.30035292113493,0.5131701231002808,0.6271331012248993,126.7919061775546,116.68354882051065,0.41786963855588205,0.028869017124969528,-0.026897543430717537,0.35458836288965084,-0.19709113013715795,-51.79056775421982,4.904766021766848,30,1762115180.818897
0.39069849252700806,0.39812567830085754,0.008344529196619987,0.9995224475860596,0.4160784184932709,0.46352916955947876,-0.12411399930715561,0.9999328255653381,0.4403800964355469,0.4248678386211395,0.058756083250045776,0.9986134171485901,0.5000070929527283,0.6440362930297852,-0.0624014250934124,0.9996864199638367,0.5251930952072144,0.6095776557922363,0.06216370314359665,0.9992046356201172,0.42158374190330505,0.682985246181488,0.0775357186794281,0.9651739597320557,0.49785786867141724,0.6165146827697754,0.2543811798095703,0.5205773711204529,0.4403003752231598,0.7921470403671265,0.15467986464500427,0.9311564564704895,0.5127164721488953,0.7036128044128418,0.3072375953197479,0.6601646542549133,0.4757443368434906,0.635132372379303,-0.1223694309592247,0.9567083120346069,0.49375495314598083,0.5925598740577698,0.0848856270313263,0.11335227638483047,-155.2015830383346,0.5126000940799713,0.6268069744110107,127.54866942892994,121.1853233304929,0.4233774414578001,-0.008465042256612886,-0.0048430468664252,-0.5544180717403233,0.32751358038527556,-57.84741812430537,5.0254782503284785,31,1762115180.8862362
0.3797270357608795,0.37393710017204285,-0.007541487459093332,0.9995582103729248,0.4089128077030182,0.4491785168647766,-0.1311882734298706,0.9999390244483948,0.4289514124393463,0.40448296070098877,0.057790357619524,0.9987276792526245,0.49768581986427307,0.6359443664550781,-0.06264536082744598,0.9997164011001587,0.5206899046897888,0.5921965837478638,0.06237717717885971,0.9992770552635193,0.421865850687027,0.6857436895370483,0.07792891561985016,0.964485228061676,0.4897617697715759,0.6063286662101746,0.26521411538124084,0.48848631978034973,0.4404301643371582,0.7921258807182312,0.1669245809316635,0.93082195520401,0.5112257599830627,0.704014778137207,0.33648476004600525,0.6505051255226135,0.4759252667427063,0.6328657865524292,-0.12218707799911499,0.9591869711875916,0.49313250184059143,0.5822012424468994,0.07467721402645111,0.1160174310207367,-154.26439393728995,0.509187862277031,0.614070475101471,134.4681176017776,126.9190544836977,0.46520923432239897,-0.04793446661285515,-0.1789202305633798,-0.5544599292470663,-2.4454074142299254,-65.85161262650787,4.509371326176114,32,1762115180.9574215
0.3774619400501251,0.3563865125179291,-0.008884700015187263,0.9995962977409363,0.40427035093307495,0.4345974326133728,-0.13782842457294464,0.999944806098938,0.4249963164329529,0.38875171542167664,0.06427613645792007,0.9988439679145813,0.4920558035373688,0.6244582533836365,-0.06595832854509354,0.9997442960739136,0.5122776627540588,0.5768789052963257,0.06566941738128662,0.9993472695350647,0.4213266372680664,0.6872770190238953,0.0673525333404541,0.9620342254638672,0.48606616258621216,0.6024442911148071,0.2800285220146179,0.4584653675556183,0.4404267370700836,0.7923145890235901,0.13863006234169006,0.9283830523490906,0.5091108679771423,0.6909615993499756,0.2869485914707184,0.6497257947921753,0.47618526220321655,0.627322256565094,-0.1353282779455185,0.9619513750076294,0.49279385805130005,0.5747079849243164,0.06992600858211517,0.12704847753047943,-155.14858042448898,0.5021667331457138,0.6006685793399811,134.65807428751782,99.06294789641417,0.4550019570005535,-0.1032601072968898,-0.1971023703495915,-0.8136770434573767,-0.2674056651140182,-65.67319070912123,4.153738299355,33,1762115181.0254161
0.37597399950027466,0.35760414600372314,-0.012862330302596092,0.9996258020401001,0.405148446559906,0.43439382314682007,-0.15317511558532715,0.9999498724937439,0.42588701844215393,0.39141935110092163,0.06195179745554924,0.9989468455314636,0.4940875470638275,0.6257061958312988,-0.06851394474506378,0.9997692704200745,0.5075874924659729,0.5782359838485718,0.06834552437067032,0.9994094967842102,0.42063313722610474,0.6885859370231628,0.048149432986974716,0.9628515243530273,0.46874818205833435,0.5925787091255188,0.2764882743358612,0.4374348521232605,0.4404238164424896,0.7919496297836304,0.13296684622764587,0.9220781326293945,0.4880867898464203,0.6831561326980591,0.3164341151714325,0.6454774737358093,0.4770506024360657,0.6251193284988403,-0.1448148787021637,0.9633765816688538,0.48402413725852966,0.5762969255447388,0.058866776525974274,0.13530677556991577,-155.71160804959854,0.5008375197649002,0.6019710898399353,136.84159738368734,114.45648314381238,0.4567173295952766,-0.017247206479235756,0.016900723283670743,1.1160602817375191,2.7767968607334503,-64.23902564616034,4.3606941552483205,34,1762115181.1024845
0.3718479573726654,0.34851980209350586,-0.029248550534248352,0.9996423125267029,0.4049723744392395,0.43655815720558167,-0.17391036450862885,0.9999542236328125,0.42223411798477173,0.38789641857147217,0.04759747534990311,0.9990177750587463,0.49065476655960083,0.625029444694519,-0.0697113424539566,0.9997910857200623,0.4985019266605377,0.5775977969169617,0.06957773864269257,0.9994615316390991,0.42121678590774536,0.6880444884300232,0.04779069498181343,0.9631525874137878,0.45189228653907776,0.6211114525794983,0.262728750705719,0.42708495259284973,0.4495279788970947,0.7781492471694946,0.12457946687936783,0.920972466468811,0.4566066861152649,0.7372916340827942,0.3141618072986603,0.6460116505622864,0.4778147339820862,0.6239057183265686,-0.1725510060787201,0.9652041792869568,0.48012375831604004,0.5793858170509338,0.04606560617685318,0.1373334378004074,-156.81725727432314,0.4945783466100693,0.6013136208057404,134.0989541308815,124.82691903096054,0.48564724844999235,-0.09350879598793245,-0.009822245888734938,-1.1393085378346253,-0.3992272798214011,-70.46891391666347,4.903481853083003,35,1762115181.1694212
0.37391576170921326,0.3394452631473541,-0.04107946902513504,0.9996675848960876,0.4003871977329254,0.4238946735858917,-0.16818656027317047,0.9999579787254333,0.4232562184333801,0.3836820423603058,0.03229788318276405,0.9990987181663513,0.4838767945766449,0.6241005659103394,-0.06755933910608292,0.9998112916946411,0.5015150308609009,0.5741637945175171,0.0673316940665245,0.9995121955871582,0.41759610176086426,0.6882390975952148,0.09661352634429932,0.9599313735961914,0.47927552461624146,0.5923675894737244,0.29035696387290955,0.4038010835647583,0.44827452301979065,0.7793012857437134,0.15567873418331146,0.9181762933731079,0.495371013879776,0.6879486441612244,0.31070125102996826,0.6419212222099304,0.47603362798690796,0.6237549185752869,-0.15859253704547882,0.9635394215583801,0.4871841073036194,0.575416624546051,0.04444601386785507,0.141365647315979,-157.50997877379314,0.4926959127187729,0.5991321802139282,129.4768679819326,105.41296396202948,0.4900889275099478,-0.026182272789072786,-0.030341077533749615,0.9364267210034185,-0.2853909770360415,-60.373005453749364,3.4579425064012725,36,1762115181.2413185
0.3720012307167053,0.31205612421035767,-0.05698990076780319,0.9996829628944397,0.39727720618247986,0.4068377614021301,-0.16447927057743073,0.9999602437019348,0.42113739252090454,0.37633296847343445,0.03371509164571762,0.9991505742073059,0.47846871614456177,0.6156851649284363,-0.06647874414920807,0.9998279809951782,0.4993780553340912,0.575799286365509,0.06623242795467377,0.9995536804199219,0.41763439774513245,0.6879974007606506,0.09611435979604721,0.9551846385002136,0.4898007810115814,0.5979684591293335,0.28032809495925903,0.3905388414859772,0.4459390640258789,0.7795769572257996,0.1471482813358307,0.9191879630088806,0.5065475702285767,0.7077770829200745,0.29628971219062805,0.6465746760368347,0.470712810754776,0.6195594072341919,-0.15434321761131287,0.9578899145126343,0.4876810908317566,0.5738927125930786,0.050248850136995316,0.1381702572107315,-158.67110024088984,0.4889233857393265,0.5957422256469727,130.25896453150304,103.61410625858916,0.5242534309734158,-0.05690297836531546,-0.05113244051900227,-0.4633763136211375,-0.3136068965393753,-51.96825467826739,3.5387335114231155,37,1762115181.307616
0.3694019913673401,0.29025959968566895,-0.049274545162916183,0.9996779561042786,0.3972422182559967,0.38392555713653564,-0.16208821535110474,0.9999603033065796,0.4207865595817566,0.36227670311927795,0.03493587672710419,0.9991918206214905,0.4740893840789795,0.6072796583175659,-0.06648006290197372,0.9998418092727661,0.4943147301673889,0.5679776072502136,0.06623444706201553,0.9995881915092468,0.4155307412147522,0.6875161528587341,0.07801736146211624,0.9482696652412415,0.4890323579311371,0.598480761051178,0.27806586027145386,0.37298819422721863,0.44552454352378845,0.7817530035972595,0.13759824633598328,0.9125725030899048,0.5043725371360779,0.7196568250656128,0.2903901934623718,0.6315112113952637,0.46086493134498596,0.611482560634613,-0.13922354578971863,0.9509891867637634,0.4820376932621002,0.5720738172531128,0.05718553811311722,0.1354556381702423,-160.6854403736545,0.4842020571231842,0.5876286327838898,135.39415717446272,103.70276547192621,0.5407960839673975,-0.07031405344563117,-0.12083454650039768,-0.19972917088139316,-1.0380632240874286,-42.59831525466833,3.3169092492737695,38,1762115181.3747623
0.3699024021625519,0.28350576758384705,-0.08495436608791351,0.9996806383132935,0.39634960889816284,0.37459927797317505,-0.18658772110939026,0.9999624490737915,0.4181588590145111,0.3531154692173004,0.0352744460105896,0.9992284774780273,0.47375497221946716,0.5987145900726318,-0.0724574625492096,0.9998553395271301,0.4901424050331116,0.563421905040741,0.07229389250278473,0.9996201992034912,0.4119539260864258,0.6871529817581177,0.06953664124011993,0.9491090178489685,0.47387367486953735,0.6141861081123352,0.27240973711013794,0.3656974136829376,0.44506722688674927,0.7819448709487915,0.13434267044067383,0.9179379343986511,0.5003431439399719,0.7364702820777893,0.30586686730384827,0.6402692198753357,0.4598402976989746,0.6079511642456055,-0.14996272325515747,0.9498754739761353,0.4792817234992981,0.5687068700790405,0.057151325047016144,0.1359138786792755,-161.02293601059068,0.48194868862628937,0.5810682475566864,136.80905606287877,117.71019829877052,0.5743881084123411,-0.03430130326851469,-0.09986372115642851,0.5481945216953029,0.31922281726481017,-44.56930589547915,2.5071660033920713,39,1762115181.4404557
0.37103408575057983,0.2721182107925415,-0.07440926134586334,0.9996389150619507,0.3954102396965027,0.3648815155029297,-0.18076705932617188,0.9999637007713318,0.4189636707305908,0.3467811346054077,0.054549504071474075,0.9992308020591736,0.46912312507629395,0.5992732644081116,-0.0754086822271347,0.999866783618927,0.49247846007347107,0.5639718770980835,0.07524480670690536,0.999645471572876,0.4107241630554199,0.6878185868263245,0.06550721079111099,0.9444286823272705,0.4752209186553955,0.6154407262802124,0.2796871066093445,0.3472746014595032,0.44472798705101013,0.7897547483444214,0.13469693064689636,0.9171097874641418,0.5000712871551514,0.7381601929664612,0.3057730793952942,0.6287525296211243,0.45289507508277893,0.5982586145401001,-0.1696496158838272,0.9496888518333435,0.47977814078330994,0.5616708397865295,0.06687577068805695,0.13022826611995697,-161.94268024713367,0.4808007925748825,0.5816225707530975,138.14284645018463,114.50216070021342,0.5822336955608158,-0.014942831072336384,0.007215947709984078,0.2520005008219025,1.3939183789259249,-37.54161886418383,2.5014814666156533,40,1762115181.5172749
0.37263554334640503,0.2555903196334839,-0.0992458313703537,0.9994815587997437,0.39926815032958984,0.35417741537094116,-0.19638904929161072,0.9999637007713318,0.4141415059566498,0.327757865190506,0.0518614761531353,0.9991344213485718,0.46646714210510254,0.5744212865829468,-0.07654963433742523,0.9998646378517151,0.48003047704696655,0.5472186803817749,0.07651719450950623,0.9996007084846497,0.41160696744918823,0.6867465376853943,0.024997007101774216,0.943200945854187,0.45424991846084595,0.6333999037742615,0.22506220638751984,0.34383678436279297,0.44462960958480835,0.7908365726470947,0.12723886966705322,0.915086567401886,0.4846063256263733,0.7467381954193115,0.2993595004081726,0.6058192849159241,0.44400754570961,0.5896464586257935,-0.19908414781093597,0.9514433741569519,0.4608878195285797,0.5559806227684021,0.06602922081947327,0.12648554146289825,-163.16020688258627,0.47324880957603455,0.5608199834823608,147.24465988341325,146.11235205092467,0.6078785903143346,-0.12324496811420523,-0.3394888740170654,-1.7674421974283536,-5.658066855461636,-60.62189050078036,2.0998068718218588,41,1762115181.578551
0.37312552332878113,0.23933781683444977,-0.13817870616912842,0.9994609951972961,0.4001067578792572,0.3483811318874359,-0.21080294251441956,0.9999638199806213,0.40924111008644104,0.31955796480178833,0.01964394375681877,0.9991025328636169,0.46274667978286743,0.5663238763809204,-0.07247921079397202,0.9998486638069153,0.46617546677589417,0.5413400530815125,0.07261788845062256,0.9994825720787048,0.4150441288948059,0.6827611923217773,0.03279267996549606,0.9454254508018494,0.44596463441848755,0.6546772122383118,0.2039371281862259,0.36470434069633484,0.4449125826358795,0.7908391356468201,0.1672186255455017,0.9122578501701355,0.46999841928482056,0.7723015546798706,0.3173459470272064,0.5981061458587646,0.4377475380897522,0.5802817344665527,-0.1988031566143036,0.9515965580940247,0.4367428421974182,0.5468132495880127,0.06254846602678299,0.12503057718276978,-164.78741931991513,0.4644610732793808,0.5538319647312164,151.79928189259374,164.09358212733693,0.6677411374818075,-0.11039988707943078,-0.08779012648900897,0.16137210402014773,3.162078647684581,-72.41606658628432,2.2182722858575628,42,1762115181.6581502
0.37620288133621216,0.22396618127822876,-0.1462237685918808,0.9994210600852966,0.40172910690307617,0.3323518931865692,-0.2198268622159958,0.9999644756317139,0.40624743700027466,0.29368042945861816,0.008531068451702595,0.9988467693328857,0.45409002900123596,0.5333859324455261,-0.07197107374668121,0.9997897148132324,0.45303282141685486,0.5241792798042297,0.0722089558839798,0.9992057085037231,0.41592007875442505,0.684049665927887,0.046404726803302765,0.9444394707679749,0.4396316111087799,0.6522824764251709,0.1926385462284088,0.36568698287010193,0.4439345896244049,0.7921598553657532,0.19643448293209076,0.9070611000061035,0.4668220579624176,0.7691584229469299,0.3286290764808655,0.5748813152313232,0.425711065530777,0.5649498701095581,-0.2052202969789505,0.9543707966804504,0.3771817982196808,0.3061796724796295,0.20893022418022156,0.12671701610088348,-167.06063555396383,0.4535614252090454,0.5287826061248779,154.48858511554187,165.66113343922075,0.6951668132930884,-0.17043236789716595,-0.391684343754427,-0.9386980011174774,-4.751842509462537,-83.33584115184124,1.795902375405214,43,1762115181.722103
0.37924960255622864,0.22723901271820068,-0.12740778923034668,0.9993399381637573,0.4031331539154053,0.33267098665237427,-0.20964987576007843,0.9999626874923706,0.41021910309791565,0.2938612103462219,0.01996438577771187,0.9987384080886841,0.4526194632053375,0.5306285619735718,-0.0718095451593399,0.9997512698173523,0.45459723472595215,0.5202832818031311,0.07199476659297943,0.9991188645362854,0.41550594568252563,0.684277355670929,0.031401924788951874,0.9342570304870605,0.4422678053379059,0.6539061665534973,0.1750093400478363,0.35092049837112427,0.44147834181785583,0.8013905882835388,0.16973687708377838,0.8847473859786987,0.4725012183189392,0.7692677974700928,0.3091260492801666,0.5347617864608765,0.42357516288757324,0.5647057294845581,-0.1887284219264984,0.954717755317688,0.3808192014694214,0.24468964338302612,0.2181653082370758,0.13036812841892242,-167.52809026428002,0.45360834896564484,0.5254559218883514,154.9202016915136,161.8895804668811,0.6723683674144169,0.0005816608198886994,-0.04123714767867645,2.119867789043297,4.344098132151875,-79.65282096106955,1.6699537376318483,44,1762115181.8027751
0.3849230706691742,0.2310134470462799,-0.1313604712486267,0.9993742108345032,0.4126614034175873,0.33133071660995483,-0.20163965225219727,0.9999624490737915,0.4118778705596924,0.2933650314807892,0.01519816555082798,0.9987460374832153,0.4509285092353821,0.5335227251052856,-0.06932644546031952,0.999732255935669,0.452078640460968,0.5225106477737427,0.0694720670580864,0.9990677237510681,0.4185563623905182,0.6899690628051758,0.035491809248924255,0.9306052327156067,0.4407685399055481,0.6606982946395874,0.16427376866340637,0.35028573870658875,0.44152960181236267,0.8072782754898071,0.16016237437725067,0.8802822828292847,0.4723140597343445,0.7775325179100037,0.2842796742916107,0.5079866051673889,0.4150107800960541,0.562990128993988,-0.18334637582302094,0.9557687640190125,0.38367760181427,0.24502494931221008,0.22585780918598175,0.14963990449905396,-169.68964349328485,0.45150357484817505,0.5280166864395142,158.35597545079432,161.6105138869828,0.667356438952371,-0.028717551478481505,0.03493908786311441,-0.3997586394063412,1.0393490434204338,-91.18229800565187,1.4392293283800532,45,1762115181.8760674
0.38910025358200073,0.2221929281949997,-0.12259528785943985,0.9993876814842224,0.413693904876709,0.32807937264442444,-0.19883349537849426,0.9999580979347229,0.4156288504600525,0.28753727674484253,0.011980807408690453,0.9986866116523743,0.44432711601257324,0.5383753776550293,-0.06716030091047287,0.9997079372406006,0.4496745467185974,0.5227376222610474,0.0672648698091507,0.9989936947822571,0.4206792414188385,0.6896833777427673,0.06020817160606384,0.9233542680740356,0.4320347309112549,0.6599366664886475,0.1764242947101593,0.3404560685157776,0.4424653947353363,0.8061848282814026,0.19417047500610352,0.8716279864311218,0.46617189049720764,0.7824845910072327,0.3088076710700989,0.47933948040008545,0.40660539269447327,0.5488848686218262,-0.19320431351661682,0.9543653726577759,0.3899269700050354,0.25015848875045776,0.25801244378089905,0.16053889691829681,-171.73929208600444,0.4470008313655853,0.5305564999580383,163.5743393403686,161.39291249178413,0.6866868030014458,-0.059398509837962965,0.03350427108494364,-0.4047317405489084,-0.018927566903019232,-87.26752772485771,1.1565229417174177,46,1762115181.951873
0.3914395272731781,0.21415096521377563,-0.11887215077877045,0.9993809461593628,0.41596412658691406,0.322270005941391,-0.19681598246097565,0.9999490976333618,0.42249709367752075,0.2778245806694031,0.0065768747590482235,0.9985649585723877,0.4395374357700348,0.5365126729011536,-0.06500137597322464,0.9996978640556335,0.4477976858615875,0.5181282758712769,0.06503459811210632,0.9989736080169678,0.42047828435897827,0.6894713640213013,0.06429626047611237,0.9251581430435181,0.42697563767433167,0.6616197824478149,0.1757631003856659,0.3495282828807831,0.4423689842224121,0.8046913743019104,0.20195011794567108,0.8780057430267334,0.44968777894973755,0.7761561870574951,0.31376564502716064,0.47835779190063477,0.40205684304237366,0.5362684726715088,-0.195199117064476,0.9541289210319519,0.39190852642059326,0.26241233944892883,0.24843978881835938,0.16549058258533478,-173.86299969436152,0.44366756081581116,0.5273204743862152,164.17261096671834,161.3146934737199,0.6906488384633319,-0.050907399383172326,-0.049422224730638564,0.12968054788050218,-1.2664955271083005,-81.63805698351901,1.095708450458542,47,1762115182.0173502
0.39257144927978516,0.20217838883399963,-0.1284506469964981,0.9994067549705505,0.41612523794174194,0.3017370104789734,-0.1957491785287857,0.9999415278434753,0.4275525212287903,0.2692123353481293,0.00259903515689075,0.9985327124595642,0.4359872341156006,0.5346617698669434,-0.06255720555782318,0.9996805191040039,0.44669151306152344,0.5129835605621338,0.06254436075687408,0.9988830089569092,0.42039743065834045,0.6892980337142944,0.07005977630615234,0.9226454496383667,0.42683783173561096,0.6584466099739075,0.18149802088737488,0.35587602853775024,0.44170379638671875,0.8035358190536499,0.21065321564674377,0.8802353739738464,0.4502333104610443,0.7727129459381104,0.3244912028312683,0.4731625020503998,0.39543038606643677,0.5283476710319519,-0.16587191820144653,0.9548708200454712,0.3973812460899353,0.28765740990638733,0.22024226188659668,0.16533534228801727,-175.32275057469502,0.441339373588562,0.5238226652145386,164.883680513427,162.02430733483408,0.7092376617751702,-0.034930836755426464,-0.05247919915866588,0.23970353179972878,-0.04586515786236996,-70.64148450470702,0.872430290573508,48,1762115182.0840015
0.39367398619651794,0.2018400877714157,-0.1228584498167038,0.9994150996208191,0.41958051919937134,0.2984062433242798,-0.19520552456378937,0.9999244213104248,0.4300300180912018,0.27164551615715027,0.005012031178921461,0.9984551668167114,0.43661946058273315,0.5351848602294922,-0.062131576240062714,0.9996307492256165,0.4434286952018738,0.5151900053024292,0.06211083009839058,0.9987033605575562,0.4202609956264496,0.6885376572608948,0.06921423226594925,0.9247863292694092,0.4290977418422699,0.6560404300689697,0.18481038510799408,0.36774417757987976,0.4416847825050354,0.8012930750846863,0.20691077411174774,0.8855273723602295,0.4518643021583557,0.7709926962852478,0.32666081190109253,0.4803583323955536,0.39591139554977417,0.5272731781005859,-0.1536046713590622,0.9560675621032715,0.3999643325805664,0.3879092037677765,0.20670664310455322,0.15571528673171997,-176.37406922128784,0.44002407789230347,0.5251874327659607,164.69951644719242,164.8236566729879,0.7043096369329864,-0.018177819221847323,0.01886153653521721,0.23153221363994994,0.9859524366162636,-68.67040455141145,0.6887531535709817,49,1762115182.1563587
0.39450210332870483,0.19995130598545074,-0.1302933394908905,0.9994524121284485,0.41989263892173767,0.30252954363822937,-0.1965416669845581,0.9999139904975891,0.43485045433044434,0.2709009051322937,0.009794125333428383,0.9984356760978699,0.43267935514450073,0.533536434173584,-0.06195484846830368,0.9996001124382019,0.44350767135620117,0.5135461688041687,0.06191878765821457,0.9985488057136536,0.42070579528808594,0.6858396530151367,0.07729386538267136,0.9239859580993652,0.4315069317817688,0.6546472311019897,0.18830803036689758,0.37959814071655273,0.44101399183273315,0.800917387008667,0.21942675113677979,0.8888236880302429,0.44893893599510193,0.7694360613822937,0.3331807851791382,0.4881305396556854,0.39161819219589233,0.5246066451072693,-0.14256376028060913,0.9563223719596863,0.4041226804256439,0.406790554523468,0.19215315580368042,0.14640934765338898,-177.4077845110284,0.43809351325035095,0.5235413014888763,167.09167731569636,166.7189768807007,0.7143932104548588,-0.02568100511883694,-0.02189737905399834,-0.09980984383578853,-0.5421884857614797,-64.68959699356216,0.5681685968984126,50,1762115182.2315335
0.3941575884819031,0.19675396382808685,-0.14556246995925903,0.9994898438453674,0.4191896319389343,0.3000555634498596,-0.20958077907562256,0.9999098777770996,0.43708252906799316,0.2708776891231537,0.009560810402035713,0.9984818696975708,0.4295337200164795,0.5290430784225464,-0.06227640062570572,0.999584972858429,0.4415110945701599,0.5117130875587463,0.06224808096885681,0.9984309673309326,0.4206215739250183,0.6827799081802368,0.07417097687721252,0.9248447418212891,0.4295694828033447,0.6529290676116943,0.1888965666294098,0.39094656705856323,0.43916410207748413,0.8003767132759094,0.20388272404670715,0.892414927482605,0.44532865285873413,0.7643370628356934,0.32972097396850586,0.4967636466026306,0.3880992531776428,0.5210752487182617,-0.15107956528663635,0.9559386968612671,0.4060414731502533,0.4310184121131897,0.12333627790212631,0.1373274326324463,-178.19904073432252,0.4355224072933197,0.5203780829906464,169.4446724614105,166.9763674791918,0.7178353906343828,-0.045943320665973654,-0.05652383224553092,-0.36206911584932816,-0.6187431669835972,-58.481912138392936,0.4306431770184217,51,1762115182.287496
0.3959621489048004,0.19664642214775085,-0.1433478146791458,0.999494194984436,0.41952696442604065,0.28887665271759033,-0.20565202832221985,0.9999089241027832,0.4399054944515228,0.2687060534954071,0.025426071137189865,0.9985126852989197,0.42685961723327637,0.5220115184783936,-0.06250442564487457,0.9995496273040771,0.4417911171913147,0.5069831609725952,0.062469810247421265,0.9982590675354004,0.4213630259037018,0.6793840527534485,0.04552875831723213,0.9217950701713562,0.4313814640045166,0.6524909734725952,0.16802147030830383,0.3887307941913605,0.438301146030426,0.8001192808151245,0.16200146079063416,0.8902921080589294,0.444392591714859,0.7661857008934021,0.2892162501811981,0.48780369758605957,0.38508671522140503,0.5178411602973938,-0.15323173999786377,0.9571723341941833,0.40731850266456604,0.44727787375450134,0.098390132188797,0.1291533261537552,-178.87974636228464,0.43432536721229553,0.5144973397254944,167.9492780426058,166.62408945750792,0.6943904995716877,-0.017185991743741056,-0.08443025994208296,0.41287106861675443,-0.40065461766318783,-44.706197068597845,0.3077760097734346,52,1762115182.3571482
0.39607420563697815,0.19720079004764557,-0.13724036514759064,0.9994984269142151,0.4196235239505768,0.28617313504219055,-0.2038133442401886,0.9999075531959534,0.4387606680393219,0.2708890438079834,0.027924174442887306,0.9984768629074097,0.4244712293148041,0.5202274918556213,-0.06178693845868111,0.9994891881942749,0.43946704268455505,0.5072793364524841,0.06171838194131851,0.9979953169822693,0.4240752160549164,0.6744879484176636,0.048483602702617645,0.9166482090950012,0.4317949414253235,0.651451826095581,0.16674333810806274,0.383442759513855,0.43820658326148987,0.7985884547233582,0.16939708590507507,0.8851853609085083,0.4427684247493744,0.7694882750511169,0.28627341985702515,0.4749128222465515,0.3838413953781128,0.5181657671928406,-0.1541661024093628,0.9591668248176575,0.4051453471183777,0.4718223512172699,0.0679621547460556,0.12180221080780029,-179.32359617599167,0.43196913599967957,0.5137534141540527,170.07374575929765,168.82710227539704,0.6925540319675954,-0.04086144877201687,-0.012901058463573969,-0.4105766315865598,1.2404499126689663,-38.612998876702605,0.22121771118547076,53,1762115182.414812
0.3971926271915436,0.19719110429286957,-0.1319642961025238,0.9995076060295105,0.4203479290008545,0.284371554851532,-0.21661178767681122,0.9999101758003235,0.43902426958084106,0.2694568336009979,0.026979301124811172,0.9984734058380127,0.42329496145248413,0.5186754465103149,-0.06195155531167984,0.9994480609893799,0.438589870929718,0.5071292519569397,0.061851609498262405,0.9978178143501282,0.42475762963294983,0.6730793118476868,0.04955843836069107,0.9112393260002136,0.43136024475097656,0.6520204544067383,0.17336753010749817,0.37845805287361145,0.43813690543174744,0.7988541722297668,0.1796436458826065,0.8802652955055237,0.4427310824394226,0.7756236791610718,0.287250280380249,0.462832510471344,0.3840292990207672,0.5189656019210815,-0.1639397144317627,0.9617215394973755,0.4061613082885742,0.4750215709209442,0.0636080950498581,0.11721598356962204,-179.69498055480935,0.4309424161911011,0.5129023492336273,169.1870522505358,172.0283214986779,0.6953787714006878,-0.012952127019646058,-0.010736230916374923,0.3520776333996701,0.02730941892099213,-38.61048104737616,0.10151188914843627,54,1762115182.4940825
0.39668628573417664,0.19785691797733307,-0.1314673125743866,0.9995225071907043,0.4211116433143616,0.2798284590244293,-0.22121116518974304,0.999914824962616,0.43998751044273376,0.2688288688659668,0.024570610374212265,0.9984807372093201,0.42313581705093384,0.5174746513366699,-0.06211655214428902,0.999433159828186,0.43778568506240845,0.5065593123435974,0.062020253390073776,0.9977450370788574,0.4279581606388092,0.6705869436264038,0.056925345212221146,0.9081326723098755,0.4317839741706848,0.6507231593132019,0.17618723213672638,0.3799856901168823,0.43826693296432495,0.7948254346847534,0.1936691850423813,0.8797810077667236,0.4443185329437256,0.7725638747215271,0.3039324879646301,0.4584983289241791,0.3861447274684906,0.5196556448936462,-0.17046108841896057,0.964692234992981,0.41266322135925293,0.4749930500984192,0.04615521430969238,0.11271873116493225,179.97858815900815,0.43046075105667114,0.5120169818401337,169.96316808797835,170.05259531248532,0.6998567382748554,-0.007613012872690001,-0.013993774682704772,0.08438797376863216,-0.051487477198804484,-30.230765518402073,0.007776277918085271,55,1762115182.557351
0.39685362577438354,0.19715671241283417,-0.13011211156845093,0.9995149374008179,0.4211243987083435,0.27992331981658936,-0.2275451123714447,0.9999184608459473,0.4401325583457947,0.2693617045879364,0.02414398081600666,0.9984564781188965,0.4229225516319275,0.5156797766685486,-0.06441984325647354,0.9993890523910522,0.43723902106285095,0.50440514087677,0.06429886072874069,0.9975928664207458,0.43037596344947815,0.671570360660553,0.055689144879579544,0.9046280980110168,0.43222498893737793,0.6524755954742432,0.17688319087028503,0.38221994042396545,0.4383726716041565,0.7976593971252441,0.19156967103481293,0.8791314959526062,0.44362878799438477,0.7759482264518738,0.31332927942276,0.4547455906867981,0.3880895972251892,0.5202123522758484,-0.1792576014995575,0.96739661693573,0.41326069831848145,0.4741266071796417,0.0513753816485405,0.1088169515132904,179.86669328433737,0.4300807863473892,0.5100424587726593,170.46638154187949,168.22859652204892,0.7042627608278108,-0.004795828857050859,-0.024921984791172018,0.03555786121126342,-0.1379334030603767,-29.05812015223727,0.05645581508662163,56,1762115182.6365793
0.39658233523368835,0.19687023758888245,-0.13273949921131134,0.9994619488716125,0.42239347100257874,0.2772763967514038,-0.2414977252483368,0.9999206066131592,0.4393327832221985,0.26842814683914185,0.024073271080851555,0.9984138607978821,0.42466822266578674,0.5121318101882935,-0.06804543733596802,0.9993031024932861,0.4363027513027191,0.5020060539245605,0.06791751086711884,0.9973530769348145,0.43179288506507874,0.6708890795707703,0.05275231599807739,0.9022372961044312,0.4322810173034668,0.6525740027427673,0.1824338734149933,0.3852139711380005,0.4390334486961365,0.7972301244735718,0.19110718369483948,0.8797839283943176,0.44301408529281616,0.7756405472755432,0.32468917965888977,0.453519344329834,0.38954058289527893,0.521858274936676,-0.19678053259849548,0.9695567488670349,0.41075748205184937,0.49126505851745605,0.04074719548225403,0.10527635365724564,179.90761901077872,0.43048548698425293,0.507068932056427,169.66603821129684,167.29831257292847,0.7086323755680648,0.00637774751080218,-0.04686032312605674,0.1760863274619255,-0.3457300778935199,-27.580316486485955,0.04201689666436639,57,1762115182.7000344
0.3966740667819977,0.19727185368537903,-0.15159408748149872,0.9994465708732605,0.42372927069664,0.2798222005367279,-0.25491756200790405,0.9999212622642517,0.43909206986427307,0.26838403940200806,0.012816357426345348,0.998432457447052,0.4257999360561371,0.512697696685791,-0.0708911269903183,0.9992349743843079,0.4365193843841553,0.500888466835022,0.07077015936374664,0.9971726536750793,0.4340670704841614,0.67021244764328,0.053011782467365265,0.8987411260604858,0.4323614537715912,0.6516633033752441,0.19262972474098206,0.38790830969810486,0.4410284161567688,0.7955235242843628,0.19466370344161987,0.8798139691352844,0.44353288412094116,0.7753550410270691,0.3392506241798401,0.4524824917316437,0.3896503150463104,0.5230987668037415,-0.19872663915157318,0.9697479009628296,0.41122668981552124,0.49454265832901,0.02768770232796669,0.10075737535953522,179.9381932448573,0.4311596602201462,0.5067930817604065,169.68273009516818,168.178600062363,0.7233298244268327,0.008501076280638674,-0.0034783706674443144,0.026774393998804324,0.5470304476935663,-36.669020369537286,0.027682730683460707,58,1762115182.7793388
0.39680078625679016,0.19791017472743988,-0.14907298982143402,0.9993874430656433,0.42393454909324646,0.28017643094062805,-0.2514066696166992,0.9999164938926697,0.4389764368534088,0.2688702642917633,0.015578331425786018,0.9984267950057983,0.42647019028663635,0.5117782354354858,-0.07296063005924225,0.9990676641464233,0.43664106726646423,0.5000641942024231,0.0728520005941391,0.9968183636665344,0.4343279302120209,0.6698240637779236,0.041919637471437454,0.8951210379600525,0.43244457244873047,0.6514925360679626,0.1908375322818756,0.38986557722091675,0.44198793172836304,0.7955291867256165,0.17583408951759338,0.8783489465713501,0.4439446032047272,0.7751184105873108,0.3368374705314636,0.45265626907348633,0.3898877203464508,0.5235493779182434,-0.1931021362543106,0.9689210653305054,0.4121007025241852,0.49444231390953064,0.029642378911376,0.0964527502655983,-179.97520565503032,0.4315556287765503,0.5059212148189545,169.20188837382614,167.2811553462634,0.7152218452345911,0.006247695878538002,-0.013756545585867553,-0.03555442780313757,-0.1621717432815289,-36.93018787965175,0.010451480490115461,59,1762115182.8427172
0.39674675464630127,0.197935551404953,-0.14458483457565308,0.9993759989738464,0.42352455854415894,0.2801957130432129,-0.2454628199338913,0.9999169111251831,0.44040974974632263,0.2694157361984253,0.015723789110779762,0.9984229803085327,0.4263322949409485,0.5119640827178955,-0.07251573354005814,0.9990027546882629,0.43673691153526306,0.5000417828559875,0.0723915845155716,0.9966237545013428,0.4350549280643463,0.6701486110687256,0.04233738034963608,0.8950088620185852,0.4340117871761322,0.6514633893966675,0.19052115082740784,0.3941899538040161,0.4426984190940857,0.7959548234939575,0.18249782919883728,0.8802089095115662,0.4442453980445862,0.774659276008606,0.3326146602630615,0.45569291710853577,0.3929104804992676,0.5250328779220581,-0.18967711925506592,0.9688718318939209,0.4213443398475647,0.49557846784591675,0.035836361348629,0.09062796831130981,179.89280444740925,0.4315346032381058,0.5060029327869415,167.89460606202627,168.20764196788355,0.713376453735769,-0.0002608781183347582,0.0010139302628971042,-0.08075629272596935,0.18326731353408907,-32.555295803105096,0.04838620078324158,60,1762115182.9233124
0.397533655166626,0.1980641484260559,-0.14555123448371887,0.9993714094161987,0.4235573709011078,0.28109070658683777,-0.24495775997638702,0.9999212622642517,0.44051456451416016,0.27031412720680237,0.013182157650589943,0.9984301924705505,0.4265144467353821,0.5128554105758667,-0.0719686970114708,0.9989876747131348,0.43758121132850647,0.5007374882698059,0.07185008376836777,0.9964982271194458,0.43625229597091675,0.6718817353248596,0.057610563933849335,0.8885934948921204,0.43532896041870117,0.6502768397331238,0.19647081196308136,0.3877813220024109,0.4440416693687439,0.7955000996589661,0.2029154747724533,0.8741526007652283,0.45075544714927673,0.7739500403404236,0.3468368947505951,0.44100725650787354,0.39756911993026733,0.5308479070663452,-0.1979476511478424,0.9699247479438782,0.42277899384498596,0.49516597390174866,0.03855263441801071,0.0859057754278183,-179.997059189221,0.4320478290319443,0.5067964494228363,169.55902818809312,168.0569513580781,0.7234754731953665,0.006476144202796088,0.010012996663587981,0.08501117553500945,0.11355479868915214,-32.43663919904633,0.001021741387423781,61,1762115183.002561
0.3997647762298584,0.20073382556438446,-0.1448795199394226,0.9993937015533447,0.4244779050350189,0.2817622721195221,-0.24243733286857605,0.9999244809150696,0.4441695809364319,0.2713591158390045,0.010350092314183712,0.9984583854675293,0.4279278814792633,0.5142431259155273,-0.07172589004039764,0.9989902973175049,0.4420907497406006,0.5015845894813538,0.07162268459796906,0.9964584112167358,0.4386936128139496,0.6762459874153137,0.0596124641597271,0.8860493898391724,0.4385814070701599,0.6483694314956665,0.19616201519966125,0.384122371673584,0.44616419076919556,0.7954455018043518,0.20137903094291687,0.8715664744377136,0.45352903008461,0.7738755941390991,0.34347859025001526,0.4335428476333618,0.40399855375289917,0.538711428642273,-0.19490091502666473,0.9704791903495789,0.4274163246154785,0.4979124665260315,0.04108195751905441,0.08178310096263885,-179.83021497390004,0.43500931560993195,0.5079138576984406,169.0747296495474,169.24993684428128,0.7194615000071725,0.037369994193550325,0.01410019585485681,0.3898390096893112,0.051574979667605166,-27.847593609134968,0.061156688571452844,62,1762115183.0818088
0.4015015959739685,0.20197074115276337,-0.15515826642513275,0.999428391456604,0.42669254541397095,0.28224653005599976,-0.24889858067035675,0.9999293684959412,0.4445153772830963,0.2714105248451233,0.0024804365821182728,0.9985213279724121,0.43148574233055115,0.5139997601509094,-0.07147134095430374,0.9990260004997253,0.4440629482269287,0.5019219517707825,0.07135564833879471,0.9965296983718872,0.4407573342323303,0.6768777966499329,0.06249299645423889,0.8849826455116272,0.44194498658180237,0.6482906341552734,0.20210246741771698,0.3805600106716156,0.4493928849697113,0.7941364645957947,0.20518609881401062,0.8705481886863708,0.45582008361816406,0.7699695825576782,0.35535305738449097,0.4270898401737213,0.40994375944137573,0.5422608852386475,-0.2061292827129364,0.9715815782546997,0.4311387538909912,0.4997689127922058,0.036153487861156464,0.07879957556724548,-179.46199570999312,0.43777434527873993,0.507960855960846,168.85139963940804,169.16143754300788,0.7271207408536449,0.03484118138338781,0.000592208830032686,-0.031864694544666484,-0.17020946695998343,-31.298952202720532,0.1928146304263417,63,1762115183.1611698
0.4022926390171051,0.20391437411308289,-0.15668849647045135,0.9994540810585022,0.42645400762557983,0.28342166543006897,-0.24814672768115997,0.9999330639839172,0.44519156217575073,0.2723654806613922,0.0029634227976202965,0.9985495209693909,0.4321750998497009,0.5143603682518005,-0.07172263413667679,0.9990506172180176,0.4451741576194763,0.5020888447761536,0.07157646119594574,0.9965505003929138,0.44113531708717346,0.6772667169570923,0.06556294858455658,0.8827763199806213,0.441547691822052,0.6447686553001404,0.20527949929237366,0.37684693932533264,0.4504600167274475,0.7929360270500183,0.2095673382282257,0.8694834113121033,0.4558939039707184,0.7693322896957397,0.3586757481098175,0.4227951169013977,0.4112309515476227,0.5441641211509705,-0.20300984382629395,0.9714042544364929,0.4351895749568939,0.49601903557777405,0.036870576441287994,0.07551494240760803,-179.2906285181472,0.4386746287345886,0.508224606513977,168.88846802517466,170.6275314845092,0.7280696289128501,0.0141842056826036,0.004155460227784956,-0.3254561551886514,0.05613997502253035,-30.54293559357644,0.24093730922071627,64,1762115183.2246406
0.4031795859336853,0.2041958123445511,-0.15725873410701752,0.9994795918464661,0.42838168144226074,0.283683180809021,-0.24886634945869446,0.9999370574951172,0.4464625418186188,0.2724202573299408,0.0032099492382258177,0.9986009001731873,0.4343324601650238,0.5146195292472839,-0.07185690850019455,0.9990687370300293,0.44666552543640137,0.5023466944694519,0.07170356065034866,0.9965808391571045,0.44303423166275024,0.6772438287734985,0.06458479911088943,0.8798441290855408,0.4432831406593323,0.6434391736984253,0.20562677085399628,0.37191230058670044,0.45191770792007446,0.7925148010253906,0.20810993015766144,0.8665128350257874,0.4562529921531677,0.7620441913604736,0.36035022139549255,0.41568705439567566,0.4141843914985657,0.5446939468383789,-0.20829220116138458,0.9721615314483643,0.43611055612564087,0.5010256171226501,0.03644159063696861,0.07323778420686722,-179.23499213025698,0.4404989928007126,0.5084831118583679,168.76219662321967,169.77684538858608,0.7252094006316848,0.028639634328916835,0.004058125608204207,0.22692739798243203,-0.0015279997913242636,-31.9195901975217,0.28156806480374696,65,1762115183.2883413
0.4031001627445221,0.20420250296592712,-0.16169823706150055,0.9994922876358032,0.4297409653663635,0.2843928635120392,-0.24993471801280975,0.9999392032623291,0.44655007123947144,0.2735488712787628,0.0018134390702471137,0.9986346364021301,0.43692952394485474,0.5158249735832214,-0.07191457599401474,0.9990606904029846,0.4474731981754303,0.5038884282112122,0.07176985591650009,0.9965526461601257,0.4447799623012543,0.6776390671730042,0.060948681086301804,0.8787105083465576,0.44555893540382385,0.6434668302536011,0.20478768646717072,0.36595430970191956,0.4551238417625427,0.7924991846084595,0.20712843537330627,0.8612598776817322,0.4585512578487396,0.7607134580612183,0.3595985472202301,0.4054637849330902,0.41773301362991333,0.5452986359596252,-0.2074577361345291,0.9724094867706299,0.43528109788894653,0.5007436275482178,0.03777154162526131,0.07049800455570221,-178.99362048167453,0.4422013610601425,0.5098567008972168,167.51116302943743,169.76435944953093,0.7270583058467293,0.02407383057202004,0.01942443981415923,-0.06456675014925002,0.21730083526960392,-32.82711644843914,0.3475711431005173,66,1762115183.3590558
0.4029166102409363,0.20360533893108368,-0.16189660131931305,0.9995019435882568,0.4299086928367615,0.2856981158256531,-0.2482028305530548,0.9999399185180664,0.44625258445739746,0.27454715967178345,0.0004476365284062922,0.9986386895179749,0.4392286241054535,0.5161612033843994,-0.0718727558851242,0.9990517497062683,0.4471978545188904,0.5057392716407776,0.0717330127954483,0.9965124726295471,0.4470084309577942,0.678329348564148,0.0590352937579155,0.8789834380149841,0.4461943209171295,0.6443127393722534,0.20349228382110596,0.3682127296924591,0.457741916179657,0.7939780354499817,0.20516979694366455,0.8599280714988708,0.46022576093673706,0.7606000900268555,0.35656341910362244,0.4039049744606018,0.4230971336364746,0.5452455282211304,-0.2045792043209076,0.9700829386711121,0.43362993001937866,0.48469385504722595,0.03819035738706589,0.06780882179737091,-178.72620126631213,0.44321323931217194,0.5109502375125885,167.22473711643195,169.74930785255677,0.7268396030764319,0.014045255232894845,0.015178704393149665,-0.13920044232379966,-0.058932423460849204,-34.304567301545084,0.41447217327553587,67,1762115183.4311
0.4033929407596588,0.20360219478607178,-0.1575852334499359,0.9995003342628479,0.43045297265052795,0.28575393557548523,-0.24275298416614532,0.999941349029541,0.44639143347740173,0.2748381495475769,0.001022766693495214,0.9986221790313721,0.44101548194885254,0.5162093639373779,-0.07182248681783676,0.9990137815475464,0.4471423625946045,0.506231963634491,0.07167930901050568,0.996403157711029,0.44909048080444336,0.6783519983291626,0.051986515522003174,0.8825035095214844,0.4462733268737793,0.6461940407752991,0.1957429200410843,0.3746384382247925,0.4598971903324127,0.7948449850082397,0.1868581920862198,0.8617390394210815,0.4616769850254059,0.7611188888549805,0.3426719307899475,0.407669335603714,0.42838460206985474,0.5455536246299744,-0.20527252554893494,0.9697237014770508,0.43226712942123413,0.4837478995323181,0.04438016563653946,0.06681198626756668,-178.59676577023077,0.4440789222717285,0.5112206637859344,168.1292874794488,168.45551503949721,0.7152523665670465,0.013659127245368193,0.004266904918649487,-0.006092497555139616,-0.17217118097655976,-34.40610367900347,0.43160688701669153,68,1762115183.4944775
0.4035530090332031,0.2035193145275116,-0.15662406384944916,0.9995075464248657,0.4306907653808594,0.2860155403614044,-0.24202609062194824,0.9999434947967529,0.44631487131118774,0.2758329510688782,0.0008416083874180913,0.9985549449920654,0.44113197922706604,0.5164893269538879,-0.071805939078331,0.9990043044090271,0.4462962746620178,0.5076302886009216,0.07165437191724777,0.996298611164093,0.4497813582420349,0.6784479022026062,0.05276971310377121,0.8804454803466797,0.44618406891822815,0.6470600962638855,0.19537517428398132,0.382241427898407,0.46065860986709595,0.7933030128479004,0.1889268308877945,0.862956166267395,0.4628429412841797,0.7608929872512817,0.3425051271915436,0.41057589650154114,0.43015819787979126,0.5470715761184692,-0.21361520886421204,0.9695886373519897,0.4237706661224365,0.45871174335479736,0.08324000239372253,0.06657499074935913,-178.7083968986565,0.44371412694454193,0.5120598077774048,167.6789150178368,168.14051147597613,0.7146681749898665,-0.00561153104186838,0.01290828638910894,-0.296434436290781,0.13292763572409252,-33.093212578951686,0.37847956529058774,69,1762115183.5594857
0.40366172790527344,0.2035202831029892,-0.14722630381584167,0.9995167255401611,0.4312463402748108,0.28604769706726074,-0.23542864620685577,0.9999459385871887,0.44696465134620667,0.27631813287734985,0.003447560127824545,0.9985218048095703,0.4420645236968994,0.5165353417396545,-0.07076181471347809,0.9989856481552124,0.4465222954750061,0.507919192314148,0.07063625007867813,0.9962131977081299,0.4507325291633606,0.6783385872840881,0.05263539031147957,0.8811240792274475,0.44706717133522034,0.6479729413986206,0.18966753780841827,0.38800060749053955,0.46152257919311523,0.7919492721557617,0.1871134340763092,0.8634779453277588,0.46297311782836914,0.7609763145446777,0.33238837122917175,0.4100706875324249,0.43116864562034607,0.54676753282547,-0.20992112159729004,0.9706452488899231,0.4238571226596832,0.46438896656036377,0.07013601809740067,0.06693919748067856,-178.71368583507703,0.44429340958595276,0.5122272670269012,167.48667918849318,167.74919896198924,0.7052133720803707,0.007470582718903928,0.0021595989349207033,0.16871041181199484,-0.13861792673537063,-31.75732213043047,0.38863693543397304,70,1762115183.6370275
0.4041732847690582,0.20353035628795624,-0.14381805062294006,0.9995294213294983,0.4326252341270447,0.2862081825733185,-0.23106086254119873,0.9999484419822693,0.44680747389793396,0.27632012963294983,0.007310489658266306,0.9984480738639832,0.4431404173374176,0.5163174271583557,-0.07067789137363434,0.9989875555038452,0.44662579894065857,0.5078374743461609,0.07058252394199371,0.9961665868759155,0.45110616087913513,0.6774301528930664,0.04733071103692055,0.8822147846221924,0.44788551330566406,0.6479559540748596,0.1888788640499115,0.39566630125045776,0.4623793959617615,0.79194176197052,0.1783173680305481,0.8601015210151672,0.46388059854507446,0.7611557841300964,0.3261681795120239,0.4142780601978302,0.4322945475578308,0.5465318560600281,-0.2135809361934662,0.971488893032074,0.4184441566467285,0.3997124135494232,0.15648767352104187,0.06593482941389084,-178.71764850321594,0.4448831081390381,0.5120774507522583,167.31221705147334,168.64703132251736,0.6990637857274756,0.009293510934094838,-0.00236106936198993,0.028728921262072948,-0.07124467242956886,-34.88473970561183,0.37892874491639833,71,1762115183.7004802
0.40602463483810425,0.20456716418266296,-0.1503806710243225,0.9995522499084473,0.43841224908828735,0.2867928743362427,-0.23117217421531677,0.9999508261680603,0.4457075595855713,0.2767946422100067,0.0037977728061378,0.9984496831893921,0.4458671510219574,0.5162711143493652,-0.06817016005516052,0.9989755749702454,0.445936381816864,0.5081939101219177,0.06812478601932526,0.9960929751396179,0.451768696308136,0.6754745841026306,0.038515426218509674,0.884678304195404,0.4478391110897064,0.6478718519210815,0.17525714635849,0.4038146734237671,0.46335506439208984,0.7918425798416138,0.16012625396251678,0.8596546053886414,0.46433311700820923,0.7615005373954773,0.3019809126853943,0.41572847962379456,0.4336092472076416,0.5462822318077087,-0.21157488226890564,0.9729844927787781,0.4194602072238922,0.42972809076309204,0.0880916565656662,0.06900918483734131,-179.04485644106416,0.4459017664194107,0.5122325122356415,167.3842455229364,168.29569995632,0.690027983489987,0.01606178197648191,0.002444945264804066,0.10671929530754062,0.07577924864372712,-53.8832645617681,0.27361376799164455,72,1762115183.7639015
0.4068812429904938,0.20456697046756744,-0.14928019046783447,0.9995718598365784,0.44074687361717224,0.28591275215148926,-0.2307170331478119,0.9999536871910095,0.4451839029788971,0.27660053968429565,0.004073548596352339,0.9984849691390991,0.44777172803878784,0.5148313045501709,-0.06714968383312225,0.9989743828773499,0.4458447992801666,0.5078901648521423,0.06710134446620941,0.9960731267929077,0.4527292847633362,0.6728482246398926,0.03783021867275238,0.8837727904319763,0.4478697180747986,0.647305965423584,0.17279894649982452,0.4050312638282776,0.4636850357055664,0.7890076637268066,0.15848568081855774,0.8572206497192383,0.46462899446487427,0.7614852786064148,0.3013583719730377,0.4098575711250305,0.4343038499355316,0.5460185408592224,-0.20430779457092285,0.974570631980896,0.42487651109695435,0.46726709604263306,0.045533206313848495,0.07217142730951309,-179.04321529522872,0.44680826365947723,0.5113607347011566,167.31616914720053,167.76219012464142,0.6875681259784004,0.011447011892217371,-0.011008580460635254,-0.05827411899295828,-0.1698876313843536,-64.52340317303754,0.2772934712925334,73,1762115183.8430922
0.40733957290649414,0.20459014177322388,-0.15819980204105377,0.9995859861373901,0.4417665898799896,0.28590303659439087,-0.23158538341522217,0.9999556541442871,0.4447011351585388,0.27628883719444275,0.001975377555936575,0.998482882976532,0.44888758659362793,0.5133599638938904,-0.06649863719940186,0.9989731311798096,0.4452551305294037,0.5074231624603271,0.06644260883331299,0.9960069060325623,0.45351511240005493,0.6720914840698242,0.03728955239057541,0.8789379000663757,0.44774389266967773,0.6471012830734253,0.17169803380966187,0.4067366123199463,0.4637157917022705,0.7869527339935303,0.15705721080303192,0.8545752167701721,0.4643494188785553,0.7614597082138062,0.30066877603530884,0.4065794050693512,0.4335346221923828,0.5453622341156006,-0.20518985390663147,0.9757177233695984,0.42592525482177734,0.4733826220035553,0.0376928374171257,0.07465776801109314,-179.04118623716968,0.4470713585615158,0.5103915631771088,166.81450565057312,167.6506496833786,0.6910095407316418,0.004123199019549232,-0.015188766664673881,-0.11477811930966202,-0.06551149233404088,-73.02622099005508,0.2862926457844144,74,1762115183.9069006
0.4083330035209656,0.20465093851089478,-0.15270747244358063,0.9996014833450317,0.4422958493232727,0.2855975925922394,-0.2311880886554718,0.9999576210975647,0.44469231367111206,0.2762557566165924,0.003838109550997615,0.9985101819038391,0.44923609495162964,0.5119979977607727,-0.06655390560626984,0.9989776015281677,0.44521206617355347,0.5067319273948669,0.06649212539196014,0.9960006475448608,0.4541010856628418,0.6696712374687195,0.03098292648792267,0.8775269389152527,0.4477808475494385,0.6462472081184387,0.1670730710029602,0.40591660141944885,0.463631808757782,0.7853150963783264,0.14390875399112701,0.8552389144897461,0.46449461579322815,0.7608850002288818,0.2899821102619171,0.4024158716201782,0.4334583282470703,0.5440495610237122,-0.19816294312477112,0.9767932891845703,0.4288862347602844,0.4886845052242279,0.03871536999940872,0.0759340152144432,-179.0645429181973,0.44722408056259155,0.5093649625778198,167.28722741890377,167.81149800912615,0.6803554339086753,0.0018603102828383155,-0.012505046016768748,-0.027564300861501124,0.03269046425791198,-75.61214982393479,0.2842283958842992,75,1762115183.9889956
0.4096914827823639,0.20411090552806854,-0.16437610983848572,0.9996210336685181,0.44419845938682556,0.2833271026611328,-0.23466429114341736,0.9999592304229736,0.44387903809547424,0.2760687470436096,0.00034093932481482625,0.9985443949699402,0.45136600732803345,0.5101182460784912,-0.0664152055978775,0.9989835023880005,0.4445343017578125,0.5059717297554016,0.0663580596446991,0.9960445761680603,0.45530256628990173,0.6677433848381042,0.027020996436476707,0.8788724541664124,0.44914641976356506,0.6450859308242798,0.16441959142684937,0.4147188663482666,0.46410733461380005,0.7822747230529785,0.1386132538318634,0.8571479320526123,0.4650424122810364,0.7596286535263062,0.28536874055862427,0.4101760983467102,0.43455347418785095,0.5412416458129883,-0.19881553947925568,0.9779371023178101,0.4299429953098297,0.4885454475879669,0.030633490532636642,0.07873935997486115,-179.01866427866372,0.447950154542923,0.5080449879169464,166.2705754774937,167.98505422107002,0.6826220468382086,0.009575597025484616,-0.017408068294370117,0.10175061878670068,-0.06466195843549462,-92.5198119275897,0.31667762375958025,76,1762115184.064821
0.4114932417869568,0.20369012653827667,-0.16159166395664215,0.999627411365509,0.44659480452537537,0.27687719464302063,-0.23471470177173615,0.9999604821205139,0.4437750279903412,0.27485477924346924,0.004288239870220423,0.998541533946991,0.4533993601799011,0.5070725083351135,-0.06646724045276642,0.9989345073699951,0.4453689455986023,0.503362238407135,0.06640978157520294,0.9958922863006592,0.4561176896095276,0.6653592586517334,0.01724093034863472,0.8767824769020081,0.45017051696777344,0.642751157283783,0.15570947527885437,0.4107799232006073,0.46534404158592224,0.7822713851928711,0.12263083457946777,0.8534119725227356,0.4666225016117096,0.7590680718421936,0.2664872109889984,0.40302616357803345,0.43606534600257874,0.536220133304596,-0.19890469312667847,0.97923743724823,0.432241827249527,0.4875607490539551,0.03511379286646843,0.07942415773868561,-178.95107825450353,0.4493841528892517,0.5052173733711243,165.62503313808648,168.28437014043558,0.671772538941158,0.018706612881153505,-0.0368864377153805,0.11911476694584368,-0.25409674791313097,-144.35094755862772,0.3270390644388165,77,1762115184.1414783
0.413536936044693,0.20293106138706207,-0.15345117449760437,0.9996160864830017,0.44803136587142944,0.2716860771179199,-0.22419746220111847,0.9999597668647766,0.4441888928413391,0.27235251665115356,0.015423549339175224,0.9984344840049744,0.45519882440567017,0.5024476647377014,-0.0660131499171257,0.9988493323326111,0.44744816422462463,0.49837958812713623,0.06595683842897415,0.9955719709396362,0.4571755826473236,0.6610787510871887,0.007710948586463928,0.8725777864456177,0.4518221914768219,0.6392320990562439,0.14282402396202087,0.4041415750980377,0.46648526191711426,0.779902994632721,0.10170240700244904,0.8476399779319763,0.46833163499832153,0.7582720518112183,0.24063041806221008,0.39466893672943115,0.43827763199806213,0.5302292108535767,-0.19248616695404053,0.979994535446167,0.4343722462654114,0.4853595197200775,0.0394582562148571,0.07679017633199692,-178.69238457988678,0.4513234943151474,0.5004136264324188,166.28026839943797,168.3065571261874,0.654837275157901,0.028287906451051992,-0.07006911841418884,0.13975607005877067,-0.48401408584849454,170.16048822139248,0.4038062171736112,78,1762115184.2100356
0.4141586422920227,0.2026691436767578,-0.1722516417503357,0.9996271133422852,0.44958624243736267,0.2715012729167938,-0.23336179554462433,0.9999613165855408,0.44374266266822815,0.27155381441116333,0.007147329859435558,0.9984167814254761,0.4565765857696533,0.5010367631912231,-0.06597013026475906,0.9988598823547363,0.44732555747032166,0.4973166584968567,0.06591731309890747,0.995563268661499,0.4577873647212982,0.6620637774467468,0.012240024283528328,0.8692259788513184,0.4524080157279968,0.6391546130180359,0.15169015526771545,0.3977930247783661,0.4664772152900696,0.7805286049842834,0.11244497448205948,0.8379455208778381,0.46896687150001526,0.7574049830436707,0.2628183364868164,0.3841421604156494,0.4385639727115631,0.5290364027023315,-0.20643863081932068,0.9813275933265686,0.4337138235569,0.48409304022789,0.03552774712443352,0.0774526298046112,-178.6696787379985,0.4519510716199875,0.4991767108440399,165.40485619957138,167.2905967366135,0.6731107296305348,0.009621500109657139,-0.018963374515680972,-0.2861780202622187,0.7835113168231855,179.4848492062571,0.41873039081303753,79,1762115184.275262
