nose_x,nose_y,nose_z,nose_visibility,left_shoulder_x,left_shoulder_y,left_shoulder_z,left_shoulder_visibility,right_shoulder_x,right_shoulder_y,right_shoulder_z,right_shoulder_visibility,left_hip_x,left_hip_y,left_hip_z,left_hip_visibility,right_hip_x,right_hip_y,right_hip_z,right_hip_visibility,left_knee_x,left_knee_y,left_knee_z,left_knee_visibility,right_knee_x,right_knee_y,right_knee_z,right_knee_visibility,left_ankle_x,left_ankle_y,left_ankle_z,left_ankle_visibility,right_ankle_x,right_ankle_y,right_ankle_z,right_ankle_visibility,left_wrist_x,left_wrist_y,left_wrist_z,left_wrist_visibility,right_wrist_x,right_wrist_y,right_wrist_z,right_wrist_visibility,trunk_lateral_inclination,center_mass_x,center_mass_y,left_knee_angle,right_knee_angle,person_height,center_mass_velocity_x,center_mass_velocity_y,center_mass_acceleration_x,center_mass_acceleration_y,body_orientation,torso_leg_ratio,frame,timestamp
0.47049278020858765,0.45324504375457764,-0.24745221436023712,0.9999666213989258,0.5247288942337036,0.5214190483093262,-0.12292777001857758,0.9999439716339111,0.4211585521697998,0.5227738618850708,-0.12518087029457092,0.9999622106552124,0.5071018934249878,0.7278479933738708,0.0029375909361988306,0.9978641867637634,0.44699984788894653,0.7350282669067383,-0.003023056546226144,0.9975053668022156,0.5414820313453674,0.8778951168060303,-0.16705936193466187,0.8446130156517029,0.4313119947910309,0.8856760859489441,-0.13320201635360718,0.7925488352775574,0.5501809120178223,1.0353013277053833,-0.04873350262641907,0.5365981459617615,0.4375309348106384,1.0432586669921875,-0.03873400762677193,0.6566921472549438,0.5600209832191467,0.7336979508399963,-0.09464992582798004,0.7739784717559814,0.392485648393631,0.744732141494751,-0.13762350380420685,0.9118829369544983,-178.87603828227563,0.47705087065696716,0.7314381301403046,94.82497562400347,107.99712941344744,0.6208735893296972,0.0,0.0,0.0,0.0,179.2505511595617,0.5505625757822321,0,1762115184.834118
0.4713735580444336,0.45093366503715515,-0.29405635595321655,0.9999651312828064,0.5245956182479858,0.5211176872253418,-0.12482790648937225,0.9999451041221619,0.42135077714920044,0.522118330001831,-0.14216956496238708,0.9999607801437378,0.5080625414848328,0.7310411334037781,0.0040940186008811,0.9976734519004822,0.447164386510849,0.7378319501876831,-0.0041886805556714535,0.9970698356628418,0.540008544921875,0.8970803022384644,-0.18461140990257263,0.8471474051475525,0.4441617429256439,0.8999934792518616,-0.13023237884044647,0.7940298318862915,0.5512489080429077,1.0562859773635864,-0.0516887828707695,0.535862147808075,0.4379657208919525,1.0677125453948975,-0.011738378554582596,0.639697253704071,0.5586576461791992,0.7342880964279175,-0.10619030147790909,0.7838191986083984,0.39198097586631775,0.7442408800125122,-0.15995103120803833,0.9120514392852783,-178.7509285451431,0.4776134639978409,0.7344365417957306,91.86224551131875,106.91795243716443,0.6654056673874532,0.010082023422445727,0.053733406252536864,0.18067614546038566,0.9629361406314079,179.44471014503455,1.839061695963358,1,1762115184.8899195
0.47169119119644165,0.44851571321487427,-0.3066806495189667,0.9999651908874512,0.5242459774017334,0.5207560062408447,-0.12502744793891907,0.9999475479125977,0.4214042127132416,0.520415186882019,-0.14604829251766205,0.9999611973762512,0.5081990361213684,0.7332092523574829,0.005617646966129541,0.9976451992988586,0.4471397399902344,0.7391482591629028,-0.005694705061614513,0.9969216585159302,0.5399193167686462,0.9180633425712585,-0.20720216631889343,0.8486014008522034,0.44622230529785156,0.900291383266449,-0.1529904305934906,0.7965405583381653,0.5500136613845825,1.0757246017456055,-0.05174141377210617,0.532756507396698,0.4381038546562195,1.0742474794387817,-0.013451996259391308,0.6224992871284485,0.5562390685081482,0.7382513880729675,-0.116022989153862,0.7977384924888611,0.3917168378829956,0.7427840232849121,-0.18401594460010529,0.9151820540428162,-178.71280309945058,0.4776693880558014,0.7361787557601929,86.69888013550208,98.83852865013306,0.6841691221944418,0.0007810470900845104,0.024332124614575217,-0.12989938077214144,-0.41062444868182757,-179.81012150648755,4.898435468481643,2,1762115184.961521
0.47176066040992737,0.44823217391967773,-0.3837445080280304,0.999965488910675,0.5238627195358276,0.5205278396606445,-0.159722238779068,0.9999502301216125,0.42127472162246704,0.5203818082809448,-0.18302831053733826,0.9999611973762512,0.5083343982696533,0.734728217124939,0.006601863540709019,0.9976760745048523,0.4470263421535492,0.7403736710548401,-0.006658046040683985,0.9968482851982117,0.5402084589004517,0.9303189516067505,-0.2121092528104782,0.8497564792633057,0.4452514052391052,0.9096677303314209,-0.16428068280220032,0.7991448640823364,0.5497531294822693,1.0842881202697754,-0.02736101672053337,0.5299959182739258,0.43855562806129456,1.0785436630249023,0.018862251192331314,0.6036950945854187,0.5556979775428772,0.7399647235870361,-0.169490784406662,0.8118712306022644,0.3914991021156311,0.7428049445152283,-0.20438209176063538,0.9184067845344543,-178.65118803000405,0.47768037021160126,0.7375509440898895,81.91775028871567,89.73572757256747,0.738538860938663,0.00015149596613725987,0.018928979019967044,-0.008684493053390545,-0.07453497992128767,-179.91844098479183,3.585998427909964,3,1762115185.0340123
0.47176915407180786,0.4480239748954773,-0.38389140367507935,0.9999658465385437,0.5233961343765259,0.5204318165779114,-0.16791188716888428,0.9999529719352722,0.4213241636753082,0.5191393494606018,-0.18033148348331451,0.999961793422699,0.5088290572166443,0.7357725501060486,0.0068051936104893684,0.9977233409881592,0.4470338225364685,0.7413942813873291,-0.006856326945126057,0.9967831373214722,0.540389895439148,0.9340137243270874,-0.22100873291492462,0.856169581413269,0.4452226161956787,0.9114491939544678,-0.1423259973526001,0.805242121219635,0.5500060319900513,1.0884850025177002,-0.030301934108138084,0.5404992699623108,0.4379267692565918,1.0877528190612793,0.050136275589466095,0.591956377029419,0.555751383304596,0.7410340905189514,-0.1548924595117569,0.8251293897628784,0.39149099588394165,0.742069661617279,-0.1862775832414627,0.9215842485427856,-178.54138185212216,0.4779314398765564,0.7385834157466888,80.33561500634673,93.9609885019384,0.7518639757263202,0.0029689323755124133,0.012209115462906055,0.03331656244985211,-0.07946328552734226,-179.27454174621423,4.7981016857597645,4,1762115185.118578
0.472233384847641,0.4474969208240509,-0.3709803819656372,0.999967634677887,0.5230759382247925,0.5201206803321838,-0.15432895720005035,0.9999561905860901,0.4213307499885559,0.5190134048461914,-0.17039257287979126,0.999963641166687,0.5105327367782593,0.7390349507331848,0.007590786553919315,0.9977988004684448,0.4473741948604584,0.7448475956916809,-0.007622108794748783,0.9967955946922302,0.5406285524368286,0.9378015398979187,-0.2379911243915558,0.8637900352478027,0.4447113573551178,0.914279580116272,-0.15389792621135712,0.8138803243637085,0.5503031015396118,1.0953038930892944,-0.06122029572725296,0.5527874827384949,0.4374867081642151,1.098225712776184,0.027895158156752586,0.5858396887779236,0.5558847188949585,0.7421305179595947,-0.13949468731880188,0.8380132913589478,0.39151400327682495,0.7421282529830933,-0.1779247373342514,0.9262310266494751,-178.26133287418367,0.4789534658193588,0.7419412732124329,80.96157124116411,94.54916013070994,0.7399723757842105,0.015300527187453153,0.05026975079060272,0.184613612808486,0.5697974593544521,-179.3764844434404,5.506033651681649,5,1762115185.1853747
0.4725944399833679,0.44740206003189087,-0.3766287565231323,0.9999693036079407,0.5222136974334717,0.5200396776199341,-0.1528172791004181,0.9999591112136841,0.4214322566986084,0.5184868574142456,-0.1750274896621704,0.9999644756317139,0.5111873745918274,0.7397944331169128,0.008577150292694569,0.9978808164596558,0.44750016927719116,0.7468205094337463,-0.008597658947110176,0.9967866539955139,0.5406389236450195,0.9357483983039856,-0.2329818457365036,0.8711873292922974,0.4448915123939514,0.9179691672325134,-0.1400306224822998,0.8202561736106873,0.5499910116195679,1.0996183156967163,-0.07251052558422089,0.5646190047264099,0.4364384114742279,1.1069868803024292,0.037443242967128754,0.5775551199913025,0.5559076070785522,0.7420381307601929,-0.10735795646905899,0.8500319123268127,0.3915213346481323,0.7420929670333862,-0.18394920229911804,0.9298627376556396,-178.07739699571383,0.4793437719345093,0.7433074712753296,84.89885770742104,99.29884070720365,0.7480508091544485,0.005964732180268676,0.020878498271131727,-0.14267139239230145,-0.44916270310987605,-179.11726798130493,16.694568092171846,6,1762115185.2508104
0.47320547699928284,0.446576863527298,-0.36417248845100403,0.9999707937240601,0.5214980244636536,0.5196520090103149,-0.15112507343292236,0.9999617338180542,0.4214332103729248,0.5177357792854309,-0.16858968138694763,0.999966025352478,0.5114767551422119,0.7407662868499756,0.009017141535878181,0.9979293346405029,0.44751134514808655,0.7479408383369446,-0.009028016589581966,0.9967621564865112,0.5406475067138672,0.936253547668457,-0.2349545955657959,0.8773807287216187,0.44438427686691284,0.9206434488296509,-0.1434004008769989,0.8260482549667358,0.5503252744674683,1.104724407196045,-0.08854485303163528,0.5736162662506104,0.4351816773414612,1.1118824481964111,0.021988363936543465,0.5726537704467773,0.5560089349746704,0.7421290278434753,-0.09697895497083664,0.8615481853485107,0.39159610867500305,0.7421878576278687,-0.17873163521289825,0.9340695738792419,-177.9624122487551,0.47949405014514923,0.7443535625934601,87.95467229946202,101.2823585956899,0.7401048375983333,0.0022333291995889877,0.015546274315274776,-0.05545348987519661,-0.07924376666883973,-178.90292647946885,33.65032394548336,7,1762115185.3180993
0.4732024073600769,0.44648972153663635,-0.38338881731033325,0.9999717473983765,0.5210655927658081,0.5196168422698975,-0.15050461888313293,0.9999638199806213,0.4214702248573303,0.5168024301528931,-0.17258551716804504,0.9999677538871765,0.5117949843406677,0.7418069839477539,0.009157514199614525,0.997956395149231,0.44766926765441895,0.7486279606819153,-0.009164528921246529,0.9967900514602661,0.5414354205131531,0.9467689394950867,-0.22677627205848694,0.8826465606689453,0.4441847801208496,0.9206324219703674,-0.1820966899394989,0.8338524103164673,0.5501002073287964,1.1091657876968384,-0.07655470073223114,0.5823163986206055,0.4352523684501648,1.1111795902252197,-0.011689342558383942,0.5743827819824219,0.5560516119003296,0.7426819801330566,-0.10109281539916992,0.8719600439071655,0.3916241526603699,0.7422873377799988,-0.1790238320827484,0.9382315278053284,-177.86465798980757,0.47973212599754333,0.7452174723148346,88.43322699504525,93.06587592121569,0.7456247527496223,0.002861194205190801,0.010382461991621824,0.007545677974497876,-0.06205866638112925,-178.3813400418228,62.78514037343632,8,1762115185.4013078
0.47369855642318726,0.4460294842720032,-0.38531845808029175,0.999972939491272,0.5205808877944946,0.5194259881973267,-0.15049797296524048,0.9999664425849915,0.42156749963760376,0.5164797306060791,-0.17191092669963837,0.9999688267707825,0.5120722055435181,0.7426939010620117,0.00990647729486227,0.9980477094650269,0.4477037489414215,0.7495595216751099,-0.009893877431750298,0.9968348145484924,0.5419662594795227,0.9437949061393738,-0.234881192445755,0.8898370265960693,0.44394421577453613,0.9236106276512146,-0.16840744018554688,0.8424717783927917,0.5502864122390747,1.110438585281372,-0.07452627271413803,0.5963573455810547,0.43496760725975037,1.1111278533935547,0.004289242904633284,0.5751509070396423,0.5560693740844727,0.7425649166107178,-0.10289762914180756,0.8824775218963623,0.39174214005470276,0.742432713508606,-0.17188388109207153,0.9417471289634705,-177.7879075352861,0.4798879772424698,0.7461267113685608,85.72293856223601,95.05943721712798,0.7515955127786182,0.002340709137068561,0.01365574052257859,-0.007817096072837955,0.04916093528284946,-178.29560090396282,26.771072942605013,9,1762115185.4678907
0.4754730761051178,0.4458584189414978,-0.36749500036239624,0.9999740123748779,0.5199201107025146,0.5193458199501038,-0.14714880287647247,0.9999687671661377,0.42157357931137085,0.5164560675621033,-0.16930928826332092,0.9999693036079407,0.5123640298843384,0.742498517036438,0.010783156380057335,0.998138427734375,0.44786009192466736,0.7500708103179932,-0.010756256058812141,0.9968893527984619,0.5424838066101074,0.9414554238319397,-0.23136873543262482,0.8973252773284912,0.4444318413734436,0.9252010583877563,-0.14588768780231476,0.8514542579650879,0.5502527356147766,1.111052393913269,-0.07987172901630402,0.6094657182693481,0.4347146153450012,1.1127411127090454,0.014766031876206398,0.5791046023368835,0.5560754537582397,0.7427880764007568,-0.09784726798534393,0.8922339081764221,0.3918232321739197,0.7432142496109009,-0.1746799200773239,0.9452207088470459,-177.65181648945673,0.48011206090450287,0.7462846636772156,87.83310338993576,101.78623928353207,0.7457095067037077,0.0033557376463867468,0.0023653956012567837,0.015200436078075204,-0.16907718817794823,-178.31694125101683,9.603886775606577,10,1762115185.534667
0.4761788249015808,0.4450313448905945,-0.3284406065940857,0.9999754428863525,0.5197287797927856,0.5193971991539001,-0.11889787018299103,0.9999711513519287,0.42161282896995544,0.5163767337799072,-0.14178745448589325,0.9999703168869019,0.5127356052398682,0.74295973777771,0.010946988128125668,0.9982214570045471,0.44809699058532715,0.7508046627044678,-0.010917490348219872,0.9969509243965149,0.5429480075836182,0.9404534101486206,-0.2311265468597412,0.9046558141708374,0.4448821544647217,0.9240214824676514,-0.14625416696071625,0.86052006483078,0.550268292427063,1.1124389171600342,-0.08933442831039429,0.6256894469261169,0.43344050645828247,1.115831971168518,-0.0020454612094908953,0.5893660187721252,0.5561270713806152,0.7427261471748352,-0.08135633170604706,0.901524007320404,0.3919706642627716,0.7430066466331482,-0.16444049775600433,0.9486899971961975,-177.56309812962488,0.48041629791259766,0.7468822002410889,89.88794145401067,105.08397892439139,0.726563112241245,0.003267121463885482,0.006416788494970262,-0.0009516259501450018,0.04350684607561126,-178.23672625722813,4.726963474228613,11,1762115185.6277878
0.47741565108299255,0.44509804248809814,-0.36559027433395386,0.9999768733978271,0.5197683572769165,0.5194398760795593,-0.12510021030902863,0.9999734163284302,0.4220796227455139,0.5163511633872986,-0.14870992302894592,0.9999715685844421,0.5131435394287109,0.7435467839241028,0.011196902953088284,0.9983025193214417,0.4484165608882904,0.7515751123428345,-0.011147266253829002,0.9970154166221619,0.5436441898345947,0.9420730471611023,-0.23614256083965302,0.9115821123123169,0.44505348801612854,0.9258934259414673,-0.14907948672771454,0.8692265748977661,0.5505743026733398,1.113568902015686,-0.08232440799474716,0.6418620944023132,0.43353381752967834,1.115815281867981,0.007989328354597092,0.5969467759132385,0.5561666488647461,0.7427480220794678,-0.10118938982486725,0.9099928736686707,0.39205944538116455,0.7430159449577332,-0.16508617997169495,0.9521530270576477,-177.54266733805594,0.48078005015850067,0.7475609481334686,87.04360969059037,102.0816669946426,0.7459436752382974,0.004630999754136427,0.008641269870177963,0.01736379664445608,0.028320299923081608,-178.18903105139003,4.293122684504093,12,1762115185.706335
0.4781542718410492,0.4451138377189636,-0.37398943305015564,0.999978244304657,0.5197645425796509,0.519386351108551,-0.12642976641654968,0.9999753832817078,0.42232149839401245,0.5162414908409119,-0.1609925627708435,0.9999727606773376,0.5135241746902466,0.7441966533660889,0.011655976995825768,0.9983866810798645,0.44869494438171387,0.7519215941429138,-0.011598050594329834,0.9971101880073547,0.5450860857963562,0.9488273859024048,-0.21505287289619446,0.9180246591567993,0.4450245499610901,0.9291818141937256,-0.143525168299675,0.8776677250862122,0.5506919026374817,1.1166561841964722,-0.033270906656980515,0.6572575569152832,0.43358248472213745,1.1157875061035156,0.03988964855670929,0.6054636836051941,0.5561976432800293,0.7427059412002563,-0.10400793701410294,0.9175547361373901,0.39207661151885986,0.743320882320404,-0.16710112988948822,0.9554729461669922,-177.49656838491373,0.4811095595359802,0.7480591237545013,84.94743991216234,98.86755122502103,0.7700232900640358,0.004209767620370455,0.006364624930322663,-0.005381605254914426,-0.029086110459717648,-178.15148736312165,3.4484791886878523,13,1762115185.7846076
0.4789764881134033,0.44521233439445496,-0.36685505509376526,0.9999794363975525,0.5197033286094666,0.5193849205970764,-0.12911231815814972,0.9999772906303406,0.4227079451084137,0.5162175893783569,-0.15982699394226074,0.9999739527702332,0.5139268636703491,0.7453358769416809,0.011633320711553097,0.998445987701416,0.44913363456726074,0.7522673606872559,-0.011573432013392448,0.9971649050712585,0.5453691482543945,0.9500523805618286,-0.20711275935173035,0.9232784509658813,0.44529658555984497,0.9277550578117371,-0.1491837203502655,0.8843563199043274,0.5506337881088257,1.1202678680419922,-0.03576255589723587,0.6684765219688416,0.4331618845462799,1.116434097290039,0.03611066937446594,0.6122177839279175,0.5562124252319336,0.7426806688308716,-0.10482870042324066,0.9246495366096497,0.39221495389938354,0.7437318563461304,-0.1640266478061676,0.9586036205291748,-177.4408556808961,0.48153024911880493,0.7488016188144684,88.05444116206263,97.45294334206734,0.7668069965571527,0.0047836188503590765,0.00844283650027246,0.006525204505049826,0.02363113432544525,-178.12970223041265,3.0048080250688636,14,1762115185.8725514
0.479856014251709,0.4452255666255951,-0.3877556025981903,0.9999805688858032,0.5197106599807739,0.5193229913711548,-0.13538113236427307,0.9999789595603943,0.42343440651893616,0.5159943699836731,-0.1731022596359253,0.9999747276306152,0.5142496824264526,0.745292603969574,0.012417485006153584,0.9985191226005554,0.44929057359695435,0.7521623969078064,-0.01234718132764101,0.9972368478775024,0.5452991724014282,0.948616623878479,-0.20794478058815002,0.9286713004112244,0.44583138823509216,0.9268530011177063,-0.14531856775283813,0.8905888795852661,0.5510247349739075,1.1189401149749756,-0.04018770530819893,0.6819541454315186,0.43321290612220764,1.1167645454406738,0.03796941787004471,0.6179632544517517,0.5562220811843872,0.7425721883773804,-0.10837066173553467,0.930945873260498,0.39243268966674805,0.74382084608078,-0.1779848039150238,0.9613819718360901,-177.4730460868973,0.4817701280117035,0.7487275004386902,88.28393257112295,98.77135574162115,0.7759333886804486,0.0023941391331247248,-0.0007397470523147211,-0.023848479662851217,-0.09164784096170239,-178.01986455913007,2.958002541462304,15,1762115185.9727457
0.4801449179649353,0.4452506899833679,-0.4316198229789734,0.9999814629554749,0.5198520421981812,0.5191223621368408,-0.15157385170459747,0.9999804496765137,0.4243592321872711,0.5156543254852295,-0.1896033138036728,0.9999750852584839,0.5143775343894958,0.745823323726654,0.01310591958463192,0.9985944032669067,0.449382483959198,0.752531111240387,-0.01301983930170536,0.9973173141479492,0.5459336638450623,0.9521538019180298,-0.20671844482421875,0.9332504272460938,0.4462243914604187,0.9285677671432495,-0.14712297916412354,0.8956239819526672,0.5508406162261963,1.1230751276016235,-0.008235575631260872,0.695320188999176,0.43226560950279236,1.115305781364441,0.057423193007707596,0.6233704686164856,0.5562751889228821,0.7424123883247375,-0.13019481301307678,0.9367741346359253,0.3926195800304413,0.7438252568244934,-0.20233483612537384,0.9635671377182007,-177.5853083495117,0.4818800091743469,0.7491772174835205,84.06602708370164,95.12856291549338,0.8139138964311287,0.0014318491086574249,0.005860212381242349,-0.012539493400471283,0.08600333127871825,-177.92008871983998,2.159168537256173,16,1762115186.0494864
0.48066893219947815,0.4452694356441498,-0.40740013122558594,0.999982476234436,0.5199929475784302,0.51882404088974,-0.14936497807502747,0.9999819397926331,0.4251275956630707,0.5155138969421387,-0.18149739503860474,0.9999756813049316,0.5145264863967896,0.7459885478019714,0.01309670228511095,0.9986613392829895,0.44953179359436035,0.7528393268585205,-0.013010745868086815,0.9973879456520081,0.5463494658470154,0.951705276966095,-0.205879807472229,0.9374200105667114,0.44650477170944214,0.9281550645828247,-0.1466740071773529,0.9004824161529541,0.5509129762649536,1.1220109462738037,-0.012812758795917034,0.7062853574752808,0.4315396845340729,1.1151700019836426,0.05463584512472153,0.6273342967033386,0.5565618872642517,0.7419565916061401,-0.12387780845165253,0.9421751499176025,0.3931169807910919,0.7436497807502747,-0.20171241462230682,0.9657077193260193,-177.66528468578673,0.48202913999557495,0.749413937330246,84.76570800709598,95.60346824567574,0.7980749149932315,0.0018481475681569048,0.0029336203305096514,0.005159101111466512,-0.036268652831185855,-178.00158478102747,1.8203101866982687,17,1762115186.1301785
0.4808824062347412,0.445316344499588,-0.4027366042137146,0.9999831318855286,0.5203132629394531,0.5188138484954834,-0.1384878158569336,0.9999830722808838,0.4256346821784973,0.5155003666877747,-0.17505595088005066,0.9999761581420898,0.5147038698196411,0.7462611794471741,0.01331950444728136,0.9987211227416992,0.44968682527542114,0.753142774105072,-0.013238243758678436,0.9974501132965088,0.5462881326675415,0.950842022895813,-0.20731499791145325,0.9410938620567322,0.44666868448257446,0.927873969078064,-0.13891710340976715,0.9049645066261292,0.5509157180786133,1.125481128692627,-0.029964422807097435,0.7147011756896973,0.4322846829891205,1.1164147853851318,0.04646998643875122,0.6277559399604797,0.5568526983261108,0.7417088150978088,-0.09669958055019379,0.9467648267745972,0.3935932517051697,0.7436350584030151,-0.1705176830291748,0.9678261876106262,-177.72917287805032,0.48219534754753113,0.749701976776123,87.52253003514953,99.78549533035542,0.7908888812001474,0.0023212430574979025,0.004022738775455841,0.0066072185483840905,0.01521055210409951,-177.99562826626124,1.889932733080348,18,1762115186.2017813
0.4817158579826355,0.44538384675979614,-0.38615524768829346,0.999983549118042,0.5205453634262085,0.5185204744338989,-0.13413935899734497,0.9999842047691345,0.426320880651474,0.5153852105140686,-0.16454046964645386,0.9999760985374451,0.5149514079093933,0.7462059259414673,0.013356896117329597,0.998790979385376,0.450288861989975,0.7531160712242126,-0.013278777711093426,0.9975240230560303,0.5464284420013428,0.9503508806228638,-0.20810040831565857,0.9444846510887146,0.44693127274513245,0.9278935194015503,-0.12206397950649261,0.9081100225448608,0.5509133338928223,1.1290372610092163,-0.04994404688477516,0.723494291305542,0.43232473731040955,1.121886968612671,0.046364642679691315,0.6288550496101379,0.5573919415473938,0.741301417350769,-0.10478774458169937,0.9510185122489929,0.39436075091362,0.7436376214027405,-0.17237569391727448,0.9696213006973267,-177.73921178465253,0.48262013494968414,0.74966099858284,91.26385532501703,107.16022009965643,0.7812434935638402,0.005074688188029952,-0.000489542656788942,0.03289380854864978,-0.053905603530660026,-178.0942199772767,1.8149617519819479,19,1762115186.2854884
0.4825761318206787,0.4457661509513855,-0.3377481698989868,0.9999842643737793,0.5209003686904907,0.51804119348526,-0.11196406185626984,0.9999852180480957,0.4273362159729004,0.5147104263305664,-0.14148454368114471,0.999976634979248,0.5150803327560425,0.7465294599533081,0.01331191323697567,0.9988427758216858,0.4506394863128662,0.7530863285064697,-0.013238191604614258,0.9975960850715637,0.5478593111038208,0.9516772031784058,-0.1901436150074005,0.9477326273918152,0.44694486260414124,0.928638219833374,-0.12762367725372314,0.9122510552406311,0.5513491630554199,1.1291887760162354,-0.03513365611433983,0.7308608293533325,0.43186837434768677,1.120405912399292,0.04361774027347565,0.6308249831199646,0.5579645037651062,0.7409476637840271,-0.09088575094938278,0.9548888802528381,0.3947989344596863,0.7436822652816772,-0.14766646921634674,0.9716158509254456,-177.85537690388261,0.48285990953445435,0.7498078942298889,94.17771128464962,105.18097924693073,0.760343511206178,0.0031458603129320647,0.001927281770237045,-0.025306364594741615,0.03170891550325258,-177.96120264734057,1.5086533001465015,20,1762115186.3617074
0.48307672142982483,0.4461666941642761,-0.33436232805252075,0.9999843835830688,0.5216144919395447,0.5180424451828003,-0.10593106597661972,0.999985933303833,0.42826443910598755,0.5143976807594299,-0.13701264560222626,0.9999773502349854,0.5152217149734497,0.7473734617233276,0.013291455805301666,0.9988879561424255,0.4508621096611023,0.7532505393028259,-0.013216061517596245,0.9976651072502136,0.5490215420722961,0.9526273012161255,-0.19123558700084686,0.9498382210731506,0.44696229696273804,0.9287990927696228,-0.14540866017341614,0.914958119392395,0.5519991517066956,1.1319705247879028,-0.036651939153671265,0.7351489067077637,0.43191179633140564,1.119458794593811,0.021794801577925682,0.6312466859817505,0.558262288570404,0.7406666278839111,-0.07682319730520248,0.9579330086708069,0.3952939808368683,0.7436884641647339,-0.14172911643981934,0.9733602404594421,-178.01765598153762,0.483041912317276,0.7503120005130768,94.39616963971021,101.80787756446692,0.7541551250543688,0.003427002105471082,0.009492015820213421,0.005293729579460528,0.14243935787509981,-177.76407625431088,1.3420322877561222,21,1762115186.414816
0.48350220918655396,0.4466734528541565,-0.3385176658630371,0.9999845623970032,0.522475004196167,0.5181446671485901,-0.11065182834863663,0.9999866485595703,0.42889684438705444,0.5143991112709045,-0.1407458484172821,0.9999780654907227,0.5154985189437866,0.747954785823822,0.013261931948363781,0.998930811882019,0.45115232467651367,0.7534583210945129,-0.013190594501793385,0.9977214336395264,0.5499122738838196,0.952506959438324,-0.19257470965385437,0.9520017504692078,0.44695743918418884,0.9292385578155518,-0.1442684531211853,0.9175043106079102,0.5528342127799988,1.1314443349838257,-0.037544120103120804,0.7395342588424683,0.43203869462013245,1.1186890602111816,0.022379843518137932,0.6302340626716614,0.5585434436798096,0.7406415939331055,-0.07996799051761627,0.960624635219574,0.3956068754196167,0.7436786890029907,-0.1421830803155899,0.9749598503112793,-178.13356898588526,0.48332542181015015,0.7507065534591675,93.97097688360543,101.99479487297609,0.7548612711265756,0.003562707852712946,0.004958129849896635,0.0017053394807188722,-0.056974851127553634,-177.70790481650795,1.2733763226104473,22,1762115186.4943929
0.4837750792503357,0.44707590341567993,-0.34588250517845154,0.999984860420227,0.5230849385261536,0.5182846784591675,-0.11516354978084564,0.9999873638153076,0.42930594086647034,0.5145593285560608,-0.14449843764305115,0.9999788403511047,0.515683650970459,0.748186469078064,0.013236847706139088,0.9989731907844543,0.45147839188575745,0.7534592747688293,-0.0131673663854599,0.9977815747261047,0.5502777099609375,0.9524393677711487,-0.1944362223148346,0.95404452085495,0.4469674527645111,0.9295188784599304,-0.14393548667430878,0.9199666380882263,0.5530732870101929,1.1312713623046875,-0.03784559294581413,0.7442271113395691,0.4322637617588043,1.1178717613220215,0.024624932557344437,0.629929780960083,0.5587195158004761,0.7406052350997925,-0.08545685559511185,0.9631730318069458,0.39592307806015015,0.7436818480491638,-0.1454063206911087,0.9764478206634521,-178.19530228901633,0.4835810214281082,0.7508228719234467,93.37407653318604,101.61833490182161,0.757750004442477,0.0036759789466465505,0.0016728672335756412,0.0016290406061243102,-0.047247943124007714,-177.7251339744434,1.2402201622589306,23,1762115186.5639253
0.48430687189102173,0.44709423184394836,-0.38416576385498047,0.9999853372573853,0.5237389802932739,0.5183023810386658,-0.13082638382911682,0.9999879002571106,0.42993026971817017,0.5145496129989624,-0.16347052156925201,0.9999792575836182,0.516214907169342,0.7482545375823975,0.013283291831612587,0.9989956617355347,0.45208877325057983,0.7534881830215454,-0.013211076147854328,0.9978057146072388,0.5507446527481079,0.9534925818443298,-0.19435518980026245,0.9556954503059387,0.44701284170150757,0.9294359683990479,-0.14927922189235687,0.9224205017089844,0.5532485842704773,1.13059663772583,-0.016926521435379982,0.7470559477806091,0.4344758093357086,1.1167452335357666,0.04081294313073158,0.6280341148376465,0.5594278573989868,0.7411770224571228,-0.09861895442008972,0.965536892414093,0.39641138911247253,0.7436500787734985,-0.16953691840171814,0.9775843620300293,-178.21233616186117,0.48415184020996094,0.7508713603019714,89.68433477337466,96.9134457987535,0.784059729983146,0.007222655460461019,0.0006135307089654673,0.044876628631326736,-0.013403943558247486,-177.70913407648146,1.4583241999067311,24,1762115186.642957
0.4848288893699646,0.447128027677536,-0.39852839708328247,0.9999856352806091,0.5244890451431274,0.5182374119758606,-0.1428077220916748,0.9999884366989136,0.4304293990135193,0.5143980979919434,-0.17478735744953156,0.9999796152114868,0.5167415142059326,0.7482576966285706,0.013271724805235863,0.999030590057373,0.4526139795780182,0.7535209655761719,-0.013201447203755379,0.9978451728820801,0.5514446496963501,0.9545978307723999,-0.18715514242649078,0.9574001431465149,0.4470542073249817,0.9296256303787231,-0.14182718098163605,0.9241712093353271,0.5541812181472778,1.1302958726882935,0.0005694346618838608,0.7519145011901855,0.4344703257083893,1.1166678667068481,0.06413589417934418,0.6273429989814758,0.5599976778030396,0.7413501143455505,-0.10652470588684082,0.9675455093383789,0.39680179953575134,0.7436689734458923,-0.1788605898618698,0.9785853624343872,-178.23738011498875,0.4846777468919754,0.7508893311023712,89.01826660264497,96.15754286517605,0.8019995009701095,0.006809870829911643,0.0002327006551121594,-0.005345073775915119,-0.004931299722139657,-177.66260611155974,1.465792526288284,25,1762115186.720184
0.4855676293373108,0.4471369981765747,-0.4017200469970703,0.9999860525131226,0.5251033902168274,0.5182111263275146,-0.1478278934955597,0.9999889731407166,0.4305713176727295,0.5143977999687195,-0.17906692624092102,0.9999800324440002,0.5172461867332458,0.7482467889785767,0.013293668627738953,0.9990469813346863,0.45307546854019165,0.7535145878791809,-0.013222115114331245,0.9978525042533875,0.5515190362930298,0.9544792771339417,-0.1885080635547638,0.9589757919311523,0.4472678303718567,0.9295898675918579,-0.1426025927066803,0.9260457158088684,0.5542399883270264,1.1292781829833984,-0.011487063951790333,0.7551628351211548,0.4343814253807068,1.1164411306381226,0.054727863520383835,0.627435028553009,0.5604807138442993,0.7415277361869812,-0.11379736661911011,0.9693980813026428,0.3970623314380646,0.7436665892601013,-0.18702459335327148,0.9794535636901855,-178.21180562870387,0.48516082763671875,0.7508806884288788,90.33233722619833,97.19100958168502,0.797430051275446,0.005716184954791023,-0.0001022667964397049,-0.01294133705940478,-0.003963593928635523,-177.68999974321625,1.4405719353317237,26,1762115186.8046951
0.48625922203063965,0.4472097158432007,-0.40254074335098267,0.9999862313270569,0.5261013507843018,0.5183326601982117,-0.15064388513565063,0.99998939037323,0.4310714602470398,0.5143764615058899,-0.1783117949962616,0.9999803304672241,0.5177499651908875,0.7484187483787537,0.013159203343093395,0.9990756511688232,0.4537830948829651,0.753632128238678,-0.013092637062072754,0.9978883266448975,0.5522755980491638,0.9567722678184509,-0.18281704187393188,0.9596571326255798,0.44776540994644165,0.9295542240142822,-0.14046171307563782,0.9267809987068176,0.5553631782531738,1.1319944858551025,0.0021776878274977207,0.7565849423408508,0.43501991033554077,1.1162313222885132,0.06067894026637077,0.6261895895004272,0.5611494183540344,0.7426683902740479,-0.1176590546965599,0.9710821509361267,0.3976653516292572,0.7438772320747375,-0.18114575743675232,0.9802975058555603,-178.24749226057014,0.48576653003692627,0.7510254383087158,90.28109243566725,97.02315086734502,0.8041186824057209,0.007462905789076339,0.0017834743858267947,0.021521481542126967,0.023234361925947026,-177.61609037128065,1.4865806263629024,27,1762115186.8858569
0.4864865839481354,0.44732666015625,-0.38031643629074097,0.9999862313270569,0.5265398025512695,0.5183455348014832,-0.13942140340805054,0.9999896883964539,0.43135809898376465,0.5143822431564331,-0.17129704356193542,0.999980628490448,0.5179296731948853,0.7488105893135071,0.013172956183552742,0.9990947246551514,0.454007089138031,0.7538038492202759,-0.013110647909343243,0.9979031682014465,0.5525341629981995,0.9565622210502625,-0.18389002978801727,0.9602636694908142,0.44792985916137695,0.9296486973762512,-0.1388460099697113,0.9271108508110046,0.5558552742004395,1.133447527885437,0.0017153816297650337,0.7572338581085205,0.4345242381095886,1.1160385608673096,0.052152227610349655,0.6237326860427856,0.5616298317909241,0.7431197166442871,-0.10144764184951782,0.9723712801933289,0.39795729517936707,0.7440707087516785,-0.17830073833465576,0.9810689091682434,-178.28867611923766,0.48596838116645813,0.7513072192668915,90.22247800075782,98.80127825951266,0.7904564893390601,0.002813455403429483,0.003927538880765652,-0.0648052916068063,0.029884548343014846,-177.61562597421903,1.3918452474926915,28,1762115186.9576018
0.486735999584198,0.4474327862262726,-0.3805190920829773,0.9999865293502808,0.5273146033287048,0.519193172454834,-0.1390385776758194,0.9999900460243225,0.43180617690086365,0.5143927335739136,-0.1699487864971161,0.9999808669090271,0.5182141065597534,0.7494221329689026,0.013169576413929462,0.9991115927696228,0.45420902967453003,0.7542539238929749,-0.01310640573501587,0.9979127645492554,0.5527485609054565,0.9564186334609985,-0.19000235199928284,0.9614632725715637,0.44844475388526917,0.9296191930770874,-0.13844023644924164,0.9287413358688354,0.5544387102127075,1.1314870119094849,-0.0074365949258208275,0.7598881125450134,0.4346160292625427,1.1159061193466187,0.055277418345212936,0.6236053109169006,0.5620405077934265,0.7437266111373901,-0.11042521893978119,0.9735679030418396,0.3984299302101135,0.7441107630729675,-0.176969975233078,0.9815675616264343,-178.37910767029302,0.4862115681171417,0.7518380284309387,89.38323629706396,98.39164624767584,0.7880131451998182,0.0033427607926931184,0.007296312803757001,0.00727564245375036,0.046305960733369955,-177.12262429064342,1.0956940391250316,29,1762115187.030352
0.4867534041404724,0.44751083850860596,-0.3804289698600769,0.9999868869781494,0.5280019044876099,0.5198285579681396,-0.1387084275484085,0.9999904632568359,0.4321563243865967,0.5145898461341858,-0.1656746119260788,0.9999812245368958,0.5183292627334595,0.750180721282959,0.013131186366081238,0.9991247057914734,0.45428556203842163,0.7547870874404907,-0.013064073398709297,0.9979178309440613,0.5526964068412781,0.9559507369995117,-0.20856881141662598,0.9626752734184265,0.4488085210323334,0.9294441342353821,-0.15133258700370789,0.9305760860443115,0.5546652674674988,1.1313351392745972,-0.02932767942547798,0.7641324400901794,0.4346190392971039,1.1162582635879517,0.03237161785364151,0.6266010999679565,0.5622894167900085,0.7439886331558228,-0.1161283403635025,0.9747524857521057,0.3987307548522949,0.7441241145133972,-0.17646220326423645,0.9819448590278625,-178.48359446515335,0.48630741238594055,0.7524839043617249,87.31132192360135,97.17775402277738,0.7767311765426249,0.0013685246147194694,0.009222221843967768,-0.028189383034446604,0.02749933783491297,-176.87144979264664,1.019142767052913,30,1762115187.1003869
0.4867948591709137,0.4478149712085724,-0.36599940061569214,0.999987006187439,0.5283800959587097,0.520616352558136,-0.12982140481472015,0.9999908208847046,0.4324181079864502,0.515521764755249,-0.1533348262310028,0.9999814033508301,0.5184330344200134,0.7513039708137512,0.012988703325390816,0.9991244077682495,0.4543207585811615,0.755496621131897,-0.012917676940560341,0.9979033470153809,0.5526412725448608,0.9556851983070374,-0.21407827734947205,0.9632901549339294,0.4493134021759033,0.9289419651031494,-0.16760483384132385,0.9316451549530029,0.5549417734146118,1.1311408281326294,-0.04923686012625694,0.7657487988471985,0.4351162910461426,1.1177728176116943,-0.0036009319592267275,0.6285480856895447,0.5624572038650513,0.7440968751907349,-0.11203034967184067,0.97575443983078,0.3990476727485657,0.7441291809082031,-0.16816404461860657,0.9822086691856384,-178.54490732302256,0.48637689650058746,0.7534002959728241,88.84527327384292,97.35368119396654,0.7571175048265122,0.0010189516707048883,0.01343844946279417,-0.005126321852799427,0.06182898347494747,-176.96104041891226,1.0047886933650352,31,1762115187.1685786
0.48694318532943726,0.4482286274433136,-0.3527103364467621,0.9999873042106628,0.5287514328956604,0.5217834711074829,-0.12147936969995499,0.9999911785125732,0.4327973425388336,0.5168754458427429,-0.14493215084075928,0.9999814629554749,0.5185161828994751,0.7518954873085022,0.012941984459757805,0.9991259574890137,0.4543090760707855,0.7558824419975281,-0.012869047001004219,0.9978947639465332,0.5526217818260193,0.9555732607841492,-0.21071310341358185,0.9640190601348877,0.4493873119354248,0.9292210936546326,-0.1634780615568161,0.9329996109008789,0.5550591349601746,1.1309881210327148,-0.04633564129471779,0.7673614025115967,0.4352337419986725,1.1181557178497314,0.0026805191300809383,0.630462646484375,0.5626479983329773,0.7444829940795898,-0.10476411879062653,0.9767975211143494,0.3992899954319,0.7440115213394165,-0.16824349761009216,0.98249351978302,-178.62301356053462,0.4864126294851303,0.7538889646530151,89.25418584827625,97.73901418281947,0.752988016521969,0.0004372809947978515,0.005980063779566614,-0.007118172049143492,-0.09127170184279203,-177.0718884971436,0.9623037127344712,32,1762115187.250295
0.48695889115333557,0.44861704111099243,-0.3338751792907715,0.9999874830245972,0.5289502739906311,0.5225066542625427,-0.10974521934986115,0.9999914169311523,0.4331647753715515,0.517160952091217,-0.13260479271411896,0.9999814033508301,0.5185805559158325,0.752457320690155,0.012900248169898987,0.9991169571876526,0.45430120825767517,0.7563546299934387,-0.01282510906457901,0.9978656768798828,0.5525985956192017,0.9554871320724487,-0.21260769665241241,0.9647597074508667,0.44952940940856934,0.9292468428611755,-0.160706028342247,0.9343145489692688,0.5553170442581177,1.1308358907699585,-0.055040597915649414,0.7684299349784851,0.43524909019470215,1.118828296661377,0.0007751297089271247,0.6322545409202576,0.5627881288528442,0.7449133396148682,-0.09682006388902664,0.9776853322982788,0.3994564712047577,0.7439597845077515,-0.1543778032064438,0.9826506972312927,-178.68531069981424,0.48644088208675385,0.7544059753417969,90.12803824856616,99.0873883371373,0.7425813200963183,0.00038419266046122575,0.007030563579832641,-0.0007219210704918854,0.014285208790895438,-176.80568793445474,0.9310649701188424,33,1762115187.3238325
0.48693567514419556,0.44893261790275574,-0.36805078387260437,0.999987781047821,0.5292149186134338,0.5233983993530273,-0.12408129870891571,0.9999914765357971,0.4333430230617523,0.5181236267089844,-0.14978554844856262,0.9999814629554749,0.5189412832260132,0.753169059753418,0.012828068807721138,0.9991078972816467,0.4545658528804779,0.7567600607872009,-0.012750501744449139,0.9978621602058411,0.5528796315193176,0.9576961994171143,-0.20502495765686035,0.9650691151618958,0.44950422644615173,0.9310237169265747,-0.1611880660057068,0.9353284239768982,0.5556672811508179,1.130763292312622,-0.02361461892724037,0.7684372067451477,0.43639621138572693,1.1187595129013062,0.0147272739559412,0.6326555013656616,0.5629454851150513,0.744946300983429,-0.10576353967189789,0.978384256362915,0.3995601534843445,0.7437419295310974,-0.1790887415409088,0.9829683899879456,-178.66093316465626,0.48675356805324554,0.7549645602703094,86.93704071696094,96.49222184193447,0.7674877303226592,0.00400730879346853,0.007158691261530752,0.0464329925082944,0.0016420538194163129,-176.85082045802423,1.0607253256723423,34,1762115187.4018614
0.48693519830703735,0.4501431882381439,-0.36936986446380615,0.9999876618385315,0.5294147729873657,0.5239436626434326,-0.12465463578701019,0.9999914169311523,0.43330925703048706,0.5205094814300537,-0.1546822041273117,0.999981701374054,0.5193087458610535,0.7535797953605652,0.012663425877690315,0.9990937113761902,0.4550292491912842,0.7574208378791809,-0.01259117852896452,0.9978642463684082,0.5528303980827332,0.9553216099739075,-0.2315656840801239,0.9651631712913513,0.4494953751564026,0.9309796690940857,-0.19195041060447693,0.9359841346740723,0.5556896328926086,1.1279855966567993,-0.06480370461940765,0.766136646270752,0.43716341257095337,1.1186882257461548,-0.031843654811382294,0.6342164278030396,0.5630840063095093,0.7447741031646729,-0.09812591969966888,0.9782857894897461,0.39968788623809814,0.7436471581459045,-0.18270698189735413,0.9833083748817444,-178.57400630294836,0.4871689975261688,0.755500316619873,85.65120126132247,93.65384533886335,0.7458890846621096,0.005050250710103762,0.006513028230247522,0.01267873008147592,-0.007849130585946832,-177.95349513741786,1.2257835063532043,35,1762115187.4841206
0.4869363307952881,0.4511341452598572,-0.3760804533958435,0.9999876618385315,0.5295530557632446,0.524642288684845,-0.1272888034582138,0.9999914765357971,0.43328627943992615,0.5237924456596375,-0.1577490270137787,0.999981701374054,0.5197175741195679,0.7548468708992004,0.012154986150562763,0.999079704284668,0.4553634226322174,0.7588063478469849,-0.012077788822352886,0.9978695511817932,0.5528069138526917,0.9565542340278625,-0.22878539562225342,0.964974045753479,0.4495174288749695,0.9309481382369995,-0.20285603404045105,0.9361003041267395,0.5557715892791748,1.1253387928009033,-0.05454949662089348,0.7624779343605042,0.4385291039943695,1.1177457571029663,-0.02972370758652687,0.631883442401886,0.5632883906364441,0.744695782661438,-0.10882657766342163,0.9786925315856934,0.3996785879135132,0.7436394691467285,-0.2050468623638153,0.9835948944091797,-178.49267871769797,0.48754049837589264,0.7568266093730927,84.13170034952782,89.29173667979113,0.7490459814274836,0.004781124196082282,0.017069060214050764,-0.00346359177630944,0.1358535248839961,-179.49420604296583,1.5253172492271068,36,1762115187.5618222
0.48677366971969604,0.45338520407676697,-0.3753177523612976,0.9999879002571106,0.5301212668418884,0.5263243317604065,-0.13293835520744324,0.9999916553497314,0.4330998957157135,0.5267527103424072,-0.15980075299739838,0.9999819397926331,0.5202142000198364,0.7559928297996521,0.011209945194423199,0.999065637588501,0.45565301179885864,0.7600798010826111,-0.011146610602736473,0.9978680610656738,0.5523411631584167,0.9558873772621155,-0.23094114661216736,0.9649854302406311,0.44952693581581116,0.9310070276260376,-0.19632494449615479,0.9370794892311096,0.5558421015739441,1.124450922012329,-0.06680252403020859,0.7606378197669983,0.4384034276008606,1.1176987886428833,-0.03899092599749565,0.6327865123748779,0.5642393231391907,0.7452802062034607,-0.10848194360733032,0.9792357087135315,0.39968231320381165,0.7436610460281372,-0.19783125817775726,0.9840558767318726,-178.43543833682864,0.48793360590934753,0.7580363154411316,85.41358215667623,92.64580410473644,0.7415334739766172,0.005372982458427157,0.016534227737388024,0.008089501703276483,-0.0073100749050787955,179.74702351653656,1.658591841083255,37,1762115187.634986
0.4865877628326416,0.45492786169052124,-0.36587679386138916,0.9999881386756897,0.5303555727005005,0.5274357199668884,-0.13050010800361633,0.999991774559021,0.43299198150634766,0.5276334881782532,-0.15380588173866272,0.9999822378158569,0.5205365419387817,0.7567158341407776,0.010543935932219028,0.9990302920341492,0.45572441816329956,0.7608554363250732,-0.010473990812897682,0.9978436827659607,0.5516082048416138,0.9546054601669312,-0.23612508177757263,0.9644742608070374,0.44964736700057983,0.9301412105560303,-0.20402757823467255,0.9376651644706726,0.5562519431114197,1.1222362518310547,-0.0724964290857315,0.7552904486656189,0.43838247656822205,1.1175423860549927,-0.05079362913966179,0.631205677986145,0.5646783113479614,0.7453075051307678,-0.10833138227462769,0.9797687530517578,0.3996789753437042,0.7434708476066589,-0.19316011667251587,0.9844737648963928,-178.4006741942199,0.48813048005104065,0.7587856352329254,84.56992785599854,91.96178994044868,0.7313315440664072,0.0024019162972529584,0.009141898495584487,-0.03624778841634258,-0.09018836058330582,179.8836190396209,1.9497371611431706,38,1762115187.7169514
0.48613104224205017,0.45597124099731445,-0.3349217474460602,0.9999881386756897,0.5305710434913635,0.5280733108520508,-0.11201510578393936,0.9999918341636658,0.43238893151283264,0.5299926400184631,-0.13766330480575562,0.9999827742576599,0.520987868309021,0.7576864361763,0.009874772280454636,0.998969316482544,0.45585036277770996,0.7618857622146606,-0.009785996749997139,0.9978014230728149,0.5511044263839722,0.9529531002044678,-0.2323063611984253,0.9644219279289246,0.4496791362762451,0.927509069442749,-0.22417636215686798,0.9395051002502441,0.5562642812728882,1.1223688125610352,-0.07097848504781723,0.7501727938652039,0.4386664927005768,1.117419958114624,-0.08731233328580856,0.6329929232597351,0.5662437677383423,0.7451662421226501,-0.09405488520860672,0.9805542230606079,0.3996215760707855,0.7432209253311157,-0.19716055691242218,0.9852160811424255,-178.27754024083754,0.4884191155433655,0.7597860991954803,85.42482664485571,91.96658428534363,0.7115784877196104,0.004123803522158259,0.014293865176959498,0.024601009895320373,0.07360736607813446,178.88008667322154,2.370411098514493,39,1762115187.786944
0.48579177260398865,0.46092453598976135,-0.3848746418952942,0.9999877214431763,0.5308114886283875,0.5305065512657166,-0.1475561559200287,0.9999920129776001,0.4313684403896332,0.5346943736076355,-0.15582387149333954,0.9999827742576599,0.5213091373443604,0.7586142420768738,0.008000439964234829,0.9989257454872131,0.4560951292514801,0.7628867030143738,-0.007908924482762814,0.9977722764015198,0.5511031746864319,0.9542453289031982,-0.23252534866333008,0.9626379609107971,0.44967007637023926,0.9262785315513611,-0.22889761626720428,0.9393004179000854,0.5559492111206055,1.122287631034851,-0.052968092262744904,0.7407246828079224,0.438973605632782,1.1163065433502197,-0.0679326131939888,0.6310140490531921,0.5674039125442505,0.7451360821723938,-0.13398459553718567,0.9815842509269714,0.3995184302330017,0.7432244420051575,-0.19671675562858582,0.9856471419334412,-178.08904933889386,0.4887021332979202,0.7607504725456238,82.3721912145374,86.27360465259218,0.7340583873083822,0.0034794483005240883,0.011856101464398354,-0.007921766902489972,-0.029970108483456808,177.58854083338784,2.6013683860197685,40,1762115187.8682837
0.48331886529922485,0.46944546699523926,-0.4402625560760498,0.9999867677688599,0.5312427282333374,0.5352165102958679,-0.194229856133461,0.9999916553497314,0.4302024245262146,0.5380449891090393,-0.1933968961238861,0.999983012676239,0.5216859579086304,0.7586753964424133,0.00671821553260088,0.9988337755203247,0.4562907814979553,0.7635067701339722,-0.00664852699264884,0.9977105259895325,0.5506981611251831,0.9527391195297241,-0.2535593807697296,0.9594591856002808,0.4496777057647705,0.9248913526535034,-0.23818853497505188,0.9374414086341858,0.5559440851211548,1.1218059062957764,-0.05657221004366875,0.7272346019744873,0.4408794939517975,1.1162939071655273,-0.06549574434757233,0.6250433325767517,0.5680673718452454,0.7455301880836487,-0.1448180377483368,0.9819002151489258,0.3995293080806732,0.7432689070701599,-0.1709187626838684,0.9857742190361023,-177.891025294449,0.48898836970329285,0.7610910832881927,77.50595722448875,82.87078367214299,0.7523483498524209,0.003752402756723812,0.00446522058478801,0.003578283665806077,-0.0968904069039153,178.3965053530008,4.65116712494627,41,1762115187.9445646
0.480616956949234,0.481747567653656,-0.4708198606967926,0.9999862313270569,0.531951904296875,0.5411832332611084,-0.22278209030628204,0.9999913573265076,0.42872175574302673,0.5457156300544739,-0.20953872799873352,0.9999831318855286,0.521736204624176,0.7605374455451965,0.004118883516639471,0.9986824989318848,0.45629897713661194,0.7651021480560303,-0.004064411390572786,0.9975192546844482,0.5493332147598267,0.9462563395500183,-0.28299909830093384,0.9583105444908142,0.4496738016605377,0.9249762892723083,-0.23884490132331848,0.9368734359741211,0.5559159517288208,1.1227918863296509,-0.09268030524253845,0.7240943312644958,0.4413626790046692,1.1162779331207275,-0.06191728264093399,0.6234344244003296,0.5681643486022949,0.7458425164222717,-0.1417188197374344,0.9819721579551697,0.3997308909893036,0.7433627843856812,-0.12884846329689026,0.9855805039405823,-177.73391636048385,0.489017590880394,0.7628197968006134,75.91715034440386,81.53826930952046,0.7496374651053919,0.00037986914370017726,0.02247291132021671,-0.04384222617882087,0.2340961842847582,177.4860005908806,10.033324855019169,42,1762115188.021489
0.47969889640808105,0.4845965802669525,-0.47197604179382324,0.9999854564666748,0.532221257686615,0.5431163311004639,-0.22027647495269775,0.999991238117218,0.4277806878089905,0.5476391315460205,-0.20751886069774628,0.9999833703041077,0.5219391584396362,0.7612501382827759,0.0032790061086416245,0.99852055311203,0.45637235045433044,0.76615971326828,-0.003205250483006239,0.9973624348640442,0.5487291812896729,0.9428972601890564,-0.2917528748512268,0.9575150609016418,0.44968438148498535,0.921508252620697,-0.2638055682182312,0.9372202754020691,0.5558663010597229,1.12361741065979,-0.0972626730799675,0.7212302684783936,0.4412359595298767,1.1174901723861694,-0.09322211146354675,0.6247900724411011,0.5682188272476196,0.746671736240387,-0.14106503129005432,0.9822555184364319,0.3997746407985687,0.7433341145515442,-0.15017788112163544,0.9855457544326782,-177.59890992660803,0.48915575444698334,0.763704925775528,74.6944666040432,79.81329231125117,0.7394086988623259,0.001986800377132082,0.012728207765492414,0.023107767549870133,-0.14012942178244392,177.520354680529,13.941622580597711,43,1762115188.0910296
0.4793528914451599,0.4998805522918701,-0.516615092754364,0.9999841451644897,0.5327860116958618,0.5489815473556519,-0.2604675889015198,0.9999905228614807,0.426912784576416,0.553906261920929,-0.23987603187561035,0.999982476234436,0.5219398736953735,0.7612844705581665,0.0022122228983789682,0.99819415807724,0.4563220143318176,0.7661690711975098,-0.0021885631140321493,0.9968705773353577,0.5483375787734985,0.9424335956573486,-0.27165594696998596,0.954989492893219,0.4497188925743103,0.9217531085014343,-0.2543279826641083,0.9350060224533081,0.5558295249938965,1.1243983507156372,-0.08471804857254028,0.7167223691940308,0.44119754433631897,1.1174731254577637,-0.0384957529604435,0.6202765703201294,0.5685356855392456,0.7468063235282898,-0.05534328147768974,0.9818574786186218,0.3998459279537201,0.743365466594696,-0.013385039754211903,0.9826008677482605,-177.4964775337965,0.4891309440135956,0.7637267708778381,77.89039205833043,73.92934313946536,0.7701357859672057,-0.00030230953591400974,0.00026617764543539836,-0.027892288081135523,-0.15184702674319303,177.33679488508346,17.997920731459704,44,1762115188.1730993
0.4796205461025238,0.5146105289459229,-0.4725450575351715,0.9999805092811584,0.5343867540359497,0.5574407577514648,-0.2603108882904053,0.999988853931427,0.426443874835968,0.5653599500656128,-0.2364460676908493,0.999980092048645,0.522328794002533,0.761604905128479,0.0003872131637763232,0.997829020023346,0.45623356103897095,0.7663648128509521,-0.0005141061265021563,0.996391773223877,0.5485180616378784,0.9522098302841187,-0.1876307725906372,0.9501277804374695,0.4494570195674896,0.9256718158721924,-0.16386596858501434,0.9303808212280273,0.555610716342926,1.1243985891342163,-0.0016205928986892104,0.7065075635910034,0.4416685700416565,1.1160004138946533,0.0349632129073143,0.6130669116973877,0.5691586136817932,0.7473722100257874,-0.015285526402294636,0.9814335107803345,0.4000992774963379,0.7444287538528442,0.021735873073339462,0.979170024394989,-177.49411928271348,0.48928117752075195,0.7639848589897156,88.34721974333597,88.08025779399112,0.7787376862713294,0.002253674011709627,0.0038716161359661516,0.038342669386271094,0.054085690873669434,175.80403209854205,25.41108882067253,45,1762115188.2397609
0.47980958223342896,0.5385843515396118,-0.3972955048084259,0.9999750852584839,0.5363109707832336,0.5666479468345642,-0.2514839172363281,0.9999856948852539,0.42550596594810486,0.5794642567634583,-0.23086079955101013,0.9999783635139465,0.5232956409454346,0.7628229856491089,-0.00018136353173758835,0.9975876808166504,0.4562760293483734,0.7672634720802307,-9.97084571281448e-05,0.996202826499939,0.5491046905517578,0.9626723527908325,-0.1126159206032753,0.9447177052497864,0.44893473386764526,0.9328159689903259,-0.10487143695354462,0.9275065660476685,0.5511016249656677,1.1158370971679688,0.06223922222852707,0.6977756023406982,0.44211140275001526,1.1155229806900024,0.07653023302555084,0.6121833920478821,0.5696080923080444,0.7485518455505371,0.021910209208726883,0.9806315898895264,0.4005136489868164,0.746583104133606,0.01987018994987011,0.9771364331245422,-177.35256409905938,0.489785835146904,0.7650432288646698,101.83497824425206,102.921547281808,0.7423691862284079,0.0063794462293323044,0.013378998667864182,0.052154452153007756,0.12018412583279597,173.40217704183988,3.6771488864595874,46,1762115188.3188677
0.4799494743347168,0.5617223381996155,-0.40893006324768066,0.9999489784240723,0.5407869815826416,0.5787937045097351,-0.28856539726257324,0.9999746680259705,0.4254489839076996,0.5877501368522644,-0.275962769985199,0.999973714351654,0.5233961343765259,0.7637780904769897,-0.0008773606969043612,0.9973586797714233,0.4562748074531555,0.7672675251960754,0.0005005571874789894,0.9959076046943665,0.5492068529129028,0.967553973197937,-0.07494086772203445,0.9427287578582764,0.4489994943141937,0.9417849779129028,-0.06515324115753174,0.9252145290374756,0.553074061870575,1.1174798011779785,0.09465749561786652,0.6991676688194275,0.44372057914733887,1.1145910024642944,0.11296377331018448,0.606107234954834,0.5699049234390259,0.7508530616760254,0.03585558012127876,0.9724880456924438,0.4006057381629944,0.7481789588928223,0.015077712014317513,0.9723391532897949,-177.88912100872852,0.4898354709148407,0.7655228078365326,111.46524502570026,113.54321921002607,0.755318686793748,0.0007094793771746576,0.006854963757126743,-0.08104487384982885,-0.09325267680028655,175.55967662973035,9.503372236800843,47,1762115188.3888285
0.4800519347190857,0.5648788213729858,-0.40454840660095215,0.999921977519989,0.5431544780731201,0.5817290544509888,-0.2801145911216736,0.9999618530273438,0.42493516206741333,0.5900278091430664,-0.2724974751472473,0.9999679923057556,0.5233759880065918,0.7652627825737,-0.0006017396808601916,0.9972271919250488,0.45613399147987366,0.7673500776290894,0.0002347380795981735,0.9957166910171509,0.5492194294929504,0.9712042808532715,-0.07535212486982346,0.9378944635391235,0.44918256998062134,0.9426023960113525,-0.07031449675559998,0.9212090373039246,0.5531455874443054,1.1209766864776611,0.08451895415782928,0.6966812014579773,0.444013774394989,1.1111780405044556,0.1185615062713623,0.5939390063285828,0.570313572883606,0.7534029483795166,0.031024759635329247,0.9647058844566345,0.40083956718444824,0.7490822076797485,0.007936726324260235,0.9683006405830383,-178.18731315771373,0.4897549897432327,0.7663064301013947,113.14017831013152,109.84892418715005,0.7485244274746019,-0.0010797957244807544,0.010513663684316592,-0.02400625594888858,0.04908786067108345,175.98454030856018,9.175633960773519,48,1762115188.4633622
0.47823840379714966,0.585287868976593,-0.376008540391922,0.9999119639396667,0.5458129644393921,0.5913717746734619,-0.26788660883903503,0.9999481439590454,0.4234449863433838,0.59934002161026,-0.256968230009079,0.9999641180038452,0.5236988067626953,0.7722080945968628,-0.0007884881342761219,0.9972403645515442,0.4556857645511627,0.7725343704223633,0.00039744554669596255,0.9957598447799683,0.5492370128631592,0.9746682047843933,-0.07438596338033676,0.9344992637634277,0.4491539001464844,0.9532870650291443,-0.06556834280490875,0.9201813340187073,0.5528612732887268,1.1218054294586182,0.08687242120504379,0.694355845451355,0.445316880941391,1.1111639738082886,0.1095392256975174,0.5848813652992249,0.5708082914352417,0.7551518678665161,0.004976409487426281,0.9546154737472534,0.40088748931884766,0.7539234757423401,0.003516200464218855,0.965964138507843,-178.3615700357743,0.489692285656929,0.772371232509613,112.35445649469558,112.00545046306758,0.7123791746518872,-0.0008593114399511205,0.08311346831820009,0.003021568117715151,0.994924674572929,176.27432540287242,47.153464707912576,49,1762115188.5363324
0.4768451154232025,0.5930817723274231,-0.3833029866218567,0.9998911023139954,0.5463767647743225,0.5984250903129578,-0.2765098214149475,0.999923825263977,0.42336171865463257,0.6055140495300293,-0.2570447325706482,0.9999606609344482,0.5246907472610474,0.7758660316467285,-0.001975818770006299,0.9972168207168579,0.45567336678504944,0.7771644592285156,0.0015831139171496034,0.9957135319709778,0.5486863851547241,0.976358950138092,-0.03967889025807381,0.9298788905143738,0.44911304116249084,0.9672232866287231,-0.017000898718833923,0.9183796048164368,0.5522605776786804,1.1277356147766113,0.09388182312250137,0.6876459121704102,0.445189893245697,1.1109066009521484,0.13818438351154327,0.5687717199325562,0.5708750486373901,0.7558306455612183,0.013160228729248047,0.9421570897102356,0.40090322494506836,0.7556098699569702,0.013067102059721947,0.9641711115837097,-178.25657129887733,0.4901820570230484,0.7765152454376221,127.76429921669047,127.2230169928335,0.7257706997631872,0.006619928910487153,0.056011994341197434,0.10109214798865872,-0.36631343420236384,176.70187717237783,30.276299592469528,50,1762115188.6103168
0.47564297914505005,0.5963919162750244,-0.38730016350746155,0.9998373985290527,0.546366810798645,0.6027528047561646,-0.2766769826412201,0.9998683929443359,0.4234344959259033,0.6079648733139038,-0.25555914640426636,0.9999547004699707,0.5247241258621216,0.7837426066398621,-0.0027870461344718933,0.99667888879776,0.45551109313964844,0.7831013798713684,0.0024205956142395735,0.9950646162033081,0.5441669225692749,0.9743276238441467,-0.028288880363106728,0.9214144349098206,0.4491153657436371,0.9690694808959961,0.0015092523535713553,0.9128810167312622,0.5511633157730103,1.1176632642745972,0.13227835297584534,0.6689301133155823,0.4459168016910553,1.107458472251892,0.14847519993782043,0.5542373657226562,0.5708314776420593,0.7557461857795715,0.026886096224188805,0.9203178882598877,0.4008684754371643,0.7552669048309326,0.006271530874073505,0.9597814679145813,-178.32180842427184,0.490117609500885,0.7834219932556152,124.14123071729968,133.00056163428627,0.7385104035965314,-0.0008514610875392558,0.09124985431648444,-0.0987097352947285,0.46555190284968356,177.57223487441115,2.7458898445615953,51,1762115188.6860073
0.4757826328277588,0.5915700793266296,-0.3996649384498596,0.9997249841690063,0.546983540058136,0.6012908220291138,-0.2890487015247345,0.9998273849487305,0.4233477711677551,0.6085836887359619,-0.27126073837280273,0.9999402761459351,0.525179922580719,0.7846161723136902,-0.002970087807625532,0.9960281252861023,0.45522648096084595,0.783390998840332,0.0026400359347462654,0.9939494132995605,0.5393344759941101,0.9731099605560303,-0.021817296743392944,0.9104324579238892,0.44889602065086365,0.9649059772491455,0.013033916242420673,0.9030682444572449,0.5468570590019226,1.1115374565124512,0.148765429854393,0.644758403301239,0.44589346647262573,1.1009260416030884,0.16548050940036774,0.5349645614624023,0.5708413124084473,0.7546780109405518,0.025820497423410416,0.9088231325149536,0.400764524936676,0.7550659775733948,0.011474480852484703,0.9529349207878113,-178.38856346328848,0.49020320177078247,0.7840035855770111,123.39647838921535,135.01713069542163,0.758494209126256,0.0010455955380156985,0.007104734305144971,0.02317445191510477,-1.0279171487688512,176.62422235523644,2.22800267211513,52,1762115188.767867
0.4760720729827881,0.5890321731567383,-0.4004814624786377,0.9996603727340698,0.5467943549156189,0.6002583503723145,-0.2865750193595886,0.9998054504394531,0.4230313301086426,0.6082788109779358,-0.2689942717552185,0.9999322295188904,0.5253363847732544,0.7862505316734314,-0.0032932248432189226,0.9956170320510864,0.45493340492248535,0.7848938703536987,0.002981011290103197,0.9932217597961426,0.5378891825675964,0.9723822474479675,-0.023891258984804153,0.9027475118637085,0.44880834221839905,0.9630403518676758,0.015123916789889336,0.895680844783783,0.5442591309547424,1.112148404121399,0.14442861080169678,0.6281806826591492,0.44578424096107483,1.0967493057250977,0.16640086472034454,0.5226051807403564,0.5710091590881348,0.754595935344696,0.01774175837635994,0.9010454416275024,0.40069517493247986,0.7554060816764832,0.01594546064734459,0.9492024183273315,-178.35017712007252,0.4901348948478699,0.7855722010135651,123.42216258401791,135.3714897241435,0.758309982207802,-0.000871172844949478,0.02000580781896633,-0.024446080925554625,0.16453771355385302,176.29213286023315,3.1196480204979564,53,1762115188.846275
0.47639399766921997,0.5848128199577332,-0.41909781098365784,0.9995503425598145,0.5499086380004883,0.6034446954727173,-0.30161625146865845,0.9997360706329346,0.42099064588546753,0.6065230965614319,-0.2849298119544983,0.9999198913574219,0.5254007577896118,0.7847684025764465,-0.003255116520449519,0.9952195882797241,0.45351848006248474,0.783717691898346,0.0029675732366740704,0.9925835728645325,0.5343998670578003,0.9727143049240112,-0.011150374077260494,0.8903001546859741,0.44105011224746704,0.9660317301750183,0.020164933055639267,0.883721649646759,0.5433083176612854,1.0928486585617065,0.14928582310676575,0.5990869998931885,0.44369420409202576,1.0725761651992798,0.19787633419036865,0.48974570631980896,0.5711629390716553,0.7553008198738098,0.032010503113269806,0.8867954611778259,0.39975133538246155,0.7552327513694763,0.042882177978754044,0.9437379837036133,-178.71852319066966,0.4894596189260483,0.7842430472373962,124.48315863441721,126.16954243862135,0.7742512049115498,-0.009284017975966487,-0.01827384503431954,-0.11566383888631991,-0.5262870683216149,178.63210809399794,0.6940953310962582,54,1762115188.9190104
0.4793884754180908,0.5713525414466858,-0.4263853430747986,0.9995111227035522,0.5528124570846558,0.6027851700782776,-0.2967006266117096,0.9996641874313354,0.41671237349510193,0.6039718389511108,-0.2898959815502167,0.999904215335846,0.525834321975708,0.7837958335876465,-0.003164749126881361,0.9947699904441833,0.4526790678501129,0.7830369472503662,0.0028917083982378244,0.9918808937072754,0.5349858403205872,0.9692572951316833,-0.008907593786716461,0.8766505718231201,0.44135141372680664,0.9697964787483215,0.0004837543237954378,0.8687540888786316,0.5436164736747742,1.0609925985336304,0.16518057882785797,0.5603618621826172,0.4419930875301361,1.0299831628799438,0.21265444159507751,0.4497009217739105,0.5712648630142212,0.7570828795433044,0.061939068138599396,0.879263699054718,0.39811787009239197,0.7545477151870728,0.06584161520004272,0.9398871660232544,-178.570024384821,0.48925669491291046,0.7834163904190063,116.08936603393542,105.05917302312935,0.776905347157755,-0.0027022414833158715,-0.011008191256310125,0.08764635193901149,0.09675321682611045,179.50044560277973,0.9691892982839522,55,1762115188.994105
0.48415565490722656,0.5401973724365234,-0.422116756439209,0.9994216561317444,0.5530942678451538,0.6005587577819824,-0.29047828912734985,0.9995673894882202,0.41598790884017944,0.5941019654273987,-0.2840186059474945,0.9998675584793091,0.5258174538612366,0.7800365686416626,-0.0030827573500573635,0.994170069694519,0.4522384703159332,0.7768527269363403,0.002809825586155057,0.9907960891723633,0.5321175456047058,0.958166241645813,-0.003749169409275055,0.8566847443580627,0.442044734954834,0.9681564569473267,0.007288624532520771,0.8457778692245483,0.5404710173606873,1.062009572982788,0.14718452095985413,0.5240874290466309,0.4413250982761383,1.0423681735992432,0.2022470235824585,0.4127587676048279,0.5709506869316101,0.7611395120620728,0.051897577941417694,0.8646042346954346,0.3966822028160095,0.7519051432609558,0.05611642450094223,0.9316493272781372,-178.58086095428794,0.4890279620885849,0.7784446477890015,124.35936414333119,112.15825498593587,0.7863776600788334,-0.002777834078432281,-0.06037907391535985,-0.0009180304025478235,-0.5995821576416543,-177.303744113941,1.1752149438809456,56,1762115189.0764472
0.4864487051963806,0.5054269433021545,-0.4168511927127838,0.9994609951972961,0.5531732439994812,0.5925113558769226,-0.28238192200660706,0.9995028376579285,0.4154220223426819,0.5777959227561951,-0.2802550196647644,0.9998571276664734,0.5243748426437378,0.7696712017059326,-0.000636278884485364,0.9944361448287964,0.45158153772354126,0.7668899297714233,0.0003793214273173362,0.9913471937179565,0.5336490869522095,0.9466942548751831,0.012103784829378128,0.846350908279419,0.44420352578163147,0.9671484231948853,-0.0017989675980061293,0.8362997770309448,0.5385880470275879,1.0194388628005981,0.20194382965564728,0.49219974875450134,0.44467511773109436,1.0275161266326904,0.1963389664888382,0.3851054310798645,0.5708844065666199,0.7667557001113892,0.04179897531867027,0.8585984110832214,0.39577123522758484,0.7505341172218323,0.016100291162729263,0.9287201762199402,-178.8486018994864,0.4879781901836395,0.768280565738678,115.11766683210512,106.30464716526643,0.8048913640602685,-0.012421362578461104,-0.12026588616968757,-0.11410646776721882,-0.7086070842388766,-173.90243688687602,1.3600079946264882,57,1762115189.1609607
0.4871498644351959,0.5032818913459778,-0.42554908990859985,0.9994866251945496,0.5533764362335205,0.5893304347991943,-0.282745897769928,0.999446451663971,0.41514310240745544,0.5728155970573425,-0.2872679829597473,0.9998533725738525,0.523461639881134,0.7652170658111572,0.0013966108672320843,0.9945637583732605,0.45130306482315063,0.763888955116272,-0.0016424728091806173,0.9917820692062378,0.5337849855422974,0.9365618228912354,0.02362118288874626,0.8348912000656128,0.44355472922325134,0.9635086059570312,0.009307939559221268,0.8231789469718933,0.5395997762680054,1.0157394409179688,0.23056046664714813,0.46665799617767334,0.4448648989200592,1.0340676307678223,0.21720197796821594,0.3636249899864197,0.5706459283828735,0.7689306735992432,0.03303781524300575,0.8544009327888489,0.39529484510421753,0.7498553991317749,-0.008594623766839504,0.9272593259811401,-179.02499692448535,0.48738235235214233,0.7645530104637146,118.36333022473492,111.85458431842419,0.8329914177027374,-0.0069920067370588595,-0.043741921404710345,0.06371212201411425,0.8979894342034519,-173.18712273400178,0.87627343117813,58,1762115189.2461777
0.4873320162296295,0.475810706615448,-0.436687707901001,0.9995203614234924,0.5534015893936157,0.5703256130218506,-0.28673675656318665,0.9994533658027649,0.41310039162635803,0.5581871867179871,-0.2895703911781311,0.9998612403869629,0.5234403014183044,0.7547733783721924,0.004708779044449329,0.9946736097335815,0.4513222277164459,0.7574154138565063,-0.0049361856654286385,0.9923554062843323,0.5395487546920776,0.9194870591163635,0.031241770833730698,0.8351502418518066,0.4438362717628479,0.9529002904891968,0.02683204412460327,0.8250747323036194,0.5421672463417053,1.0010969638824463,0.27892768383026123,0.46176281571388245,0.44560322165489197,1.0392893552780151,0.2193494290113449,0.38553616404533386,0.5706629753112793,0.7706692218780518,-0.046810418367385864,0.8595085740089417,0.39484265446662903,0.7498586773872375,-0.042851418256759644,0.9296000003814697,-178.7666118221938,0.4873812645673752,0.7560943961143494,117.31014613323984,123.34695379815724,0.8756442568718638,-1.4951663116500081e-05,-0.11626413239390464,0.09590001640130012,-0.9968218896962856,-175.05525900612167,1.8827710947982415,59,1762115189.318931
0.4893287122249603,0.44256672263145447,-0.47441548109054565,0.9995554685592651,0.5532963275909424,0.5505344271659851,-0.31051307916641235,0.999470055103302,0.4121481776237488,0.5374540090560913,-0.32613325119018555,0.9998668432235718,0.5233234167098999,0.750822901725769,0.0054503511637449265,0.9950078725814819,0.45119374990463257,0.7538552284240723,-0.005637667141854763,0.9929412603378296,0.5335495471954346,0.9267740249633789,0.020071078091859818,0.8377933502197266,0.44403886795043945,0.9564918279647827,0.028539389371871948,0.8205084800720215,0.5363954305648804,1.013646125793457,0.28223368525505066,0.4617360234260559,0.4454963803291321,1.073696494102478,0.24504908919334412,0.39714470505714417,0.570976972579956,0.7721025347709656,-0.058175235986709595,0.8663861751556396,0.3923802673816681,0.749868631362915,-0.10639871656894684,0.9321346879005432,-178.75268552758988,0.48725858330726624,0.7523390650749207,113.07806473474693,127.95808173111166,0.9518704119119571,-0.0016342528925462347,-0.050025249236964886,-0.021570920577023048,0.8823767077557558,-174.70543324683152,2.1072769916131766,60,1762115189.3939998
0.4900039732456207,0.40508443117141724,-0.45064911246299744,0.9995958209037781,0.5535941123962402,0.5297549962997437,-0.27859291434288025,0.9994944334030151,0.41232532262802124,0.5153351426124573,-0.3253374397754669,0.9998716711997986,0.5232732892036438,0.7504768371582031,0.005911932326853275,0.9954044222831726,0.4511379301548004,0.7530485987663269,-0.006104903761297464,0.9935465455055237,0.5316040515899658,0.940594494342804,0.004304488189518452,0.8432782888412476,0.44713693857192993,0.9699807167053223,0.012874746695160866,0.8259610533714294,0.534032940864563,1.055871605873108,0.29446861147880554,0.4625324308872223,0.4461832046508789,1.091612696647644,0.2700217366218567,0.4108858108520508,0.5722522735595703,0.7773071527481079,-0.071014404296875,0.8749090433120728,0.3900192975997925,0.7504680156707764,-0.18693794310092926,0.9337003231048584,-178.93880822341242,0.4872056096792221,0.751762717962265,111.18122728952555,120.31226373040305,0.9920872908545667,-0.0007812664824152409,-0.008500091422463203,0.012580027398461528,0.6124219762793718,-174.17178301233375,5.7487415347322015,61,1762115189.4618046
0.49100571870803833,0.3703719675540924,-0.44420114159584045,0.9996266961097717,0.554371178150177,0.5064430832862854,-0.2489619255065918,0.9995101094245911,0.4126889705657959,0.4902798533439636,-0.2661535441875458,0.9998661279678345,0.5233079195022583,0.7481946349143982,0.007180262356996536,0.9957112073898315,0.450960636138916,0.7503665685653687,-0.007293720729649067,0.9940276145935059,0.5294532179832458,0.970312774181366,-0.0039301058277487755,0.8428956866264343,0.44941383600234985,0.9784338474273682,0.008963396772742271,0.8288514614105225,0.5351455211639404,1.099977970123291,0.31225788593292236,0.43935778737068176,0.44480547308921814,1.1140846014022827,0.29844993352890015,0.4002171456813812,0.5724068880081177,0.7866044044494629,-0.12700621783733368,0.8830146193504333,0.388793408870697,0.7507959008216858,-0.23452918231487274,0.9333066344261169,-179.17705978235412,0.48713427782058716,0.7492806017398834,109.45160666028677,119.18653296504593,1.0509523240516931,-0.0008662434674348915,-0.030142449730011435,-0.0010319478500104545,-0.26282157597690337,-173.4917837348393,6.6379405391964745,62,1762115189.5441508
0.49124693870544434,0.37039247155189514,-0.4001779556274414,0.9996553063392639,0.5551313757896423,0.5038118362426758,-0.21709291636943817,0.9995278120040894,0.4130013585090637,0.487599641084671,-0.2311890870332718,0.99986332654953,0.5233873724937439,0.7502933144569397,0.008037746883928776,0.9959797263145447,0.45062336325645447,0.751606822013855,-0.008133761584758759,0.994445264339447,0.5279064774513245,0.9789067506790161,-0.017431829124689102,0.843410849571228,0.4506738781929016,0.9797601699829102,0.005499145016074181,0.8303519487380981,0.5336029529571533,1.115398645401001,0.280209481716156,0.42301145195961,0.44452744722366333,1.1237750053405762,0.2972652018070221,0.3891753852367401,0.5729842185974121,0.7864466905593872,-0.08874019235372543,0.8905333280563354,0.3869656026363373,0.750150740146637,-0.23862576484680176,0.9322464466094971,-179.34029916954535,0.4870053678750992,0.7509500682353973,108.29197541530688,119.68380742717225,1.0177923298758493,-0.0017750097665547207,0.0229875152243353,-0.012513146680400563,0.7315665702416404,-173.49262789552066,13.005709472235017,63,1762115189.6167758
0.49095773696899414,0.3415033519268036,-0.4778006970882416,0.9996650218963623,0.5561223030090332,0.48999497294425964,-0.2400495558977127,0.9994599223136902,0.41322994232177734,0.46765801310539246,-0.239897683262825,0.9998478293418884,0.5234023928642273,0.7494392991065979,0.010644998401403427,0.995844841003418,0.4495168626308441,0.748674750328064,-0.010653505101799965,0.9945020079612732,0.5267717838287354,0.9881728887557983,-0.020994916558265686,0.8259565234184265,0.45074114203453064,0.9814468622207642,-0.009115176275372505,0.8190492391586304,0.5330268144607544,1.1436198949813843,0.3007068932056427,0.3919534981250763,0.4432334005832672,1.1426810026168823,0.31953179836273193,0.3606598973274231,0.5720980763435364,0.7991166710853577,-0.12833938002586365,0.8874452710151672,0.3870074152946472,0.7526201605796814,-0.23987336456775665,0.9245514273643494,-179.62185682863995,0.4864596277475357,0.7490570247173309,108.25020118672361,116.49756322697777,1.124039170746382,-0.007184963368928565,-0.024922939776886328,-0.07122495945863552,-0.6307670020699345,-171.1154155877772,2.8428942426821493,64,1762115189.6927316
0.4909597933292389,0.316946417093277,-0.4168223440647125,0.999694287776947,0.5570554733276367,0.467192679643631,-0.18187148869037628,0.9994936585426331,0.41339176893234253,0.44682741165161133,-0.2081788033246994,0.9998502731323242,0.5234938859939575,0.7485470175743103,0.011003304272890091,0.9960185289382935,0.4483815133571625,0.7454500794410706,-0.010980181396007538,0.9947525262832642,0.5255021452903748,0.9830454587936401,-0.02093849517405033,0.8242143392562866,0.4506100118160248,0.9826211929321289,-0.006223420612514019,0.8178954720497131,0.5322436094284058,1.1556528806686401,0.28146255016326904,0.3730226457118988,0.43988102674484253,1.1518491506576538,0.2959498167037964,0.3426918387413025,0.5725173950195312,0.7977306842803955,-0.09440837055444717,0.8952965140342712,0.3872779607772827,0.754659116268158,-0.2047388106584549,0.9247866272926331,-179.85891301274333,0.48593769967556,0.7469985485076904,111.96528119611344,120.36206608112086,1.0945485026097634,-0.006394929335537885,-0.025221501977670147,0.009679900521692032,-0.0036581365877634935,-171.9317064978067,0.3579770892473231,65,1762115189.7743475
0.49089494347572327,0.29247090220451355,-0.41568106412887573,0.9997215867042542,0.5581017136573792,0.4477289319038391,-0.17153765261173248,0.9995319843292236,0.41347846388816833,0.42763450741767883,-0.21389079093933105,0.9998552203178406,0.5235551595687866,0.7480023503303528,0.01481877826154232,0.9963154792785645,0.4478830397129059,0.7448021769523621,-0.014716723933815956,0.9951517581939697,0.5264443159103394,0.9859305620193481,-0.010117548517882824,0.81358402967453,0.4503301680088043,0.9900581240653992,0.004266995005309582,0.810877799987793,0.5329838991165161,1.172564148902893,0.31206533312797546,0.34509891271591187,0.4394233822822571,1.1721113920211792,0.3036845624446869,0.3202870190143585,0.5732532143592834,0.792766809463501,-0.11002199351787567,0.9044945240020752,0.3877224028110504,0.7611293196678162,-0.2364690750837326,0.9294524192810059,179.98682505049192,0.48571909964084625,0.7464022636413574,114.10688496828458,125.68242138339556,1.1391755863595738,-0.0028077113879395876,-0.007658717034750549,0.04607443313392904,0.22557741746355126,-172.08978154909622,0.03249523527303594,66,1762115189.8522046
0.4921398162841797,0.27462488412857056,-0.4171184003353119,0.9997471570968628,0.5604915618896484,0.4379289448261261,-0.1760392040014267,0.9995695948600769,0.41361409425735474,0.41545549035072327,-0.21129342913627625,0.9998589754104614,0.5237306356430054,0.7488750219345093,0.01370452344417572,0.996563196182251,0.44673800468444824,0.7447808384895325,-0.013637701980769634,0.9954743385314941,0.5269545912742615,0.9896084070205688,-0.007212234195321798,0.8153296113014221,0.45016613602638245,0.990275502204895,0.016701815649867058,0.8112503886222839,0.5332077741622925,1.1771271228790283,0.31998178362846375,0.3336271345615387,0.4386882781982422,1.1764085292816162,0.32539892196655273,0.311209112405777,0.574350893497467,0.7915554642677307,-0.12679748237133026,0.9127208590507507,0.3880303204059601,0.7608357667922974,-0.24185910820960999,0.9322490096092224,179.67453894244858,0.4852343201637268,0.7468279302120209,114.8593681963001,128.07392026675464,1.166712139814269,-0.005818391360458761,0.005108909956132695,-0.03613460381058097,0.15323885206264914,-171.30074570760402,0.6958565170447611,67,1762115189.935523
0.4932224750518799,0.2718183100223541,-0.41960054636001587,0.999769926071167,0.5617620348930359,0.4357371926307678,-0.17886245250701904,0.9996048808097839,0.4138137698173523,0.4128367602825165,-0.21161118149757385,0.9998579621315002,0.5242742896080017,0.748508870601654,0.013051112182438374,0.9967802166938782,0.4457332193851471,0.74321049451828,-0.0130306426435709,0.9957226514816284,0.5270790457725525,0.99224454164505,-0.008073864504694939,0.8174204230308533,0.4501587450504303,0.9928354024887085,0.017424969002604485,0.8090909719467163,0.5335176587104797,1.1832997798919678,0.31083136796951294,0.32713550329208374,0.43891334533691406,1.1781716346740723,0.3353833556175232,0.30199727416038513,0.5755297541618347,0.7870860695838928,-0.1210811510682106,0.9202306866645813,0.3884129226207733,0.7616802453994751,-0.22932378947734833,0.9336047172546387,179.5039506365105,0.4850037544965744,0.745859682559967,115.97849235462574,127.1275975533978,1.1737951139564005,-0.0029601296006072923,-0.012430899062125033,0.03669594587136682,-0.22518577247506694,-171.2011986008423,1.1579419044957269,68,1762115190.0134134
0.49380388855934143,0.25988060235977173,-0.39742332696914673,0.9997919201850891,0.5628727078437805,0.4249607026576996,-0.17147456109523773,0.9996393322944641,0.414412260055542,0.40354669094085693,-0.20230820775032043,0.9998641014099121,0.5254630446434021,0.7485141158103943,0.012896564789116383,0.9969695806503296,0.44584766030311584,0.7434735894203186,-0.012959025800228119,0.9959946870803833,0.527381181716919,0.9892776608467102,0.006507988087832928,0.8190625309944153,0.4510927200317383,0.9908096194267273,0.04414600878953934,0.8086633682250977,0.537334144115448,1.1709001064300537,0.30322587490081787,0.3322623074054718,0.43894729018211365,1.176581859588623,0.309818834066391,0.3125948905944824,0.5769240260124207,0.7861016392707825,-0.1167394295334816,0.9272906184196472,0.3896061182022095,0.7644249796867371,-0.22199562191963196,0.9353431463241577,179.48409802651088,0.48565535247325897,0.7459938526153564,119.95115101291282,137.8390008093913,1.1535650780373747,0.008180993633013736,0.001684542322348511,0.13987989757524572,0.1772232883243868,-171.7922364742632,2.7224203985445006,69,1762115190.0930612
0.49456867575645447,0.25397056341171265,-0.4365726411342621,0.9998118281364441,0.5638271570205688,0.4205282926559448,-0.18572108447551727,0.9996694326400757,0.4149405062198639,0.3986859917640686,-0.20300006866455078,0.9998713135719299,0.5263228416442871,0.7477166056632996,0.012175990268588066,0.9971432685852051,0.445579469203949,0.7437528967857361,-0.012169178575277328,0.9962620139122009,0.527413010597229,0.9881115555763245,0.01952744834125042,0.8204146027565002,0.45128655433654785,0.9910942316055298,0.048137761652469635,0.8109461069107056,0.5428677797317505,1.1738386154174805,0.32028570771217346,0.3396567404270172,0.44035810232162476,1.1808182001113892,0.30923062562942505,0.3259837031364441,0.5789138078689575,0.7847594618797302,-0.14337758719921112,0.9334693551063538,0.39007115364074707,0.765284538269043,-0.24296864867210388,0.9377745389938354,179.41489179639987,0.48595115542411804,0.7457347512245178,123.42479308186259,139.58316283887862,1.1904185935428364,0.0037961132817878355,-0.0033251129788789925,-0.05627226669645229,-0.06429015995593967,-171.65400174375173,1.516093553272509,70,1762115190.1709838
0.49597978591918945,0.2510526776313782,-0.4380015432834625,0.9998297691345215,0.564481258392334,0.41557613015174866,-0.19926846027374268,0.9996933937072754,0.4153371751308441,0.39733222126960754,-0.22416988015174866,0.9998776912689209,0.5275424122810364,0.7480072975158691,0.010884849354624748,0.997279167175293,0.4456087648868561,0.7438609600067139,-0.010820234194397926,0.9965078830718994,0.5275968909263611,0.9874757528305054,0.023212751373648643,0.8204248547554016,0.45163488388061523,0.9901368021965027,0.04969855397939682,0.8138498067855835,0.5458368062973022,1.1657871007919312,0.3217499852180481,0.3437068462371826,0.44040098786354065,1.174398422241211,0.302245557308197,0.3402847945690155,0.580035388469696,0.7848817706108093,-0.13628217577934265,0.9386014938354492,0.39101505279541016,0.7687104940414429,-0.24244973063468933,0.9400367736816406,179.43738449265507,0.48657558858394623,0.7459341287612915,123.74390089874467,139.7813533708973,1.1862300924748947,0.007760461112691414,0.0024778658796757217,0.04926895167991219,0.07211947517645508,-173.02599467777242,0.9513752771825721,71,1762115190.2514472
0.49723872542381287,0.24990904331207275,-0.42745551466941833,0.9998461604118347,0.5660845041275024,0.4152968227863312,-0.20317475497722626,0.9997154474258423,0.41542720794677734,0.3968754708766937,-0.22975532710552216,0.999883770942688,0.5279236435890198,0.7480955123901367,0.010797152295708656,0.9974237084388733,0.44550713896751404,0.745931088924408,-0.010717172175645828,0.9967542886734009,0.5282042622566223,0.9867144823074341,0.030737731605768204,0.8204331994056702,0.45247000455856323,0.9890197515487671,0.048431165516376495,0.8184782266616821,0.5499910712242126,1.1588715314865112,0.32074326276779175,0.3505966067314148,0.44335755705833435,1.168846607208252,0.28258010745048523,0.35800060629844666,0.5823137164115906,0.7875878810882568,-0.1297324001789093,0.9434726238250732,0.39402836561203003,0.7758258581161499,-0.23360614478588104,0.9425366520881653,179.3209964718386,0.4867153912782669,0.7470133006572723,125.39161147425385,141.05907953864906,1.1691521969628085,0.0017615471273000375,0.01359782200525723,-0.07558773991613367,0.14011408624063393,-173.02886462926028,0.6374802058581558,72,1762115190.3308108
0.49796661734580994,0.2493247091770172,-0.4367096424102783,0.9998610019683838,0.5671404600143433,0.415938138961792,-0.2238267958164215,0.9997354745864868,0.4158976078033447,0.3951026499271393,-0.24345223605632782,0.9998902678489685,0.5281731486320496,0.7482316493988037,0.009872565045952797,0.997551441192627,0.44544315338134766,0.7471510767936707,-0.00979059562087059,0.9969814419746399,0.5288568735122681,0.9866141676902771,0.0340457446873188,0.8221497535705566,0.4526037573814392,0.9885172247886658,0.05481871962547302,0.8234573006629944,0.5520934462547302,1.152281403541565,0.3333764970302582,0.35991549491882324,0.4443973898887634,1.166417121887207,0.2863071858882904,0.37723273038864136,0.5830726623535156,0.7901368737220764,-0.14555683732032776,0.9478490948677063,0.39542028307914734,0.7783847451210022,-0.24597597122192383,0.9448480606079102,179.211222806997,0.4868081510066986,0.7476913630962372,124.6745096362725,142.39135175829963,1.1770657941842346,0.001420719082414031,0.010385285321472782,-0.005220163053279567,-0.04920359564191888,-172.15620175838612,0.6267720302997236,73,1762115190.3961015
0.4995048940181732,0.25241151452064514,-0.38372576236724854,0.9998740553855896,0.5680856704711914,0.4158341586589813,-0.17943094670772552,0.9997530579566956,0.41654014587402344,0.3978239595890045,-0.21401569247245789,0.9998961687088013,0.5289244055747986,0.7527605891227722,0.011028915643692017,0.9976616501808167,0.445514976978302,0.7548513412475586,-0.010915901511907578,0.997186541557312,0.530015766620636,0.9855654239654541,0.03729894757270813,0.8206841945648193,0.45318397879600525,0.9887670874595642,0.047405898571014404,0.8268356323242188,0.5525841116905212,1.1512523889541626,0.3326055109500885,0.35949766635894775,0.4462433457374573,1.1679835319519043,0.26853805780410767,0.3871392011642456,0.5858572721481323,0.7916167974472046,-0.10597129911184311,0.9514784216880798,0.39694035053253174,0.7814959287643433,-0.2433021366596222,0.946740448474884,179.15902508033867,0.4872196912765503,0.7538059651851654,125.66315779675367,142.8872326536263,1.1363479556600256,0.006396680341082169,0.09504089354337829,0.07734269497558544,1.3158247310052404,-173.2225579828246,0.6517352197356774,74,1762115190.460438
0.5010972023010254,0.25343018770217896,-0.3896362781524658,0.9998858571052551,0.5694732666015625,0.41553831100463867,-0.18363778293132782,0.999765932559967,0.41710013151168823,0.39930588006973267,-0.21701237559318542,0.9999017119407654,0.5299416780471802,0.7557077407836914,0.011304405517876148,0.9977197051048279,0.4456446170806885,0.7600751519203186,-0.011202488094568253,0.9973592758178711,0.5304635167121887,0.9848277568817139,0.03639024868607521,0.8183677196502686,0.45365118980407715,0.9887082576751709,0.04564191773533821,0.8304303288459778,0.5534797310829163,1.1511834859848022,0.34140509366989136,0.35933342576026917,0.44870835542678833,1.175602674484253,0.26241353154182434,0.39931347966194153,0.5906593203544617,0.798887312412262,-0.09247742593288422,0.9541746973991394,0.3987218737602234,0.7883391380310059,-0.23541688919067383,0.9477149844169617,179.10197128666383,0.4877931475639343,0.757891446352005,124.77905207024455,144.61115171928677,1.1429207189884594,0.009001313568677937,0.06412816089158006,0.04088388414039033,-0.48522477821784243,-173.91916935617442,0.6078490736775851,75,1762115190.524146
0.5027646422386169,0.2527730464935303,-0.38222506642341614,0.9998961091041565,0.5703898668289185,0.41622811555862427,-0.17744038999080658,0.9997764825820923,0.4176814556121826,0.4002646505832672,-0.21328938007354736,0.999904215335846,0.5305467247962952,0.7633605003356934,0.011542608961462975,0.9978213310241699,0.4456716477870941,0.7669275999069214,-0.011457802727818489,0.9975225925445557,0.5313929915428162,0.9846850037574768,0.03291674703359604,0.8145816922187805,0.45384591817855835,0.9885243773460388,0.04458976536989212,0.8311601877212524,0.5545281171798706,1.1510064601898193,0.3516968786716461,0.35745352506637573,0.4503806531429291,1.1730176210403442,0.28197553753852844,0.40627750754356384,0.5963533520698547,0.8059493899345398,-0.08265845477581024,0.9563402533531189,0.40130487084388733,0.7912634015083313,-0.22114863991737366,0.9481527805328369,179.04866064803298,0.48810918629169464,0.7651440501213074,123.00817875058623,141.95666475696862,1.146909896302251,0.004894517143848818,0.11232165670947399,-0.06360228586563502,0.7463765380095551,-174.03222647691808,0.6025332375958927,76,1762115190.588716
0.5038092136383057,0.2509523034095764,-0.37847739458084106,0.9999054074287415,0.5709091424942017,0.4163152575492859,-0.18127967417240143,0.9997879266738892,0.4181678295135498,0.4017326235771179,-0.2112424075603485,0.9999041557312012,0.5321059823036194,0.7670007348060608,0.01195472665131092,0.9979311227798462,0.44635501503944397,0.7699864506721497,-0.011891143396496773,0.9976786971092224,0.531883180141449,0.9834408164024353,0.031126534566283226,0.8148422241210938,0.4539157748222351,0.9845712184906006,0.05043993145227432,0.8356356024742126,0.5539104342460632,1.1256670951843262,0.38524511456489563,0.36550623178482056,0.45224183797836304,1.1562201976776123,0.32104507088661194,0.4239642322063446,0.6000329256057739,0.8106451034545898,-0.08622056990861893,0.9583688378334045,0.40404218435287476,0.7932469844818115,-0.21033017337322235,0.9469858407974243,179.15402268557924,0.4892304986715317,0.7684935927391052,116.89148516857703,138.5305218515384,1.152109626723243,0.015757763080304493,0.04707100353811515,0.15266080962615183,-0.916965113377972,-174.5463440971253,0.5215332450338352,77,1762115190.6598754
