nose_x,nose_y,nose_z,nose_visibility,left_shoulder_x,left_shoulder_y,left_shoulder_z,left_shoulder_visibility,right_shoulder_x,right_shoulder_y,right_shoulder_z,right_shoulder_visibility,left_hip_x,left_hip_y,left_hip_z,left_hip_visibility,right_hip_x,right_hip_y,right_hip_z,right_hip_visibility,left_knee_x,left_knee_y,left_knee_z,left_knee_visibility,right_knee_x,right_knee_y,right_knee_z,right_knee_visibility,left_ankle_x,left_ankle_y,left_ankle_z,left_ankle_visibility,right_ankle_x,right_ankle_y,right_ankle_z,right_ankle_visibility,left_wrist_x,left_wrist_y,left_wrist_z,left_wrist_visibility,right_wrist_x,right_wrist_y,right_wrist_z,right_wrist_visibility,trunk_lateral_inclination,center_mass_x,center_mass_y,left_knee_angle,right_knee_angle,person_height,center_mass_velocity_x,center_mass_velocity_y,center_mass_acceleration_x,center_mass_acceleration_y,body_orientation,torso_leg_ratio,frame,timestamp
0.46212244033813477,0.32176515460014343,-0.24354314804077148,0.9999988079071045,0.4554840922355652,0.409365177154541,0.010470479726791382,0.9999527931213379,0.4286758303642273,0.4311980903148651,-0.23795799911022186,0.9999430179595947,0.4528140425682068,0.6252031326293945,0.08668352663516998,0.9997243285179138,0.43880122900009155,0.6705186367034912,-0.08678333461284637,0.9997890591621399,0.5527719259262085,0.6330069303512573,0.12685897946357727,0.48209360241889954,0.5592955350875854,0.696077823638916,-0.10276701301336288,0.945227324962616,0.5402296185493469,0.8027944564819336,0.21352985501289368,0.3890010416507721,0.5482677221298218,0.8659040927886963,0.027023818343877792,0.9497280716896057,0.5327821969985962,0.5911585688591003,0.02991529181599617,0.7208174467086792,0.5275931358337402,0.6420053839683533,-0.15490804612636566,0.9750287532806396,-179.06159758934567,0.44580763578414917,0.6478608846664429,99.91532993992296,92.02047065515262,0.6339181169895131,0.0,0.0,0.0,0.0,140.84028860340257,0.3162782500119282,0,1761939701.2328646
0.4609350264072418,0.3205602467060089,-0.2249588519334793,0.9999988675117493,0.4519057273864746,0.40546488761901855,0.009504994377493858,0.9999539852142334,0.4226832985877991,0.43027907609939575,-0.21357247233390808,0.9999460577964783,0.4535098969936371,0.6309041976928711,0.08000727742910385,0.9997187256813049,0.44225645065307617,0.6761637926101685,-0.07998670637607574,0.9997795224189758,0.5513303279876709,0.6323058605194092,0.14020347595214844,0.509907066822052,0.559295654296875,0.6947563886642456,-0.09714904427528381,0.9492916464805603,0.5402318835258484,0.7998534440994263,0.21353566646575928,0.41618698835372925,0.5470365881919861,0.8654511570930481,0.026640918105840683,0.951702356338501,0.5273464322090149,0.5909432172775269,0.022177670150995255,0.7204092741012573,0.5259073972702026,0.6417758464813232,-0.09761808067560196,0.9756394028663635,-177.42734183594862,0.44788317382335663,0.6535339951515198,99.74736826134064,89.12631863638347,0.62300478540323,0.05473672048892745,0.14961299530941513,1.4435334420693298,3.9456394202679865,139.66379104459386,0.9065824222626656,1,1761939701.2707832
0.46095508337020874,0.31967541575431824,-0.2145799696445465,0.999998927116394,0.4505480229854584,0.4018855690956116,0.01020978856831789,0.9999534487724304,0.4195069670677185,0.42895790934562683,-0.20656442642211914,0.9999484419822693,0.4548078179359436,0.6327428817749023,0.07669708877801895,0.9996944069862366,0.44289690256118774,0.6767030954360962,-0.07664836198091507,0.9997525215148926,0.5511298179626465,0.6320366859436035,0.13954699039459229,0.5384665131568909,0.5581529140472412,0.6940823197364807,-0.09337809681892395,0.953403890132904,0.5406221151351929,0.8007828593254089,0.20823021233081818,0.4451722502708435,0.5439772009849548,0.8654359579086304,0.02461867779493332,0.9538151025772095,0.523714542388916,0.5895773768424988,0.024116303771734238,0.7194831371307373,0.5256887674331665,0.6415469646453857,-0.11660846322774887,0.9766563773155212,-176.69359457087137,0.4488523602485657,0.6547229886054993,98.72880935523878,88.53015023615332,0.6162753665482783,0.025867239152153026,0.03173381015711004,-0.7705161344742211,-3.146153303517342,138.90681238944305,1.1200836383496597,2,1761939701.308251
0.4619726240634918,0.31850510835647583,-0.2095824033021927,0.9999989867210388,0.4503863453865051,0.402106910943985,0.02037210203707218,0.9999550580978394,0.4196545481681824,0.42795702815055847,-0.20265574753284454,0.9999518394470215,0.456712007522583,0.6371768116950989,0.0778028815984726,0.9996960759162903,0.4472286105155945,0.6788908839225769,-0.07777362316846848,0.9997491240501404,0.5521604418754578,0.6343215703964233,0.15569889545440674,0.5688351988792419,0.5586510896682739,0.6932064294815063,-0.08435460180044174,0.9576097726821899,0.5374643206596375,0.8035256266593933,0.2341490238904953,0.4768769145011902,0.5437068343162537,0.8677886724472046,0.03359831124544144,0.9567176103591919,0.5247860550880432,0.5895886421203613,0.02099107764661312,0.7231225371360779,0.5257598161697388,0.6415973901748657,-0.1171649843454361,0.9777887463569641,-176.00996848969146,0.45197030901908875,0.6580338478088379,100.5594210120518,90.13948693341567,0.6257701676955566,0.09533394811083491,0.10123234944633576,2.124003989387691,2.1249772289447693,139.9310589122491,1.143623703919485,3,1761939701.3409564
0.4643864631652832,0.31902509927749634,-0.2175186425447464,0.9999990463256836,0.4504254460334778,0.4025595784187317,0.010517427697777748,0.9999553561210632,0.4240323603153229,0.428082138299942,-0.2077503651380539,0.9999545812606812,0.46085411310195923,0.637059211730957,0.07769685983657837,0.9996897578239441,0.45343366265296936,0.6785113215446472,-0.07767479866743088,0.9997342228889465,0.5553726553916931,0.6406945586204529,0.1511121690273285,0.5950377583503723,0.5628424882888794,0.6939321756362915,-0.07970641553401947,0.9613946080207825,0.5376162528991699,0.8171343207359314,0.23259107768535614,0.5039396286010742,0.5447976589202881,0.8715047240257263,0.03994825854897499,0.958777129650116,0.5284134745597839,0.5915724039077759,0.020366620272397995,0.7294373512268066,0.5281744599342346,0.642956554889679,-0.1421215832233429,0.9794092178344727,-175.304510941951,0.4571438878774643,0.6577852666378021,102.21672784139105,91.25703393451546,0.6379669174886515,0.1638197380341235,-0.00787124414917711,2.1685808743651593,-3.4547307793449646,135.9606503389983,1.1124685492257704,4,1761939701.3725374
0.4671500623226166,0.32030820846557617,-0.24084432423114777,0.9999991059303284,0.4530178904533386,0.4031398296356201,-0.00016413895355071872,0.9999558925628662,0.42908424139022827,0.4296417534351349,-0.22741150856018066,0.9999573826789856,0.464804470539093,0.6369768381118774,0.07822208851575851,0.9996873736381531,0.4575493335723877,0.6793251633644104,-0.07821398973464966,0.9997302293777466,0.5593840479850769,0.6424518823623657,0.15313179790973663,0.6215054988861084,0.5675376057624817,0.6949577331542969,-0.08371058851480484,0.9647992253303528,0.5391268730163574,0.8168075680732727,0.23696179687976837,0.5317469835281372,0.5460933446884155,0.8745494484901428,0.038032032549381256,0.9611401557922363,0.5333012342453003,0.5940027832984924,0.011459632776677608,0.7359569072723389,0.5311323404312134,0.6442784070968628,-0.16445977985858917,0.9808634519577026,-175.24126511760073,0.46117690205574036,0.6581510007381439,103.08344197522172,89.4795052479578,0.6518053878560313,0.12104248658318426,0.010976744186046512,-1.283869745042435,0.5656829543211577,132.08490847803452,0.965188389431931,5,1761939701.4058564
0.4698466360569,0.32285985350608826,-0.2416093349456787,0.9999991059303284,0.4566984176635742,0.40333670377731323,-0.005024557467550039,0.9999557733535767,0.43161457777023315,0.4322079122066498,-0.2277366816997528,0.9999592900276184,0.4695360064506531,0.6361660957336426,0.07751666754484177,0.999658465385437,0.46091923117637634,0.6791521906852722,-0.07748670130968094,0.999701976776123,0.5648234486579895,0.6419000029563904,0.14718970656394958,0.6444029808044434,0.5721439123153687,0.6951625347137451,-0.08569316565990448,0.9677551984786987,0.5412295460700989,0.8127016425132751,0.2239323854446411,0.5522699952125549,0.5481645464897156,0.8751603960990906,0.028903838247060776,0.9628030061721802,0.5365238189697266,0.5942044854164124,0.010578719899058342,0.7430257201194763,0.5329598188400269,0.6457854509353638,-0.16586241126060486,0.9820616245269775,-174.9801510591175,0.4652276188135147,0.6576591432094574,100.53447472744826,88.28114696510947,0.6423098514974797,0.09152236623086993,-0.01111308629206462,-0.666981037585144,-0.49910020272716876,130.98471543848615,0.885801459424347,6,1761939701.4501157
0.47261232137680054,0.32408714294433594,-0.23779086768627167,0.9999991059303284,0.4607749879360199,0.40354296565055847,-0.0005274691502563655,0.9999536871910095,0.4339316785335541,0.4327929615974426,-0.22295591235160828,0.9999595880508423,0.4735938012599945,0.6359220147132874,0.07787246257066727,0.9996166229248047,0.46400314569473267,0.6790351867675781,-0.07784704864025116,0.9996461868286133,0.5709756016731262,0.642492413520813,0.13446399569511414,0.661450982093811,0.5766999125480652,0.6954538822174072,-0.08860868215560913,0.9702157378196716,0.5476716160774231,0.8157766461372375,0.20267537236213684,0.5656703114509583,0.5508355498313904,0.8772894740104675,0.020269151777029037,0.9632515907287598,0.5380021929740906,0.593370795249939,0.013584037311375141,0.7478357553482056,0.533011794090271,0.6457228064537048,-0.16564172506332397,0.9827601909637451,-174.87927993013048,0.4687984734773636,0.6574786007404327,97.40558152789073,87.41639778748302,0.6330942687375741,0.09876781345414498,-0.004993702230926992,0.20040495822614893,0.16925869022998924,132.54322800335802,0.8722793707433669,7,1761939701.4862697
0.4751494824886322,0.3256995975971222,-0.2350345104932785,0.9999991059303284,0.4635935425758362,0.4041690528392792,0.0037054892163723707,0.9999525547027588,0.4381925165653229,0.43296754360198975,-0.21885940432548523,0.9999609589576721,0.47651147842407227,0.6359107494354248,0.0780341848731041,0.9995951652526855,0.46663761138916016,0.6788567304611206,-0.07800611108541489,0.9996129870414734,0.5753968954086304,0.6451476812362671,0.12514522671699524,0.6799622178077698,0.5801700949668884,0.6956527829170227,-0.0890207514166832,0.9725250601768494,0.551980197429657,0.8168178200721741,0.18740874528884888,0.580388069152832,0.5540682673454285,0.881107747554779,0.01871338300406933,0.9638044238090515,0.5405681729316711,0.5930352807044983,0.018512990325689316,0.7484044432640076,0.5357606410980225,0.6446279883384705,-0.16312654316425323,0.9834771156311035,-175.05051042965314,0.4715745449066162,0.6573837399482727,96.25030881509285,87.6185173925324,0.627835532852421,0.07440959285791886,-0.0025426409596053193,-0.6528957642118444,0.06569804701241413,131.4131409216666,0.8352704291917168,8,1761939701.5235777
0.47539669275283813,0.3267658054828644,-0.23855502903461456,0.9999990463256836,0.4643913209438324,0.4074181318283081,0.009551801718771458,0.9999450445175171,0.4375630021095276,0.43430382013320923,-0.22660768032073975,0.9999618530273438,0.47639164328575134,0.6386096477508545,0.08031348884105682,0.9995542168617249,0.46374934911727905,0.6800714731216431,-0.08027489483356476,0.9995685815811157,0.5746380090713501,0.6462100744247437,0.1250728964805603,0.6913094520568848,0.5779540538787842,0.6956555843353271,-0.10294400155544281,0.9744926691055298,0.552727460861206,0.8161231875419617,0.1923782229423523,0.5877829790115356,0.5545942783355713,0.8805662989616394,0.014606043696403503,0.9637193083763123,0.5403205156326294,0.5935009717941284,0.01877261884510517,0.734914243221283,0.5372588634490967,0.6447939276695251,-0.17880472540855408,0.9838453531265259,-175.4225055177847,0.4700704962015152,0.6593405604362488,96.19920549261711,84.56714556405132,0.6286224073129288,-0.044834175514903415,0.058330845877219165,-3.5545365134479123,1.8145772698651108,134.93880502566734,0.8434881663621006,9,1761939701.5571246
0.4744306206703186,0.32781460881233215,-0.2380867749452591,0.9999989867210388,0.4628700315952301,0.4093794822692871,0.009499702602624893,0.9999386072158813,0.4374466836452484,0.43817460536956787,-0.22879178822040558,0.9999629855155945,0.4762425422668457,0.6413983106613159,0.08059241622686386,0.9995090961456299,0.4631287157535553,0.6828036308288574,-0.08054457604885101,0.999531626701355,0.5728956460952759,0.6485329866409302,0.12915527820587158,0.7073433995246887,0.5763031840324402,0.6971257328987122,-0.1010800376534462,0.9766069650650024,0.547899067401886,0.8180039525032043,0.19286906719207764,0.6041070818901062,0.5544015169143677,0.8839844465255737,0.016687296330928802,0.9650784730911255,0.5396296381950378,0.597482442855835,0.014863532967865467,0.7209677696228027,0.536995530128479,0.6455262899398804,-0.1708286702632904,0.9841006994247437,-175.31588565712218,0.4696856290102005,0.6621009707450867,95.4657015815139,85.04796048261204,0.630205657430889,-0.009493521998153343,0.0680910625334486,0.8717481748555838,0.24075534008533284,131.44143388069008,0.8327150978466208,10,1761939701.5976646
0.47547850012779236,0.33041703701019287,-0.2296239584684372,0.9999989867210388,0.4622364938259125,0.41472572088241577,0.015975097194314003,0.9999339580535889,0.43662935495376587,0.44063296914100647,-0.2239239513874054,0.9999642968177795,0.47439712285995483,0.6452873945236206,0.0808272510766983,0.9994715452194214,0.4616716504096985,0.6861186623573303,-0.08077230304479599,0.9995023012161255,0.5721606016159058,0.6479225754737854,0.1296611875295639,0.7215299606323242,0.5753389000892639,0.698510468006134,-0.10162389278411865,0.9785614609718323,0.5461222529411316,0.8194602727890015,0.1969742476940155,0.6208025217056274,0.5536682605743408,0.8874304294586182,0.011436586268246174,0.9666207432746887,0.5393049716949463,0.6002360582351685,0.015600952319800854,0.7130908966064453,0.5339558124542236,0.6477010250091553,-0.1691257208585739,0.9844867587089539,-175.53143843792506,0.46803438663482666,0.6657030284404755,93.36342728628144,84.46617843903354,0.6249308145266173,-0.037087202266204,0.08090286702651758,-0.6197590472679495,0.2877554450611383,134.666213505221,0.7797558990406447,11,1761939701.6421878
0.4765927791595459,0.33110979199409485,-0.22388902306556702,0.9999988675117493,0.4634634852409363,0.41450852155685425,0.016507521271705627,0.9999274015426636,0.43678122758865356,0.4402550160884857,-0.21797621250152588,0.9999644160270691,0.4733510911464691,0.6457433104515076,0.08025307208299637,0.9994076490402222,0.4609812796115875,0.6861400604248047,-0.0801871195435524,0.9994351863861084,0.5706466436386108,0.6516110301017761,0.12832659482955933,0.7306507229804993,0.574777364730835,0.698660671710968,-0.1006946712732315,0.9801927208900452,0.5467914342880249,0.8221891522407532,0.19247111678123474,0.6307015419006348,0.5533099174499512,0.886791467666626,0.005269873421639204,0.9672531485557556,0.539065420627594,0.6011896133422852,0.016040178015828133,0.6997844576835632,0.5338518023490906,0.6489992737770081,-0.16211014986038208,0.9842453002929688,-175.9134668500601,0.4671661853790283,0.6659416854381561,95.06479340680639,84.86123955845994,0.6192712941320834,-0.02089154069016953,0.005742807148389317,0.3897164632741901,-1.8085777217353083,136.02252262440058,0.7520775767951239,12,1761939701.6837454
0.4774741232395172,0.33189377188682556,-0.22350355982780457,0.9999987483024597,0.4631063938140869,0.41524824500083923,0.01601804606616497,0.9999212026596069,0.43719568848609924,0.4406578838825226,-0.21843557059764862,0.9999639987945557,0.47297972440719604,0.6462243795394897,0.0798983946442604,0.9993589520454407,0.4605129659175873,0.6861643195152283,-0.07982729375362396,0.9993863701820374,0.5689489245414734,0.6555436253547668,0.13003365695476532,0.7416053414344788,0.5744014382362366,0.7002862095832825,-0.09573902189731598,0.9817699790000916,0.5444856882095337,0.824030876159668,0.19261038303375244,0.6444054841995239,0.552467942237854,0.8891021609306335,0.008564192801713943,0.9685072898864746,0.5381654500961304,0.6030348539352417,0.010290098376572132,0.6887498497962952,0.5325143933296204,0.6501168608665466,-0.15863487124443054,0.9842076301574707,-176.01535284181026,0.46674634516239166,0.666194349527359,96.8748623340631,86.59701963549892,0.6207718992894349,-0.011152161797582029,0.006711483777810147,0.2587058716961598,0.025730832999704266,135.55938986546178,0.7153343713855433,13,1761939701.721392
0.48172616958618164,0.33691146969795227,-0.21500635147094727,0.9999985098838806,0.4643631875514984,0.4252588152885437,0.014434942975640297,0.9999023675918579,0.4394840598106384,0.44616034626960754,-0.21293644607067108,0.9999613165855408,0.47248244285583496,0.6550719141960144,0.07857456803321838,0.9992971420288086,0.4604950547218323,0.6922698616981506,-0.07851903885602951,0.9993436932563782,0.5669203400611877,0.6657837629318237,0.14140942692756653,0.7532392144203186,0.5731853246688843,0.7109503746032715,-0.08696328103542328,0.9832913875579834,0.5440698862075806,0.8278063535690308,0.21529793739318848,0.6618555784225464,0.5522170066833496,0.8970777988433838,0.026034438982605934,0.9699400663375854,0.536910891532898,0.6090119481086731,0.001351280719973147,0.665841281414032,0.531929612159729,0.6541076898574829,-0.1388852298259735,0.9829031229019165,-176.49741216184034,0.4664887487888336,0.6736708879470825,101.90615289786936,90.3655249236317,0.6271122123857544,-0.005980336534469875,0.17357471009880165,0.12006867621494124,3.873883140680486,139.9656042838213,0.6647589486205833,14,1761939701.7644658
0.48861536383628845,0.34618908166885376,-0.21474261581897736,0.9999979734420776,0.4675995409488678,0.4331640899181366,0.004057711455971003,0.9998856782913208,0.4434847831726074,0.4507431387901306,-0.21451404690742493,0.9999558925628662,0.47201046347618103,0.6614524126052856,0.07764509320259094,0.9992004632949829,0.4605342745780945,0.698119580745697,-0.07757288217544556,0.999272882938385,0.566712498664856,0.6754546761512756,0.13898371160030365,0.7626053690910339,0.5731499195098877,0.7166275978088379,-0.08623085916042328,0.9845263957977295,0.5430203676223755,0.8391454815864563,0.20695988833904266,0.6768432259559631,0.5521552562713623,0.9077311158180237,0.01364829670637846,0.9716576933860779,0.5369263887405396,0.6182960271835327,0.0012575985165312886,0.6480608582496643,0.5338801741600037,0.6612374186515808,-0.14217397570610046,0.9805853366851807,-177.41675656860528,0.46627236902713776,0.6797859966754913,101.97288403270885,90.71136164947721,0.6221935784803957,-0.0069868394715772615,0.19745507944817392,-0.03249968663485604,0.7710901697015266,143.90889673230245,0.4802191305018413,15,1761939701.7954354
0.490966796875,0.35094690322875977,-0.20728561282157898,0.9999974370002747,0.473074346780777,0.43662041425704956,0.004691318608820438,0.999872624874115,0.4452347755432129,0.4550614356994629,-0.21024684607982635,0.9999500513076782,0.47244638204574585,0.6681275367736816,0.07589328289031982,0.9991263151168823,0.46066221594810486,0.7029727697372437,-0.07580547779798508,0.9991864562034607,0.5671446323394775,0.6840035319328308,0.12957453727722168,0.7640563249588013,0.5730776190757751,0.7213669419288635,-0.08348283171653748,0.9852707386016846,0.5457051992416382,0.8483752012252808,0.19207480549812317,0.6789296269416809,0.5521243810653687,0.909009575843811,0.013982051983475685,0.9714435935020447,0.5388709902763367,0.6232131719589233,0.0031836293637752533,0.632239580154419,0.5349756479263306,0.6665011048316956,-0.13492020964622498,0.9786646962165833,-178.23186134995618,0.46655429899692535,0.6855501532554626,101.6465755017634,90.82143156340294,0.6149537149870897,0.007502220530389544,0.15338551579748763,0.3855571775313373,-1.17270109820028,146.4793808740685,0.34908811138252493,16,1761939701.833015
0.495098739862442,0.35153141617774963,-0.20846588909626007,0.9999973177909851,0.47620072960853577,0.43492549657821655,0.004758520983159542,0.9998658299446106,0.4476163387298584,0.4557849168777466,-0.21477575600147247,0.9999480843544006,0.47329121828079224,0.6650475859642029,0.07596321403980255,0.9990604519844055,0.4610823690891266,0.7024173140525818,-0.07586954534053802,0.9991124272346497,0.5688044428825378,0.6786342859268188,0.12488635629415512,0.7677538990974426,0.573865532875061,0.720144510269165,-0.0838642418384552,0.9859976768493652,0.5470368266105652,0.8451377749443054,0.18699565529823303,0.6791918277740479,0.5511139035224915,0.9058924913406372,0.010296963155269623,0.9712746143341064,0.5392770767211914,0.6215951442718506,0.007428321987390518,0.6193879842758179,0.5359103083610535,0.6673124432563782,-0.1362229883670807,0.9783462285995483,-178.73153754483909,0.4671867936849594,0.6837324500083923,99.57538470184276,89.93786889952823,0.6097461062371622,0.02081469886702445,-0.059818598374289926,0.4380989010549942,-7.0163109946265525,143.8799522494339,0.237111942476861,17,1761939701.863402
0.4995195269584656,0.35240888595581055,-0.2052854746580124,0.9999971389770508,0.478416383266449,0.43812447786331177,0.010276319459080696,0.999854564666748,0.44979795813560486,0.45750123262405396,-0.20528967678546906,0.9999457597732544,0.47298797965049744,0.6710835099220276,0.07477661967277527,0.9990270733833313,0.4613422453403473,0.7047481536865234,-0.07467840611934662,0.9990587830543518,0.5685436725616455,0.6839221119880676,0.12299416214227676,0.7668534517288208,0.5737379789352417,0.7222888469696045,-0.0826999768614769,0.9866304397583008,0.5458104014396667,0.8513942360877991,0.18230919539928436,0.6769527196884155,0.5497151017189026,0.9033842086791992,0.01506766490638256,0.969943106174469,0.5396479368209839,0.6247689127922058,0.012370596639811993,0.5949342846870422,0.5362353920936584,0.6679308414459229,-0.1217975839972496,0.9768912196159363,-179.27032272107783,0.46716511249542236,0.6879158318042755,98.4511937172509,89.25368944124706,0.6085490096643795,-0.0006325294919592678,0.1220464567914974,-0.6257038819139088,5.305751824759908,145.8991430126648,0.13079824172119714,18,1761939701.8976789
0.5023687481880188,0.35268113017082214,-0.19912780821323395,0.9999966025352478,0.47965842485427856,0.4385138750076294,0.011914036236703396,0.999833345413208,0.4521710276603699,0.45843878388404846,-0.20554861426353455,0.9999421238899231,0.47260814905166626,0.669718325138092,0.07446087151765823,0.9989402294158936,0.45898446440696716,0.7043141722679138,-0.07435319572687149,0.9989726543426514,0.5682507753372192,0.681886613368988,0.12145503610372543,0.7707043290138245,0.5710528492927551,0.7263771295547485,-0.0825248509645462,0.9873647093772888,0.5409628748893738,0.8492923974990845,0.17772643268108368,0.6826604604721069,0.5470041036605835,0.9024088382720947,0.011891649104654789,0.9704415798187256,0.5395337343215942,0.6265711784362793,0.01200755313038826,0.5723211765289307,0.533820390701294,0.6696213483810425,-0.11945582926273346,0.9761057496070862,179.9715563808753,0.4657963067293167,0.6870162487030029,96.2042229607078,91.0373780404759,0.6015288611645255,-0.03751233273221473,-0.024653213370968586,-1.0106966850257204,-4.02032704354916,144.06260767975408,0.0046132703937278394,19,1761939701.9341683
0.5060209035873413,0.36291801929473877,-0.200041726231575,0.9999963641166687,0.4845493733882904,0.44502800703048706,0.01144242100417614,0.9998196363449097,0.4580323100090027,0.46145105361938477,-0.1988585889339447,0.9999401569366455,0.4724505841732025,0.6761011481285095,0.07269260287284851,0.9989368319511414,0.4581979811191559,0.7087199091911316,-0.07259748876094818,0.9989516735076904,0.5681225657463074,0.6996771693229675,0.12166795879602432,0.7723597884178162,0.5702089667320251,0.7389221787452698,-0.08167603611946106,0.9880756735801697,0.5411003232002258,0.8626903891563416,0.17845484614372253,0.6847261190414429,0.5451511144638062,0.9114249348640442,0.018855327740311623,0.9698134064674377,0.5400188565254211,0.6386246681213379,0.013394899666309357,0.5465757250785828,0.5344876646995544,0.6784452795982361,-0.11529858410358429,0.9749902486801147,178.57094813827484,0.4653242826461792,0.6924105286598206,102.12695991034155,93.64949478275544,0.6044161799458094,-0.01337819620509771,0.1528857069492121,0.6840142807000096,5.03184179564975,148.2284595933035,0.2291213160200717,20,1761939701.9694514
0.5130064487457275,0.3691839873790741,-0.20272496342658997,0.9999960660934448,0.4908536374568939,0.4488937258720398,0.010567889548838139,0.999811053276062,0.4647907614707947,0.46388763189315796,-0.19859343767166138,0.9999365210533142,0.4728459417819977,0.6825917959213257,0.07167330384254456,0.998942494392395,0.4582062363624573,0.7131425738334656,-0.0715850293636322,0.9989427328109741,0.5680102705955505,0.7095625400543213,0.12260793149471283,0.776960015296936,0.5702407360076904,0.7488011717796326,-0.08060421049594879,0.9887157082557678,0.5398970246315002,0.8669655919075012,0.18080370128154755,0.6912131905555725,0.54459547996521,0.917083203792572,0.023402860388159752,0.9697844386100769,0.5416215658187866,0.6417683362960815,0.011935029178857803,0.5351603627204895,0.5351101160049438,0.683660626411438,-0.11566317081451416,0.9742954969406128,177.08498654951845,0.4655260890722275,0.6978671848773956,103.85670055515203,95.34057332838807,0.605918574919729,0.006704667870665209,0.1812879219935681,0.6672182653266536,0.9436142465456533,150.08829194039552,0.45744031148083786,21,1761939701.9995508
0.5188933610916138,0.3672386109828949,-0.23349957168102264,0.999994695186615,0.4964926838874817,0.447969526052475,0.007543984800577164,0.9997278451919556,0.47088655829429626,0.463485449552536,-0.22732789814472198,0.9999301433563232,0.4745941758155823,0.6788882613182068,0.07589972019195557,0.9988974332809448,0.45821553468704224,0.7109382152557373,-0.07585041224956512,0.9989185929298401,0.5710951089859009,0.7009076476097107,0.12397672981023788,0.7676162719726562,0.5704926252365112,0.7436909079551697,-0.09252619743347168,0.9889354705810547,0.5410215258598328,0.8700750470161438,0.1827985793352127,0.6900504231452942,0.5447425246238708,0.9149512648582458,0.022261137142777443,0.9694104790687561,0.5438920855522156,0.6420117020606995,0.008240440860390663,0.4974539875984192,0.5383161306381226,0.6811728477478027,-0.1344994604587555,0.9703122973442078,175.86670369970804,0.46640485525131226,0.694913238286972,100.52564518297453,91.87678164402533,0.6240229013081426,0.021213187262231585,-0.07130750326616825,0.3502318888416436,-6.097587942219689,148.7864095569272,0.6192406319814328,22,1761939702.0409763
0.5276855230331421,0.3592638671398163,-0.227823406457901,0.9999935626983643,0.5021847486495972,0.4390788972377777,-0.0012620302150025964,0.9996991753578186,0.477241188287735,0.4612314999103546,-0.2249719202518463,0.9999260902404785,0.477916955947876,0.6684152483940125,0.07536233961582184,0.9988678097724915,0.4610539376735687,0.7013930082321167,-0.07528924942016602,0.9989439845085144,0.5711261034011841,0.6969122886657715,0.1371137797832489,0.7697693705558777,0.5721962451934814,0.7399824261665344,-0.08916270732879639,0.9894648790359497,0.5411077737808228,0.8680270910263062,0.2127688229084015,0.6958571076393127,0.5459933280944824,0.913130521774292,0.021581556648015976,0.9704152345657349,0.5455090999603271,0.6392849683761597,-0.00888169463723898,0.46878424286842346,0.5451544523239136,0.6778856515884399,-0.11866165697574615,0.9652665257453918,175.0751807536734,0.46948544681072235,0.6849041283130646,107.98231438633117,95.21938045646704,0.6336965324164775,0.07710448032844602,-0.2505191643244598,1.398909600200478,-4.485509269311639,138.3914290750596,0.7195429946943431,23,1761939702.0809298
0.532957136631012,0.34665021300315857,-0.20934899151325226,0.999991238117218,0.5112478137016296,0.4232848584651947,0.0014604697935283184,0.9996315240859985,0.48221296072006226,0.4398702383041382,-0.21500253677368164,0.9999193549156189,0.4820457398891449,0.6574237942695618,0.07408762723207474,0.998842716217041,0.46255773305892944,0.683727502822876,-0.07401098310947418,0.9989217519760132,0.5751025080680847,0.6946837306022644,0.1201036125421524,0.7676977515220642,0.5719051361083984,0.7347342371940613,-0.0894656702876091,0.9895187616348267,0.5466187596321106,0.8636797666549683,0.17209409177303314,0.6965291500091553,0.5448384284973145,0.9047507643699646,0.02242145501077175,0.967858076095581,0.544967532157898,0.63676917552948,-0.01671195961534977,0.4287208020687103,0.5470366477966309,0.6593626737594604,-0.09673374146223068,0.9620527029037476,174.16390913330602,0.47230173647403717,0.6705756485462189,107.79935245490093,99.1761617542364,0.6189886946382143,0.08837100128677021,-0.4496064877158333,0.3535267522636904,-6.247065541862909,150.2639925995559,0.8794804937558632,24,1761939702.1127987
0.5354880094528198,0.33998236060142517,-0.1918921172618866,0.9999910593032837,0.5096519589424133,0.41746601462364197,0.017085283994674683,0.9996329545974731,0.48397865891456604,0.437003493309021,-0.2013939619064331,0.9999181628227234,0.48097676038742065,0.6514444351196289,0.07335386425256729,0.9988803863525391,0.461370050907135,0.6792359948158264,-0.07327060401439667,0.9989524483680725,0.5739909410476685,0.6933496594429016,0.12125507742166519,0.7729015946388245,0.5702624917030334,0.7333911657333374,-0.08705074340105057,0.9900146722793579,0.5383931994438171,0.8580764532089233,0.17356392741203308,0.7037897109985352,0.5411653518676758,0.8996873497962952,0.032323163002729416,0.9673168063163757,0.5448942184448242,0.6280257105827332,-0.013378049246966839,0.40306249260902405,0.5468553304672241,0.6574302911758423,-0.07495264708995819,0.9607782959938049,173.8534274546247,0.47117340564727783,0.6653402149677277,107.85312198849967,99.53534005603457,0.6142956926536466,-0.031005139611368072,-0.1438632581663806,-3.280309131891305,8.401446891810608,142.7287275905924,0.792678185124138,25,1761939702.1491904
0.5372921228408813,0.3372281491756439,-0.1763959378004074,0.9999911189079285,0.508613646030426,0.41455507278442383,0.029389768838882446,0.999640703201294,0.4859394133090973,0.42978671193122864,-0.18655584752559662,0.9999195337295532,0.47790637612342834,0.650065541267395,0.07264018803834915,0.9989405274391174,0.46024441719055176,0.6758939623832703,-0.07256273925304413,0.9990078806877136,0.5670136213302612,0.694880485534668,0.12851189076900482,0.7806771993637085,0.5668073296546936,0.7325615882873535,-0.08260587602853775,0.9906619787216187,0.5344436764717102,0.8574833273887634,0.1849336326122284,0.717435896396637,0.5375413298606873,0.8970845341682434,0.03515766188502312,0.968294084072113,0.5408742427825928,0.6244537234306335,-0.009979304857552052,0.3810850977897644,0.5456467866897583,0.6556171774864197,-0.06390683352947235,0.9597512483596802,173.32051444450417,0.46907539665699005,0.6629797518253326,112.10783666405835,101.70177220876913,0.611318834896633,-0.05581362344762847,-0.06279572756910352,-0.6599835279798704,2.156650732924114,146.1083793584479,0.9120980062071102,26,1761939702.18678
0.5412117838859558,0.33300235867500305,-0.17333140969276428,0.9999910593032837,0.5062395334243774,0.41245147585868835,0.034412629902362823,0.9996240735054016,0.4884551465511322,0.4242066740989685,-0.19025668501853943,0.9999223947525024,0.4732734262943268,0.6496404409408569,0.0726870521903038,0.9989959597587585,0.4591861367225647,0.6708657145500183,-0.07260964810848236,0.9990675449371338,0.5621352195739746,0.6988964080810547,0.13706834614276886,0.786048412322998,0.5658192038536072,0.7302798628807068,-0.07531432807445526,0.9913041591644287,0.5289039611816406,0.8530979752540588,0.20318086445331573,0.7287216186523438,0.5357280969619751,0.8954935073852539,0.04151025041937828,0.9695632457733154,0.5371288061141968,0.6238417029380798,-0.013058030977845192,0.35018327832221985,0.5455754399299622,0.6548594832420349,-0.06848113238811493,0.9582385420799255,172.67055437522603,0.46622978150844574,0.6602530777454376,115.62873472653666,104.58813101385047,0.6168488708259698,-0.07100923953784462,-0.06804119417903166,-0.37919011761912613,-0.13089492975980793,146.53592759025832,0.9827989065431074,27,1761939702.2268538
0.5455033183097839,0.3208511173725128,-0.15863153338432312,0.999991238117218,0.505189061164856,0.4043487012386322,0.041612107306718826,0.9996371865272522,0.49506503343582153,0.4149782061576843,-0.18175208568572998,0.9999253153800964,0.4713699221611023,0.6440699696540833,0.0727231577038765,0.9990485906600952,0.45958632230758667,0.6653282642364502,-0.07264424860477448,0.9991180896759033,0.5560475587844849,0.6982226967811584,0.14411048591136932,0.7900360822677612,0.5659860372543335,0.7267666459083557,-0.06492387503385544,0.9918758273124695,0.5271233320236206,0.8450391888618469,0.21548935770988464,0.7377551198005676,0.5346319079399109,0.8925461769104004,0.04611166566610336,0.9707117676734924,0.5348241329193115,0.6201179027557373,-0.008184114471077919,0.32756349444389343,0.5451759696006775,0.6495395302772522,-0.059271931648254395,0.955208957195282,171.95153040078935,0.4654781222343445,0.6546991169452667,121.22671873373798,108.05444962925414,0.6198586766222061,-0.024942739938447905,-0.18430026029098792,1.5286510244368776,-3.857891136891244,133.60476839172185,1.1495925811294032,28,1761939702.2569892
0.5514736771583557,0.3144441545009613,-0.1672942191362381,0.9999915957450867,0.5098128914833069,0.39973950386047363,0.03776733577251434,0.9996470808982849,0.49996742606163025,0.40969735383987427,-0.18780043721199036,0.9999291896820068,0.47143062949180603,0.6402775645256042,0.07274933159351349,0.9991087317466736,0.46231287717819214,0.6601393222808838,-0.07267017662525177,0.9991815686225891,0.5574042201042175,0.6975746154785156,0.16171345114707947,0.7950633764266968,0.5662250518798828,0.7262556552886963,-0.06191525608301163,0.9924286603927612,0.5273372530937195,0.8422659039497375,0.24794316291809082,0.7477298378944397,0.5355674028396606,0.8911930322647095,0.04640510678291321,0.9719411730766296,0.534923255443573,0.6202559471130371,-0.007057932671159506,0.30298811197280884,0.5459563732147217,0.6492816209793091,-0.0445626899600029,0.9512489438056946,171.19668516200414,0.4668717533349991,0.650208443403244,124.98738598253632,111.09056773943692,0.6358539672816013,0.03677337925828065,-0.11849422792614261,1.6284870913863378,1.7364065601711185,134.6748477926899,1.252116712899519,29,1761939702.294887
0.5541138052940369,0.30854108929634094,-0.16830791532993317,0.9999916553497314,0.5149210691452026,0.39065733551979065,0.03717021271586418,0.9996402263641357,0.5032877922058105,0.39959853887557983,-0.18899279832839966,0.9999313354492188,0.4741816520690918,0.6341581344604492,0.07262192666530609,0.9991450309753418,0.46521392464637756,0.6541615128517151,-0.07253691554069519,0.9992266893386841,0.5583780407905579,0.6978378891944885,0.15550574660301208,0.8034052848815918,0.5662809014320374,0.7276870012283325,-0.05863414332270622,0.992961585521698,0.5289228558540344,0.8426551222801208,0.238418847322464,0.7588614821434021,0.5361653566360474,0.8915802240371704,0.051340918987989426,0.9733929634094238,0.5351954698562622,0.6203683018684387,-0.0028025908395648003,0.2787453532218933,0.5463765263557434,0.6482402086257935,-0.046067602932453156,0.9478265047073364,171.00811015207537,0.4696977883577347,0.6441598236560822,126.76770611939914,114.80971173185658,0.640749287222645,0.07844743146831858,-0.16790261949198534,1.1568230147372627,-1.3715192416721627,142.4545329261608,1.3229758815723587,30,1761939702.3309116
0.5557347536087036,0.3004928231239319,-0.16763439774513245,0.9999918341636658,0.5191347599029541,0.38333866000175476,0.03660701587796211,0.9996368288993835,0.5059035420417786,0.3919328451156616,-0.19010034203529358,0.9999337792396545,0.4777160584926605,0.6289936304092407,0.07255229353904724,0.9991874098777771,0.4667325019836426,0.647056519985199,-0.07246403396129608,0.9992810487747192,0.5589951872825623,0.69584059715271,0.163042813539505,0.8124678730964661,0.5663812756538391,0.7256059646606445,-0.06335859000682831,0.9934900999069214,0.5296702980995178,0.8325082659721375,0.24948087334632874,0.7718303203582764,0.5366339087486267,0.891990602016449,0.03245050460100174,0.9750869274139404,0.5379927158355713,0.6216655969619751,-0.0027775319758802652,0.2573390603065491,0.5478573441505432,0.6462610363960266,-0.04898980259895325,0.942802906036377,170.85783871780558,0.47222428023815155,0.6380250751972198,129.71056921646155,116.36780747072714,0.6413380383766157,0.06276728386286635,-0.15240955291776245,-0.3895521230017454,0.38490434705457255,146.9947256461317,1.3642108560457982,31,1761939702.3711634
0.5570929646492004,0.2834702730178833,-0.17147473990917206,0.9999922513961792,0.5207880735397339,0.36853286623954773,0.03579951450228691,0.9996387958526611,0.5090500116348267,0.3776521384716034,-0.1932595670223236,0.9999375343322754,0.4794558882713318,0.6171362400054932,0.07255880534648895,0.9992364645004272,0.46992334723472595,0.634972095489502,-0.07247556746006012,0.9993365406990051,0.5588719844818115,0.6930373907089233,0.17020311951637268,0.8169144988059998,0.5664650201797485,0.7199463844299316,-0.04773753508925438,0.9939247965812683,0.534280002117157,0.8262656927108765,0.2665732800960541,0.7819303870201111,0.5368984937667847,0.8900298476219177,0.06289418786764145,0.9764232039451599,0.5375952124595642,0.6186280250549316,-0.004512655548751354,0.23683983087539673,0.5498619079589844,0.6383519172668457,-0.05576051399111748,0.9375304579734802,170.96371520457342,0.47468961775302887,0.6260541677474976,135.96814719668657,122.26230180546679,0.6661477114553749,0.07221537419336815,-0.3506552574238065,0.27675617415974113,-5.807070085429774,142.156451484471,1.4855630326307434,32,1761939702.405302
0.5584734678268433,0.26748666167259216,-0.17134606838226318,0.9999923706054688,0.5270922183990479,0.3588678538799286,0.035367242991924286,0.9996232390403748,0.5103388428688049,0.3635459542274475,-0.18717321753501892,0.9999393820762634,0.4837103486061096,0.6110824942588806,0.07222778350114822,0.9992678165435791,0.472867876291275,0.6288825869560242,-0.07216350734233856,0.9993801116943359,0.5582960844039917,0.6929657459259033,0.1724037081003189,0.8196583986282349,0.5671390295028687,0.7178669571876526,-0.04433441907167435,0.9943211674690247,0.534636914730072,0.8282527327537537,0.27210021018981934,0.7894981503486633,0.5387794971466064,0.8895583152770996,0.06142878532409668,0.9775639176368713,0.5446407198905945,0.6136245131492615,-0.002031644806265831,0.21841466426849365,0.552050769329071,0.6331122517585754,-0.05793986842036247,0.9310091137886047,171.12091323901438,0.4782891124486923,0.6199825406074524,139.59426747841368,125.15700788040843,0.6815928053427152,0.11090328433641125,-0.18707164422504793,1.192005173432989,5.040140770096494,164.39849665483666,1.5542434687551532,33,1761939702.4377582
0.5612559914588928,0.259325236082077,-0.17928126454353333,0.999992311000824,0.5311670899391174,0.35063278675079346,0.022466186434030533,0.9996153712272644,0.5121069550514221,0.3547725975513458,-0.18820127844810486,0.9999399185180664,0.4893032908439636,0.6046561598777771,0.07048375904560089,0.9992604851722717,0.4755083918571472,0.6226375699043274,-0.07046043127775192,0.999405026435852,0.5572575330734253,0.6938022375106812,0.17476728558540344,0.8201727867126465,0.5678585767745972,0.7179720401763916,-0.039675138890743256,0.9945993423461914,0.5349336266517639,0.83013916015625,0.28120890259742737,0.7938600182533264,0.5413437485694885,0.8896530270576477,0.05922969430685043,0.9781152606010437,0.5495229959487915,0.609410285949707,-0.0018801480764523149,0.20765627920627594,0.5533405542373657,0.6326943039894104,-0.07586830854415894,0.9288375377655029,171.4500043227847,0.4824058413505554,0.6136468648910522,144.49433676582723,128.51963678717988,0.695248450684836,0.1373947665767508,-0.2114515448823534,0.8841463952208118,-0.8136729038579406,167.74583795087074,1.6064943103133182,34,1761939702.467721
0.5612130165100098,0.2543661892414093,-0.18921315670013428,0.9999920725822449,0.5302766561508179,0.3470102846622467,0.02253868617117405,0.9995710849761963,0.5130062699317932,0.3504430651664734,-0.18950943648815155,0.9999405145645142,0.48976030945777893,0.604892373085022,0.07055871188640594,0.9992476105690002,0.4784841537475586,0.6202675104141235,-0.07053094357252121,0.9994232654571533,0.5574103593826294,0.6995297074317932,0.17274698615074158,0.8196234703063965,0.5697225332260132,0.7255522012710571,-0.042299989610910416,0.9948933720588684,0.5344794988632202,0.8412957191467285,0.2770348787307739,0.7995985746383667,0.5424630641937256,0.8913393616676331,0.059202890843153,0.9787634611129761,0.5487971305847168,0.60346519947052,-0.01055429968982935,0.19029834866523743,0.5535510778427124,0.6320599317550659,-0.07566765695810318,0.9232529401779175,171.9069491710965,0.48412223160266876,0.6125799417495728,145.03696603592815,129.72433471442403,0.7090048170336509,0.04025150683246483,-0.02502068749580659,-2.278131432237255,4.372037723144403,168.75801966957877,1.4950185326621654,35,1761939702.5103626
0.5614224076271057,0.25015395879745483,-0.1954650729894638,0.9999910593032837,0.5310289859771729,0.3370361328125,0.020236225798726082,0.9995124936103821,0.5139738917350769,0.34166666865348816,-0.19774368405342102,0.9999402761459351,0.4939681589603424,0.5985743403434753,0.07060319185256958,0.9992040395736694,0.4801650047302246,0.6136341691017151,-0.07057123631238937,0.9994347095489502,0.5575071573257446,0.7025035619735718,0.17380602657794952,0.8224748373031616,0.5700988173484802,0.7292337417602539,-0.04459068551659584,0.9951976537704468,0.5347081422805786,0.8447842001914978,0.2818152904510498,0.8085823655128479,0.5420470833778381,0.8958732485771179,0.054863572120666504,0.9798168540000916,0.5477005839347839,0.6014642715454102,-0.014867235906422138,0.17473208904266357,0.5534860491752625,0.628038763999939,-0.088809072971344,0.9194328188896179,172.43325558881537,0.4870665818452835,0.6061042547225952,148.3873852923181,131.49355625528747,0.7193757848086062,0.09009695846617397,-0.19815567341995638,1.5252681289647751,-5.297921222169894,164.8101077956725,1.3936260161599552,36,1761939702.5430424
0.5619493722915649,0.23757915198802948,-0.19543211162090302,0.9999896883964539,0.5300961136817932,0.32574665546417236,0.023480774834752083,0.9994780421257019,0.5150045156478882,0.33233150839805603,-0.19956274330615997,0.9999386072158813,0.49499526619911194,0.5923286080360413,0.0708843246102333,0.9992002248764038,0.4837040901184082,0.6061913371086121,-0.07085701823234558,0.9994378685951233,0.5539408922195435,0.7089323401451111,0.17192192375659943,0.8184342384338379,0.5714025497436523,0.729035496711731,-0.035038795322179794,0.9953974485397339,0.5346254706382751,0.852331817150116,0.2747748792171478,0.8135586977005005,0.5419554710388184,0.8949371576309204,0.07255566120147705,0.98015296459198,0.5400792360305786,0.5929034352302551,-0.017321523278951645,0.15941192209720612,0.5537723898887634,0.6217429041862488,-0.08898444473743439,0.9104981422424316,172.99547079137454,0.48934967815876007,0.5992599725723267,152.35396388227394,134.27656965968035,0.7357710313581637,0.06428959859282583,-0.1927278098166511,-0.7267081976369649,0.15284294850519778,156.42711700336602,1.361672376884489,37,1761939702.578555
0.5630143880844116,0.22405439615249634,-0.20285439491271973,0.9999885559082031,0.5312604308128357,0.31716540455818176,0.02464679628610611,0.9994099140167236,0.5165778398513794,0.3254079520702362,-0.20579493045806885,0.9999364018440247,0.49760180711746216,0.5846759080886841,0.07246039062738419,0.999140739440918,0.48630374670028687,0.5978913307189941,-0.0724371075630188,0.9994086623191833,0.5506085157394409,0.716008186340332,0.16769717633724213,0.8177175521850586,0.5713193416595459,0.7291135191917419,-0.028459861874580383,0.9956058263778687,0.5342365503311157,0.8604005575180054,0.2719866633415222,0.8189491629600525,0.5399173498153687,0.8964399695396423,0.08575814217329025,0.980376660823822,0.5335690379142761,0.5871614813804626,-0.021053172647953033,0.14524532854557037,0.5540298819541931,0.615906834602356,-0.10177502781152725,0.9056302309036255,173.24788325997235,0.4919527769088745,0.5912836194038391,156.64939427021278,136.89055413460392,0.7580123924694411,0.06846417575388937,-0.2097862961128216,0.10979567503563258,-0.44865574301589023,150.69091444400124,1.3381776216135859,38,1761939702.6165764
0.563966691493988,0.21576866507530212,-0.20644021034240723,0.9999884366989136,0.5315380692481995,0.30981746315956116,0.024649405851960182,0.9993698596954346,0.5175329446792603,0.31814849376678467,-0.2082766741514206,0.9999375343322754,0.5015298128128052,0.5821794271469116,0.07226391136646271,0.9991050958633423,0.49096614122390747,0.5954487919807434,-0.0722467452287674,0.9993996620178223,0.549601674079895,0.7156683206558228,0.16186463832855225,0.8213263750076294,0.5716997385025024,0.7300465703010559,-0.024347759783267975,0.9958294034004211,0.5342422127723694,0.866894543170929,0.26553887128829956,0.8280736207962036,0.5388566255569458,0.8992365598678589,0.09508088231086731,0.9807730317115784,0.5318806767463684,0.5816346406936646,-0.017625287175178528,0.13252252340316772,0.5565940141677856,0.6156650185585022,-0.10820677131414413,0.9065782427787781,174.12341399380026,0.4962479770183563,0.5888141095638275,158.55251842074497,138.67614779871198,0.7717593351455473,0.1422858056770973,-0.08180671173803845,2.44546699159201,4.239541303974998,149.25345357566417,1.1736450485739862,39,1761939702.6467636
0.5637128949165344,0.20394840836524963,-0.22974494099617004,0.9999884963035583,0.5324261784553528,0.2955780327320099,0.009188907220959663,0.9992837309837341,0.5176058411598206,0.3095118999481201,-0.21973523497581482,0.9999383687973022,0.5080301761627197,0.5754936933517456,0.07187525928020477,0.9990531802177429,0.4966716170310974,0.5896251797676086,-0.07188490033149719,0.9993969798088074,0.5501520037651062,0.7154572606086731,0.1654299795627594,0.8254296779632568,0.5716484785079956,0.7302394509315491,-0.015162788331508636,0.9959511756896973,0.5326091051101685,0.8639069199562073,0.27013009786605835,0.8369578123092651,0.5389013290405273,0.9006927609443665,0.1074732318520546,0.9806913137435913,0.5323308706283569,0.5777897238731384,-0.017348598688840866,0.12113060057163239,0.5572033524513245,0.6092361211776733,-0.12707285583019257,0.9087902903556824,175.3724163848586,0.5023508965969086,0.5825594365596771,160.38002014926033,142.3659401191949,0.7975735442170977,0.17717230304959924,-0.18157781807610848,1.012781014932892,-2.896429562965936,136.7658256577159,0.9013398362903573,40,1761939702.6812098
0.563229501247406,0.1879115253686905,-0.2363557517528534,0.9999893307685852,0.5323877930641174,0.2837372124195099,0.004500863142311573,0.9992538690567017,0.5184265375137329,0.2953169047832489,-0.22208723425865173,0.9999411106109619,0.5116692781448364,0.5658645033836365,0.0707467645406723,0.9990636110305786,0.501189112663269,0.5787544846534729,-0.07079099118709564,0.9994162321090698,0.550559401512146,0.7154780030250549,0.16451464593410492,0.8362358808517456,0.5703848600387573,0.7302906513214111,-0.01080905832350254,0.9962215423583984,0.5325285196304321,0.8645219802856445,0.26667121052742004,0.8492268919944763,0.5384476780891418,0.9013805985450745,0.1063331589102745,0.9816036224365234,0.5324724912643433,0.5717238783836365,-0.01690957322716713,0.11119981110095978,0.5570981502532959,0.5985192060470581,-0.12564672529697418,0.9124791026115417,176.16054829640535,0.5064291954040527,0.5723094940185547,161.72484642016573,145.8536202750053,0.8140385085790389,0.10520905730470456,-0.26442074089564355,-1.8564567245892645,-2.1371229099108,140.327135857315,0.7595735698449905,41,1761939702.7199736
0.5626245141029358,0.17337454855442047,-0.23975145816802979,0.9999901652336121,0.5315728783607483,0.2742001712322235,0.004270996432751417,0.9992550611495972,0.5176731944084167,0.2861063778400421,-0.2223944365978241,0.9999445080757141,0.5116515755653381,0.5613207817077637,0.07069762796163559,0.9990977048873901,0.5016074180603027,0.5744724869728088,-0.07075261324644089,0.9994415640830994,0.5472992062568665,0.7178906202316284,0.16427822411060333,0.8479610085487366,0.5677894949913025,0.7315543293952942,-0.009430923499166965,0.9965143203735352,0.5313175320625305,0.8736562132835388,0.2655457854270935,0.8616856932640076,0.5382073521614075,0.9059608578681946,0.104648157954216,0.9827556610107422,0.5329515337944031,0.5624556541442871,-0.016100632026791573,0.10293376445770264,0.5568235516548157,0.5935823917388916,-0.12534871697425842,0.9175719022750854,176.42176555363378,0.5066294968128204,0.5678966343402863,163.87541639809683,148.27467330797404,0.8333967489548211,0.004769508075733061,-0.10507749297453803,-2.391631911716325,3.79422647323787,139.41726487802276,0.7897823740192562,42,1761939702.7619698
0.5601471662521362,0.16097548604011536,-0.2312416136264801,0.9999908804893494,0.5309921503067017,0.26695120334625244,0.00771404430270195,0.9992205500602722,0.5170651078224182,0.27615419030189514,-0.21975259482860565,0.9999471306800842,0.509511411190033,0.5545090436935425,0.07057370990514755,0.9990973472595215,0.5009104609489441,0.5676162242889404,-0.07064441591501236,0.9994650483131409,0.5447645783424377,0.7176341414451599,0.17129169404506683,0.858862042427063,0.5647134780883789,0.7314949631690979,-0.01574321836233139,0.9967795610427856,0.5301202535629272,0.8713306188583374,0.27650368213653564,0.8732848763465881,0.5371981859207153,0.9106879234313965,0.08663713186979294,0.9839876890182495,0.5335392951965332,0.5540867447853088,-0.0015895047690719366,0.09572014212608337,0.5566006898880005,0.5845924615859985,-0.11992780864238739,0.9212157130241394,176.2810952855164,0.5052109360694885,0.5610626339912415,164.8386118177387,150.03445063491355,0.839085635129713,-0.03833756451477799,-0.18469348634316385,-1.1649978220885124,-2.1516761242163236,146.54327979448104,0.8926456980361465,43,1761939702.7989717
0.5591572523117065,0.14762648940086365,-0.24042704701423645,0.9999915361404419,0.5306180119514465,0.2560489773750305,0.006497334688901901,0.9991791248321533,0.5165764093399048,0.2640381455421448,-0.2224084436893463,0.9999501705169678,0.5134664177894592,0.5468453168869019,0.07117146998643875,0.9991020560264587,0.5047808289527893,0.5601273775100708,-0.0712842345237732,0.999489963054657,0.5445492267608643,0.7144649028778076,0.17994455993175507,0.8679478764533997,0.563772976398468,0.7314537763595581,-0.018970387056469917,0.9970065951347351,0.5294125080108643,0.8682343363761902,0.28957921266555786,0.8832972645759583,0.5369735956192017,0.9114850163459778,0.07489894330501556,0.9849866628646851,0.5362640023231506,0.5457343459129333,0.0019654524512588978,0.0892769992351532,0.5564547181129456,0.5751805901527405,-0.13926468789577484,0.9256385564804077,177.1762674029905,0.5091236233711243,0.5534863471984863,166.33875837138635,152.22167455173752,0.8545354859540178,0.12399978843494752,-0.2401055558493959,5.144749853237667,-1.7561037634269547,150.36167650058388,0.6902357253671473,44,1761939702.8305256
0.5558797717094421,0.13687920570373535,-0.25330501794815063,0.9999921321868896,0.5303505659103394,0.2469424158334732,0.006710573099553585,0.9991693496704102,0.5160551071166992,0.2556537091732025,-0.23059287667274475,0.9999530911445618,0.5163729190826416,0.5410534143447876,0.07322559505701065,0.9991137981414795,0.5087803602218628,0.5532795190811157,-0.07339023053646088,0.999509871006012,0.5439632534980774,0.7122108340263367,0.18227842450141907,0.8758050203323364,0.5632585883140564,0.7307948470115662,-0.01816561631858349,0.9971855878829956,0.5284959673881531,0.8669021725654602,0.2904646396636963,0.8919540643692017,0.5363109707832336,0.9127398729324341,0.0754128098487854,0.9858284592628479,0.5374219417572021,0.5375356078147888,0.00038578169187530875,0.08382169157266617,0.5563211441040039,0.567782998085022,-0.15002241730690002,0.9288974404335022,177.9430900853355,0.5125766396522522,0.5471664667129517,167.3264610822171,154.2121445515866,0.8705062433371529,0.10107051138901295,-0.184984228450201,-0.671144752336922,1.6134128237756313,148.64292021989095,0.501035952612968,45,1761939702.86469
0.5540773868560791,0.12704220414161682,-0.25372201204299927,0.9999924302101135,0.5302812457084656,0.24120250344276428,0.003086057724431157,0.9990600347518921,0.5152626037597656,0.24934899806976318,-0.2294841706752777,0.9999546408653259,0.5198692083358765,0.5363038182258606,0.07327056676149368,0.9990045428276062,0.5126003623008728,0.548943817615509,-0.0734327957034111,0.9995009303092957,0.5446242690086365,0.7027493119239807,0.18237292766571045,0.8810864090919495,0.560104250907898,0.7307217717170715,-0.004311589989811182,0.9971928000450134,0.5267531275749207,0.8485414981842041,0.29236072301864624,0.8971601724624634,0.5343747735023499,0.9119722247123718,0.09358943998813629,0.9859409332275391,0.5411251783370972,0.5306731462478638,0.002027180278673768,0.07850915193557739,0.5564048290252686,0.5630759596824646,-0.14726872742176056,0.932418942451477,178.74056631463625,0.5162347853183746,0.5426238179206848,166.76277983453778,157.84209283654127,0.8760271086284107,0.10613551783293212,-0.13179802717135664,0.14695343783899156,1.5431165211855093,151.52346613167103,0.29985076996587684,46,1761939702.8991568
0.5520286560058594,0.11982540786266327,-0.25530460476875305,0.9999927878379822,0.530207633972168,0.2359933853149414,0.0008657340076752007,0.9989338517189026,0.5121831297874451,0.24110619723796844,-0.2280920296907425,0.9999569654464722,0.5247794389724731,0.5329893827438354,0.07322504371404648,0.9989513754844666,0.5146222710609436,0.5431769490242004,-0.07339676469564438,0.9995130896568298,0.5450701713562012,0.6984177231788635,0.18512530624866486,0.8871111869812012,0.5559123754501343,0.7306753993034363,-0.003921359311789274,0.9972870349884033,0.5275447964668274,0.8426479697227478,0.2977096438407898,0.9032301902770996,0.5342822074890137,0.9125925898551941,0.09146614372730255,0.9864690899848938,0.5424901247024536,0.52655428647995,0.007353208027780056,0.0739712044596672,0.5563303232192993,0.5576651096343994,-0.14709365367889404,0.9368000626564026,179.7141241066966,0.5197008550167084,0.5380831658840179,168.0668378906274,160.8695252946018,0.8815339913477602,0.08745405545228685,-0.11456735425577352,-0.4713608753315527,0.4347553153256087,164.16353749336653,0.07633404725134714,47,1761939702.9387898
0.5519756078720093,0.1169695109128952,-0.2989470064640045,0.9999929666519165,0.5317754149436951,0.23233218491077423,-0.007106175180524588,0.9988889694213867,0.5096384286880493,0.23917043209075928,-0.2708236575126648,0.999959409236908,0.5319017767906189,0.5324012637138367,0.0794328898191452,0.9989824295043945,0.5170077085494995,0.538657546043396,-0.07961173355579376,0.9995312690734863,0.5454457998275757,0.7013312578201294,0.18735550343990326,0.888119101524353,0.5494951009750366,0.7317491173744202,0.0038096464704722166,0.9971699714660645,0.5287012457847595,0.8638501763343811,0.3022378087043762,0.9066454172134399,0.533470869064331,0.9161626100540161,0.1177293062210083,0.9866319298744202,0.5445170998573303,0.5202527046203613,-0.014226888306438923,0.07202694565057755,0.5563149452209473,0.556079626083374,-0.20279636979103088,0.9407390356063843,-179.2837264185389,0.5244547426700592,0.5355294048786163,170.91193531404437,164.55714641661038,0.9257606135410171,0.10309210390255,-0.055380483113767504,0.3391244036933206,1.283517725779168,162.8337691417093,0.22872938473324897,48,1761939702.9849029
0.551391065120697,0.11380481719970703,-0.27866965532302856,0.9999933838844299,0.5351117849349976,0.23220975697040558,-0.0012748927110806108,0.9988864064216614,0.5082505941390991,0.23609237372875214,-0.25138190388679504,0.9999619126319885,0.538077712059021,0.5314566493034363,0.08011628687381744,0.9990246891975403,0.5175533294677734,0.5362827181816101,-0.08028627932071686,0.9995503425598145,0.5508671998977661,0.7019679546356201,0.1737741380929947,0.8896230459213257,0.5463000535964966,0.7331194281578064,-0.0018254572059959173,0.9970452189445496,0.531181275844574,0.8661308288574219,0.27513521909713745,0.9085682034492493,0.5332406759262085,0.9156145453453064,0.108820840716362,0.9865540862083435,0.5478025674819946,0.5203120112419128,0.006837383843958378,0.07613742351531982,0.5547226667404175,0.5504195094108582,-0.20435598492622375,0.9452827572822571,-178.82749284347932,0.5278155207633972,0.5338696837425232,169.97217893912241,165.30474859723896,0.9086867413298828,0.1077710115675436,-0.05322274211182214,0.15003984139478205,0.06919288451129195,171.77521834807413,0.37464651458293946,49,1761939703.0160873
0.5510531067848206,0.11292184144258499,-0.28883621096611023,0.999993622303009,0.5389123558998108,0.23129667341709137,-0.0027773180045187473,0.998889684677124,0.5077192187309265,0.2330450862646103,-0.2480604648590088,0.9999645948410034,0.543910801410675,0.5297425389289856,0.07964245975017548,0.999067485332489,0.5181297063827515,0.533077597618103,-0.07981559634208679,0.9995690584182739,0.5527974367141724,0.7096056938171387,0.16502968966960907,0.8919668197631836,0.5431597232818604,0.7380850315093994,0.001759819919243455,0.9968552589416504,0.531277060508728,0.8767351508140564,0.27065178751945496,0.9113538265228271,0.5332628488540649,0.9150102138519287,0.1073555126786232,0.9864391684532166,0.5528550148010254,0.5209083557128906,0.005627339240163565,0.0860268771648407,0.5537142753601074,0.54666668176651,-0.22472313046455383,0.9499672055244446,-178.5251399808789,0.5310202538967133,0.5314100682735443,168.84383408996206,167.02644213439456,0.9174397848778403,0.09224726002484336,-0.07079927666028425,-0.44684642544284836,-0.5059351544663334,176.79185956247665,0.4904296840990679,50,1761939703.050828
0.5511585474014282,0.11265550553798676,-0.2762507200241089,0.999993622303009,0.5418762564659119,0.22961963713169098,-0.00045759539352729917,0.9988991618156433,0.5073302984237671,0.23017171025276184,-0.24751003086566925,0.9999669790267944,0.549505352973938,0.5282137989997864,0.08086537569761276,0.9990862607955933,0.520199179649353,0.5320303440093994,-0.08105481415987015,0.9995807409286499,0.5557249784469604,0.7142442464828491,0.1664925515651703,0.8923043012619019,0.542539119720459,0.7405349016189575,0.00021588879462797195,0.9967028498649597,0.5323541164398193,0.8767804503440857,0.27355289459228516,0.9130399227142334,0.5326828360557556,0.9147698879241943,0.10424850136041641,0.9865145683288574,0.5589780807495117,0.5171874761581421,0.005075554829090834,0.10140696913003922,0.5536791086196899,0.544331431388855,-0.2220160961151123,0.9539016485214233,-178.04482264468808,0.5348522663116455,0.5301220715045929,167.81236968640692,167.23382468069477,0.9110377058230924,0.11270730339048421,-0.037882612811612495,0.6017716190083158,0.9681462420471887,179.0844437592445,0.6168674312617155,51,1761939703.0848277
0.5511930584907532,0.11241380870342255,-0.272063285112381,0.999993622303009,0.5448524355888367,0.22843395173549652,2.548058364482131e-05,0.9988938570022583,0.5074342489242554,0.22869199514389038,-0.23498275876045227,0.9999690055847168,0.5530545711517334,0.5296609997749329,0.08050501346588135,0.9990589618682861,0.5246217846870422,0.5337014198303223,-0.08068208396434784,0.9995846152305603,0.5569780468940735,0.7138119339942932,0.1682886779308319,0.8916247487068176,0.5430408716201782,0.7402600646018982,0.0013194801285862923,0.9965025186538696,0.5338602066040039,0.8706330060958862,0.2802664637565613,0.9131076335906982,0.5327471494674683,0.9144801497459412,0.10209120810031891,0.9865619540214539,0.5653051733970642,0.5144459009170532,-0.0006388736073859036,0.12617714703083038,0.5537041425704956,0.5422936081886292,-0.2240816056728363,0.9574790000915527,-177.60180813624308,0.5388381779193878,0.5316812098026276,167.20646608770966,168.632063306795,0.9074888610896548,0.13259303174024079,0.05186539346160557,0.6615071456013943,2.9855053035530004,179.60488294115436,0.7598612500287332,52,1761939703.114889
0.5528616309165955,0.11507150530815125,-0.2691496014595032,0.9999931454658508,0.545931875705719,0.22961139678955078,0.0006949444068595767,0.9987981915473938,0.507489800453186,0.2295297384262085,-0.23116466403007507,0.9999703168869019,0.5543312430381775,0.5313986539840698,0.0803227573633194,0.9990161061286926,0.527972936630249,0.5354408025741577,-0.08048883080482483,0.9995762705802917,0.5571610331535339,0.713714599609375,0.16879519820213318,0.8900319337844849,0.5442829132080078,0.7425065636634827,0.0005835349438712001,0.9962136149406433,0.5350991487503052,0.8705112934112549,0.2802831828594208,0.9129151105880737,0.5331754684448242,0.9141818284988403,0.10121965408325195,0.9860129952430725,0.5661783814430237,0.5165417790412903,-0.0004977918579243124,0.13636191189289093,0.5540453791618347,0.5417708158493042,-0.22535979747772217,0.9606988430023193,-177.2789110203199,0.5411520898342133,0.5334197282791138,167.97921811869583,168.35607870717874,0.9033360728492023,0.07511803405572755,0.056438660990712076,-1.8658483954190759,0.14846497128793762,-179.8782929247782,0.870706849418819,53,1761939703.1456926
0.555038332939148,0.11509949713945389,-0.2681664824485779,0.9999919533729553,0.54558265209198,0.22736509144306183,0.00657292827963829,0.9986308217048645,0.5087196826934814,0.22892150282859802,-0.22964546084403992,0.9999706745147705,0.5561506748199463,0.5318454504013062,0.08016873896121979,0.9988406300544739,0.5332361459732056,0.5357251167297363,-0.0803278461098671,0.9995223879814148,0.5586146116256714,0.7136470079421997,0.16896364092826843,0.8844342827796936,0.545131504535675,0.7421537637710571,0.0004368590598460287,0.9955921173095703,0.5364985466003418,0.8700451254844666,0.28300532698631287,0.9075061082839966,0.5332160592079163,0.9138739109039307,0.09613814204931259,0.9842653870582581,0.5671521425247192,0.5148038864135742,-0.004230906255543232,0.14223435521125793,0.5547055602073669,0.5401929020881653,-0.2283136397600174,0.9633013010025024,-176.71512730654388,0.5446934103965759,0.5337852835655212,167.62334244705482,169.8446915780478,0.9019107725035904,0.08871341030036253,0.009157503688086436,0.3405769598484002,-1.184437453034575,177.58231982842364,1.0308806127754224,54,1761939703.1856112
0.5554887056350708,0.11430122703313828,-0.2542685270309448,0.9999902248382568,0.5474122762680054,0.22644825279712677,0.018088608980178833,0.9984663724899292,0.508989155292511,0.2279277741909027,-0.2158633917570114,0.9999704957008362,0.5582671761512756,0.5317210555076599,0.08001327514648438,0.9987515211105347,0.5336715579032898,0.5361083745956421,-0.08016510307788849,0.9994782209396362,0.5586870312690735,0.7136301398277283,0.16570080816745758,0.8772717714309692,0.5455432534217834,0.743512749671936,-0.0019528635311871767,0.9945182204246521,0.5377523303031921,0.8719233274459839,0.27795782685279846,0.9019949436187744,0.5333258509635925,0.9136117696762085,0.0959971696138382,0.9814171195030212,0.568526029586792,0.5156662464141846,0.009840615093708038,0.1478341817855835,0.5559917688369751,0.5396100282669067,-0.21786129474639893,0.9655448198318481,-176.68456587103455,0.5459693670272827,0.533914715051651,168.10034442172574,168.5994108461181,0.8950451696442453,0.03571428571428571,0.0036228136323899394,-1.4834562809753842,-0.15491710081060292,177.7948571083898,1.0718824767930968,55,1761939703.221338
0.5564554929733276,0.11588793992996216,-0.26531559228897095,0.9999892711639404,0.5484269857406616,0.22838617861270905,0.016511620953679085,0.9983447790145874,0.5093964338302612,0.23035752773284912,-0.2216084748506546,0.9999707937240601,0.5584827661514282,0.532098114490509,0.08045338839292526,0.9986153244972229,0.5348672270774841,0.5370023846626282,-0.08060787618160248,0.9994354844093323,0.5584172010421753,0.7135118246078491,0.17444197833538055,0.8657577633857727,0.545098066329956,0.744975209236145,-0.00020249723456799984,0.9934414625167847,0.5375285148620605,0.8716833591461182,0.2927449643611908,0.8900156617164612,0.5334436893463135,0.9136196374893188,0.10064902156591415,0.978575587272644,0.570447564125061,0.5162361264228821,0.002163890516385436,0.15491141378879547,0.5566813945770264,0.5413320660591125,-0.24164362251758575,0.9678738713264465,-176.66878675570942,0.5466749966144562,0.5345502495765686,168.8407975319724,168.5443179906501,0.9040226600723857,0.016131911437666246,0.014529417215366502,-0.4476869072838384,0.24934380060661998,177.1085706193586,1.0916117593390458,56,1761939703.2650793
0.5577740669250488,0.11729653924703598,-0.2707999348640442,0.9999887943267822,0.5490788221359253,0.22944119572639465,0.010163871571421623,0.9982705116271973,0.510606050491333,0.23197685182094574,-0.22532334923744202,0.9999716281890869,0.561655580997467,0.5324978828430176,0.08038535714149475,0.9985480904579163,0.5355120897293091,0.5376212000846863,-0.08053980767726898,0.9994239807128906,0.5593869686126709,0.7133669257164001,0.1838078796863556,0.8571768999099731,0.5443620085716248,0.7448244690895081,0.009497453458607197,0.9926168322563171,0.5374178886413574,0.8685547113418579,0.30543938279151917,0.8805117607116699,0.5346695184707642,0.9133834838867188,0.11641533672809601,0.9765635132789612,0.5717326402664185,0.5169898867607117,0.004259143956005573,0.1621873527765274,0.5575160384178162,0.5425390601158142,-0.2468072474002838,0.9700799584388733,-176.47627049519193,0.5485838353633881,0.5350595414638519,169.8976913462365,169.7753689109299,0.9116482998658489,0.05080236808040813,0.013554436660828955,0.922729225224491,-0.02594840503451261,176.22921427909765,1.1837830672308705,57,1761939703.302653
0.5589125752449036,0.11778095364570618,-0.27080002427101135,0.9999882578849792,0.5511775612831116,0.23004937171936035,0.00970938429236412,0.9981450438499451,0.5117233991622925,0.2324696183204651,-0.2256436049938202,0.9999721050262451,0.5642688870429993,0.5326898097991943,0.07971711456775665,0.9984620213508606,0.5367981195449829,0.5382214188575745,-0.07987525314092636,0.99940425157547,0.5596572160720825,0.7132586240768433,0.1842324137687683,0.8478816747665405,0.5445205569267273,0.7452032566070557,0.010075844824314117,0.9914873242378235,0.5373077988624573,0.8648237586021423,0.30234473943710327,0.87117600440979,0.5355569124221802,0.9131074547767639,0.1170920878648758,0.9736605286598206,0.575279951095581,0.5176045894622803,0.013319763354957104,0.16711702942848206,0.5581713318824768,0.5428760051727295,-0.24220263957977295,0.9721660017967224,-176.41038887463085,0.5505335032939911,0.5354556143283844,170.48627778408544,169.8954430218268,0.9089164420047557,0.041027609285710705,0.008334713045048842,-0.20569399454955975,-0.10984064400207204,176.48968925460355,1.218776015546065,58,1761939703.350174
0.5605727434158325,0.11842568963766098,-0.2702839970588684,0.9999869465827942,0.5524575114250183,0.22938495874404907,0.009601562283933163,0.9980098605155945,0.5126434564590454,0.2331504374742508,-0.22627659142017365,0.9999725818634033,0.5659395456314087,0.5321426391601562,0.07963865995407104,0.9983174204826355,0.5371993184089661,0.5379357933998108,-0.07979656010866165,0.9993728399276733,0.5608963966369629,0.7115275859832764,0.18531645834445953,0.8371673226356506,0.5447338819503784,0.7434365153312683,0.007855875417590141,0.9901835322380066,0.537535548210144,0.8582726120948792,0.3025648891925812,0.8592056035995483,0.536634087562561,0.9125555157661438,0.11316148191690445,0.9704152345657349,0.5778544545173645,0.517376720905304,0.013088950887322426,0.17487038671970367,0.5585547685623169,0.5433546304702759,-0.2545328438282013,0.974169135093689,-176.4174227278404,0.5515694320201874,0.5350392162799835,170.0891828636138,170.2090121503745,0.9041280756548832,0.02518577771594848,-0.010123581307457772,-0.38515086843332275,-0.44876301508188077,174.59722940041527,1.208986046735274,59,1761939703.3913054
0.5619820356369019,0.1191362664103508,-0.2659759521484375,0.999986469745636,0.5546612739562988,0.2296331375837326,0.013504208996891975,0.9979031682014465,0.5139853358268738,0.23323173820972443,-0.2229650318622589,0.9999731183052063,0.5669979453086853,0.5335078239440918,0.07954572886228561,0.9982512593269348,0.537850022315979,0.5390676856040955,-0.07970121502876282,0.9993652105331421,0.5617185831069946,0.7115123271942139,0.18684932589530945,0.8314144611358643,0.544843316078186,0.7433949708938599,0.009110655635595322,0.9895370006561279,0.537452757358551,0.8570906519889832,0.30465957522392273,0.8537807464599609,0.5377477407455444,0.9124516248703003,0.11440974473953247,0.9690080285072327,0.5793969631195068,0.5176771283149719,0.017719220370054245,0.18056288361549377,0.5592347979545593,0.5447561144828796,-0.2505573630332947,0.9758819341659546,-176.60207213734594,0.5524239838123322,0.5362877547740936,170.13690999850704,170.73558999253484,0.9016105428717377,0.024171522214129642,0.03531567802325268,-0.028688839715011478,1.285277354049231,174.94420490559705,1.1542548509933188,60,1761939703.426659
0.5629564523696899,0.12065021693706512,-0.2663134038448334,0.9999863505363464,0.5549831390380859,0.2299463450908661,0.012147012166678905,0.9979007244110107,0.5139531493186951,0.23527242243289948,-0.2249738872051239,0.9999738931655884,0.5663708448410034,0.5343198776245117,0.07949142903089523,0.9982032179832458,0.5376058220863342,0.5402951836585999,-0.07964595407247543,0.9993535280227661,0.5624598264694214,0.7101792097091675,0.1931115686893463,0.8246367573738098,0.5449100136756897,0.7434686422348022,0.010786859318614006,0.9888995289802551,0.5374682545661926,0.8571020364761353,0.31362468004226685,0.8465222716331482,0.5376887917518616,0.9124030470848083,0.11820001900196075,0.9671669602394104,0.5795046091079712,0.5187101364135742,0.016407622024416924,0.1861075609922409,0.5593711733818054,0.5493320226669312,-0.2523770332336426,0.9775685667991638,-176.70910772259012,0.5519883334636688,0.5373075306415558,170.87293778245163,170.66242535265587,0.9039015871943361,-0.01431397125063648,0.033506325643335555,-1.2645008748677484,-0.0594490926677053,172.6038285988704,1.0877107815331282,61,1761939703.4570944
0.5633841753005981,0.1240272969007492,-0.2726294994354248,0.9999860525131226,0.5559620261192322,0.23018203675746918,0.006847859360277653,0.9978647828102112,0.5139744877815247,0.2371206283569336,-0.2282932996749878,0.9999744296073914,0.5670902132987976,0.5344047546386719,0.07866932451725006,0.9981938004493713,0.5385698080062866,0.54085373878479,-0.07883694022893906,0.9993333220481873,0.5622320175170898,0.7100843787193298,0.19250424206256866,0.8198189735412598,0.5450008511543274,0.7436899542808533,0.009616929106414318,0.9875380396842957,0.5372952818870544,0.8606021404266357,0.3112056851387024,0.8423364162445068,0.5378014445304871,0.9118063449859619,0.11824741214513779,0.963324248790741,0.5814530253410339,0.5182713270187378,0.012014802545309067,0.1903749406337738,0.5593202114105225,0.550558865070343,-0.25338834524154663,0.9792222380638123,-176.63716461179763,0.5528300106525421,0.537629246711731,171.92241579426133,169.9689707147561,0.9050398353119531,0.024576041101040058,0.009393752697603832,1.135545259643055,-0.7040604065311553,170.61647072419274,1.1115610579519193,62,1761939703.4913423
0.5642815828323364,0.12676489353179932,-0.2796497046947479,0.9999853372573853,0.5576706528663635,0.23030756413936615,-0.0007605092832818627,0.9978432059288025,0.5140385031700134,0.23716625571250916,-0.2337898463010788,0.9999750256538391,0.5690656900405884,0.5344530344009399,0.076790452003479,0.9981836080551147,0.5391632318496704,0.5410294532775879,-0.07696299254894257,0.9993199706077576,0.5637623071670532,0.7100807428359985,0.1818760335445404,0.8112470507621765,0.5451228618621826,0.7437687516212463,0.009064748883247375,0.9853594303131104,0.5370333194732666,0.8636366724967957,0.2989901900291443,0.8338214755058289,0.5384700894355774,0.9106559753417969,0.12018664926290512,0.9584536552429199,0.5830715894699097,0.517365038394928,0.005323379300534725,0.19725103676319122,0.5595104694366455,0.5512574911117554,-0.2670256793498993,0.9807136058807373,-176.56268458619124,0.5541144609451294,0.5377412438392639,170.9336795267956,168.78589158059927,0.9045649210716499,0.03974250684214021,0.003465331926790944,0.469269517057469,-0.18343279176068797,171.06657662349318,1.0939380621649752,63,1761939703.5236616
0.5643173456192017,0.13006728887557983,-0.2828044891357422,0.9999852180480957,0.5607683062553406,0.23140153288841248,-0.0002850886667147279,0.9977701902389526,0.514193594455719,0.23996560275554657,-0.23360590636730194,0.999975860118866,0.5694568753242493,0.5342374444007874,0.07708975672721863,0.9982065558433533,0.5393569469451904,0.5409531593322754,-0.07728028297424316,0.9993252158164978,0.564681887626648,0.7099419236183167,0.18433254957199097,0.8086419701576233,0.5457804203033447,0.7430907487869263,0.008649779483675957,0.9850372076034546,0.537022054195404,0.8636277318000793,0.3028787076473236,0.834221363067627,0.5381501913070679,0.9091619849205017,0.1210126131772995,0.9580827355384827,0.583324134349823,0.5130225419998169,0.005422557238489389,0.19906961917877197,0.559482216835022,0.5512727499008179,-0.26408085227012634,0.9820912480354309,-176.79120782208932,0.5544069111347198,0.5375953018665314,170.78788425168858,168.29155302951932,0.904170150533896,0.007453424640886663,-0.003719496633692244,-0.8229238669582101,-0.1831135015102744,169.58094683684064,0.9591936325031091,64,1761939703.5628986
