nose_x,nose_y,nose_z,nose_visibility,left_shoulder_x,left_shoulder_y,left_shoulder_z,left_shoulder_visibility,right_shoulder_x,right_shoulder_y,right_shoulder_z,right_shoulder_visibility,left_hip_x,left_hip_y,left_hip_z,left_hip_visibility,right_hip_x,right_hip_y,right_hip_z,right_hip_visibility,left_knee_x,left_knee_y,left_knee_z,left_knee_visibility,right_knee_x,right_knee_y,right_knee_z,right_knee_visibility,left_ankle_x,left_ankle_y,left_ankle_z,left_ankle_visibility,right_ankle_x,right_ankle_y,right_ankle_z,right_ankle_visibility,left_wrist_x,left_wrist_y,left_wrist_z,left_wrist_visibility,right_wrist_x,right_wrist_y,right_wrist_z,right_wrist_visibility,trunk_lateral_inclination,center_mass_x,center_mass_y,left_knee_angle,right_knee_angle,person_height,center_mass_velocity_x,center_mass_velocity_y,center_mass_acceleration_x,center_mass_acceleration_y,body_orientation,torso_leg_ratio,frame,timestamp
0.46714743971824646,0.35529667139053345,-0.21453742682933807,0.9999983310699463,0.4595143795013428,0.43800944089889526,0.00515780271962285,0.9999381303787231,0.4302074909210205,0.4591163694858551,-0.19264085590839386,0.9998390674591064,0.461550772190094,0.6303662061691284,0.06785189360380173,0.9999282360076904,0.44182270765304565,0.6556991934776306,-0.06797587126493454,0.9998475313186646,0.5558295249938965,0.6642880439758301,0.04855833947658539,0.5073492527008057,0.5423771739006042,0.6878374814987183,-0.13776010274887085,0.9408978819847107,0.5265722274780273,0.808953583240509,0.1294979304075241,0.45233994722366333,0.5275566577911377,0.8161080479621887,0.01698901690542698,0.8913928270339966,0.523095965385437,0.6136802434921265,0.038215089589357376,0.5998538136482239,0.5217938423156738,0.6362131834030151,-0.14014150202274323,0.9813506603240967,-177.98976845635494,0.4516867399215698,0.6430326998233795,91.95962341226374,71.32498456565135,0.5435724023118712,0.0,0.0,0.0,0.0,144.23842830116214,0.30970206763600855,0,1762115145.4359868
0.4676838517189026,0.35513097047805786,-0.22095870971679688,0.9999983906745911,0.45934954285621643,0.4364776313304901,0.018536876887083054,0.9999410510063171,0.43043071031570435,0.4592862129211426,-0.21488340198993683,0.9998537302017212,0.4686275124549866,0.6309423446655273,0.07862335443496704,0.9999277591705322,0.4530184864997864,0.6593309640884399,-0.07871704548597336,0.9998512864112854,0.5592533349990845,0.6580365896224976,0.10082020610570908,0.49166858196258545,0.5617116689682007,0.6829520463943481,-0.12473975121974945,0.9427360892295837,0.5265709161758423,0.812117874622345,0.16203182935714722,0.4375302493572235,0.5280429124832153,0.8160412311553955,0.010472132824361324,0.8923141360282898,0.5230019092559814,0.6059122085571289,0.01845805160701275,0.6046612858772278,0.5261865258216858,0.6362438797950745,-0.1661192774772644,0.9822673201560974,-175.38206873256618,0.4608229994773865,0.6451366543769836,99.0105548647164,73.1114158051811,0.5554881811869787,0.1360355067396066,0.031327100779927085,2.025518099704142,0.46644887913313887,141.73679102665352,0.48024447413145793,1,1762115145.5031476
0.4689015746116638,0.3550417125225067,-0.22161249816417694,0.9999984502792358,0.45937204360961914,0.4358465373516083,0.0302862711250782,0.9999412298202515,0.43189358711242676,0.4590928852558136,-0.21753838658332825,0.9998674392700195,0.4717828631401062,0.6334325075149536,0.08419211208820343,0.9999256134033203,0.4575904905796051,0.663571834564209,-0.0843038409948349,0.9998543858528137,0.5659329891204834,0.6580958366394043,0.11136480420827866,0.480019211769104,0.5667383074760437,0.6832393407821655,-0.12672877311706543,0.9454783201217651,0.5284730195999146,0.8126437664031982,0.16780701279640198,0.42648637294769287,0.5281868577003479,0.8160446882247925,0.011236878111958504,0.8913314938545227,0.5229817032814026,0.6019436120986938,0.02380547486245632,0.6001749634742737,0.5289727449417114,0.6368545293807983,-0.16673976182937622,0.9832660555839539,-174.5856786857366,0.46468667685985565,0.6485021710395813,96.12180028871832,71.26874953458882,0.5579383232506788,0.06475725177722988,0.05640781781345779,-1.1946607974526033,0.4203659226474671,139.7692970222352,0.5013288883787661,2,1762115145.5628116
0.46928852796554565,0.3549385070800781,-0.22356829047203064,0.9999985098838806,0.45939499139785767,0.4358014762401581,0.03285612165927887,0.9999402761459351,0.4323374330997467,0.4590229094028473,-0.21952779591083527,0.9998798966407776,0.4737665057182312,0.6365481615066528,0.08628571033477783,0.999922513961792,0.4602247178554535,0.6653311252593994,-0.08640655130147934,0.9998577237129211,0.5680834650993347,0.6648954153060913,0.11125071346759796,0.4743035137653351,0.5678600668907166,0.6834456324577332,-0.12750165164470673,0.9491759538650513,0.528633713722229,0.8125140070915222,0.1916668713092804,0.4259302318096161,0.5267032384872437,0.8160454034805298,0.011482035741209984,0.8962917327880859,0.5228295922279358,0.6015012860298157,0.02593154087662697,0.5962785482406616,0.5302115678787231,0.636848509311676,-0.16968609392642975,0.9842317700386047,-174.07301546066748,0.46699561178684235,0.6509396433830261,98.09806699182296,70.25836785281514,0.5657917980035487,0.036594939483141055,0.038632164058691715,-0.44635216959210516,-0.28173118515638546,139.36303054732596,0.5242469125632943,3,1762115145.625906
0.47259074449539185,0.354824960231781,-0.22678729891777039,0.9999984502792358,0.46005430817604065,0.43520206212997437,0.030537784099578857,0.999937891960144,0.43407565355300903,0.4590250253677368,-0.22842463850975037,0.9998903870582581,0.4772828221321106,0.6363058686256409,0.0882028117775917,0.9999152421951294,0.4607155919075012,0.6652852892875671,-0.0883127748966217,0.9998529553413391,0.5718963146209717,0.6648142337799072,0.1012098416686058,0.47260618209838867,0.5677541494369507,0.6834174394607544,-0.13754276931285858,0.9521724581718445,0.5301288366317749,0.8123663067817688,0.18706205487251282,0.42513009905815125,0.5262724161148071,0.8160814046859741,0.00482527632266283,0.9006235003471375,0.5251865386962891,0.6018050909042358,0.025606876239180565,0.6008930206298828,0.5330564975738525,0.638163149356842,-0.194309264421463,0.9851347804069519,-173.85358630365747,0.4689992070198059,0.650795578956604,94.49015775677705,67.58743523957934,0.5641764614090418,0.025100394859066375,-0.0018047926691218419,-0.1439999477153279,-0.5065811517557947,137.47853325198528,0.5269407089646329,4,1762115145.7057292
0.47721514105796814,0.35422345995903015,-0.2311183512210846,0.9999983310699463,0.4625125825405121,0.43440869450569153,0.039513763040304184,0.999930202960968,0.4369252622127533,0.4582729637622833,-0.23702511191368103,0.999899685382843,0.47987231612205505,0.6362112760543823,0.09382293373346329,0.9999001622200012,0.46284136176109314,0.6652495861053467,-0.09392362087965012,0.9998428821563721,0.5676530003547668,0.6603282690048218,0.10665103048086166,0.46798503398895264,0.5684359073638916,0.6811802983283997,-0.1459203064441681,0.9548283815383911,0.5302153825759888,0.810499906539917,0.19780048727989197,0.4221832752227783,0.5268402695655823,0.8157107830047607,-0.0017144279554486275,0.9048373699188232,0.5277566313743591,0.6019201278686523,0.02828187867999077,0.5985606908798218,0.5338916182518005,0.6378695964813232,-0.2102319449186325,0.9857944846153259,-173.95683247512412,0.4713568389415741,0.6507304310798645,95.22789381720382,65.97438715524383,0.567056249871249,0.028593476657943817,-0.0007901166741365102,0.04236426897612691,0.012306040697069285,136.99556035437521,0.5475509987776724,5,1762115145.7881827
0.48158565163612366,0.3539547920227051,-0.22904345393180847,0.9999982118606567,0.46556535363197327,0.43387162685394287,0.06283294409513474,0.9999193549156189,0.4401223063468933,0.45801395177841187,-0.22937504947185516,0.9999062418937683,0.47947970032691956,0.6382918953895569,0.09794627130031586,0.9998824000358582,0.46432018280029297,0.6655251979827881,-0.098024383187294,0.9998214244842529,0.5666687488555908,0.6820488572120667,0.09990569204092026,0.45689666271209717,0.56706702709198,0.6799991726875305,-0.15414205193519592,0.9568067193031311,0.509470522403717,0.8186173439025879,0.20875278115272522,0.42301231622695923,0.5278955698013306,0.8156536817550659,0.0017000859370455146,0.9082244634628296,0.5286241173744202,0.5997658967971802,0.050174348056316376,0.5884384512901306,0.5343576669692993,0.6367600560188293,-0.19301344454288483,0.9855393767356873,-174.71399866644578,0.47189994156360626,0.6519085466861725,93.84368162261792,64.17560850376023,0.5724062844486911,0.0071905273724183,0.015597922328809933,-0.2833690843034398,0.21697306963833077,136.5026369903959,0.3954711764730665,6,1762115145.863713
0.4878442883491516,0.35352185368537903,-0.2278699427843094,0.9999971389770508,0.46925657987594604,0.43171775341033936,0.05014774948358536,0.9998971223831177,0.44342976808547974,0.4577477276325226,-0.24323907494544983,0.9999117255210876,0.480975866317749,0.6381571292877197,0.09355656802654266,0.9998490214347839,0.4655308127403259,0.6652828454971313,-0.09362901002168655,0.9997867345809937,0.5631865859031677,0.6604872345924377,0.10129566490650177,0.4477717876434326,0.5666307806968689,0.6787787079811096,-0.15099886059761047,0.9584553241729736,0.5235260725021362,0.8177178502082825,0.1965029537677765,0.415772020816803,0.5278955698013306,0.8155378699302673,0.0033207826782017946,0.9095982909202576,0.5313602685928345,0.5965807437896729,0.024785958230495453,0.5742285251617432,0.5358234643936157,0.6364145278930664,-0.20865464210510254,0.9853159785270691,-175.32949892237855,0.4732533395290375,0.6517199873924255,93.51874253138872,63.58301883402181,0.5686316585299788,0.01755590829524157,-0.002445939593371724,0.13445688672093736,-0.2340600424184121,134.7755300466287,0.43139429620062236,7,1762115145.9408038
0.4888591766357422,0.3529285192489624,-0.23025444149971008,0.9999964833259583,0.4691448211669922,0.4309766888618469,0.04836473613977432,0.9998676180839539,0.44510799646377563,0.45623940229415894,-0.2411634624004364,0.9999157786369324,0.4801824688911438,0.6399381160736084,0.09494064003229141,0.9997944831848145,0.4663911461830139,0.6650947332382202,-0.09498468786478043,0.999735414981842,0.5633567571640015,0.6861724853515625,0.09799549728631973,0.4336152970790863,0.5671641230583191,0.6790551543235779,-0.1501556932926178,0.9600951671600342,0.5107599496841431,0.8195462822914124,0.20904365181922913,0.4098471999168396,0.5271952748298645,0.8155216574668884,0.0038090876769274473,0.912105917930603,0.5307126045227051,0.5955587029457092,0.03810042887926102,0.5598905682563782,0.5371543765068054,0.6354038715362549,-0.20799775421619415,0.984978437423706,-175.576614310892,0.47328680753707886,0.6525164246559143,97.0891673919432,64.04306907721248,0.5745601044120806,0.00044478629662136687,0.010584567222537318,-0.22740500645847356,0.17317406110878786,133.57556923089425,0.34915864721944495,8,1762115146.016049
0.4940040111541748,0.3528956174850464,-0.23018662631511688,0.9999954104423523,0.4730173945426941,0.4309166371822357,0.04532315954566002,0.9998294711112976,0.4477480351924896,0.45561331510543823,-0.24421007931232452,0.9999194741249084,0.482011616230011,0.6396077275276184,0.09329865127801895,0.999742329120636,0.46670669317245483,0.6649726629257202,-0.09333980083465576,0.9996864795684814,0.5631673336029053,0.6600967645645142,0.09976097196340561,0.42399948835372925,0.5672537088394165,0.6782496571540833,-0.14828070998191833,0.9616698026657104,0.5165953040122986,0.8191590905189514,0.1969384253025055,0.4021283686161041,0.5266765356063843,0.8151049017906189,0.0027032617945224047,0.9130621552467346,0.5316898226737976,0.5943071842193604,0.02801235392689705,0.5410552620887756,0.5372369885444641,0.6345936059951782,-0.21064403653144836,0.9845951795578003,-176.17462051327024,0.4743591547012329,0.6522901952266693,90.38163112950105,63.86286291899507,0.570248952495413,0.012926017570934674,-0.002726957906202132,0.15044811992946738,-0.16045643935260673,135.65666188264058,0.320740032972903,9,1762115146.0990093
0.5010040402412415,0.35384368896484375,-0.22955027222633362,0.9999949932098389,0.4771532118320465,0.430957168340683,0.04043572396039963,0.9998089075088501,0.4528569281101227,0.45623427629470825,-0.2424202263355255,0.9999234080314636,0.48278966546058655,0.6393633484840393,0.09220587462186813,0.9996836185455322,0.46826592087745667,0.6649150252342224,-0.09225386381149292,0.9996352195739746,0.5610324144363403,0.6697871685028076,0.10594093799591064,0.41829997301101685,0.5676804184913635,0.6783273220062256,-0.13615605235099792,0.963193953037262,0.507175087928772,0.8190460801124573,0.2021205723285675,0.4013771116733551,0.5282482504844666,0.8151048421859741,0.006146695464849472,0.9151349663734436,0.5316199064254761,0.5882733464241028,0.028479408472776413,0.5347418785095215,0.5382554531097412,0.6346059441566467,-0.21432073414325714,0.9846916198730469,-177.11140918945298,0.4755277931690216,0.6521391868591309,95.9931522686698,67.78612336743994,0.5711460135834354,0.01622732238628087,-0.0020968516188836655,0.04584081305775612,0.008749444882887482,133.86653392407626,0.22558805071571467,10,1762115146.171026
0.5095487236976624,0.35401472449302673,-0.22901511192321777,0.9999931454658508,0.4823954999446869,0.4304492473602295,0.0096434960141778,0.9997621774673462,0.45927485823631287,0.4564248323440552,-0.2489582747220993,0.9999254941940308,0.48527127504348755,0.6359972357749939,0.08700195699930191,0.9996055364608765,0.47118034958839417,0.6631337404251099,-0.08697964251041412,0.9995657801628113,0.5607062578201294,0.6595141291618347,0.10468269884586334,0.4074164927005768,0.5680445432662964,0.6785211563110352,-0.12235987186431885,0.9641838669776917,0.5203689336776733,0.8187711238861084,0.19669392704963684,0.38928332924842834,0.529011607170105,0.8150681257247925,0.011930717155337334,0.9145570993423462,0.5348540544509888,0.5858782529830933,0.028658729046583176,0.5159997344017029,0.5405488610267639,0.6345605254173279,-0.2173846960067749,0.984924852848053,-177.94656788258632,0.47822581231594086,0.6495654881000519,98.78698197203389,71.60575781535442,0.570628943749507,0.039807624659220824,-0.037973353267082934,0.34791295803219113,-0.5293358697354632,131.6720008544773,0.18622710763734499,11,1762115146.2388024
0.5189507007598877,0.3541559875011444,-0.2023271769285202,0.9999887347221375,0.4871256351470947,0.4307379722595215,0.005970655474811792,0.99974125623703,0.4662482738494873,0.4564390480518341,-0.24751806259155273,0.9999254941940308,0.48807376623153687,0.6324591040611267,0.0830756276845932,0.999553918838501,0.4721224308013916,0.6626976728439331,-0.0830136239528656,0.9995080232620239,0.5607199668884277,0.6462342143058777,0.10290374606847763,0.40471065044403076,0.5676752924919128,0.6786376237869263,-0.11900311708450317,0.9647346138954163,0.5302957892417908,0.8144395351409912,0.19479167461395264,0.38192760944366455,0.5304233431816101,0.8150454759597778,0.01259687077254057,0.9138453006744385,0.5376525521278381,0.5855766534805298,0.028135720640420914,0.5052144527435303,0.5406721830368042,0.6342172622680664,-0.21364867687225342,0.9853059649467468,-179.04198216633262,0.48009809851646423,0.6475783884525299,97.45925898374752,72.14357326324514,0.5530996568867387,0.022329590853126254,-0.023698899292829055,-0.2084496182784999,0.17024251784143374,129.08746267779915,0.10080491797131333,12,1762115146.3226502
0.5199745297431946,0.35442879796028137,-0.19446270167827606,0.9999847412109375,0.4878517985343933,0.43109986186027527,0.007776437792927027,0.9997187256813049,0.46667367219924927,0.45738622546195984,-0.2445414811372757,0.9999247193336487,0.4875272810459137,0.6319350004196167,0.08106018602848053,0.9994815587997437,0.47109395265579224,0.662802517414093,-0.08096928894519806,0.9994431734085083,0.5636107325553894,0.6407434940338135,0.1025768294930458,0.4015881419181824,0.5681259036064148,0.6786194443702698,-0.11752016842365265,0.9653841853141785,0.5333458185195923,0.808704137802124,0.18009865283966064,0.37851056456565857,0.5302927494049072,0.8160563707351685,0.00494720321148634,0.9155932664871216,0.5392264127731323,0.5869061946868896,0.02636042796075344,0.49032869935035706,0.5422400832176208,0.6341335773468018,-0.20678052306175232,0.9853014945983887,-179.42237254093985,0.47931061685085297,0.6473687589168549,93.24744028639948,72.36048062662704,0.5405743114447606,-0.009518085569294876,-0.002533737540235781,-0.38493456115771457,0.2558177916342686,128.85733989722297,0.060143301968377874,13,1762115146.4053855
0.5286222696304321,0.35721126198768616,-0.1716969758272171,0.9999783039093018,0.4925134778022766,0.43144655227661133,0.011540273204445839,0.9996945261955261,0.47183361649513245,0.45798540115356445,-0.231602281332016,0.9999232888221741,0.4873644709587097,0.6318973898887634,0.07861451059579849,0.9993736147880554,0.4705994129180908,0.6626220941543579,-0.07849486172199249,0.9993451833724976,0.5631587505340576,0.6806105971336365,0.09106486290693283,0.40274426341056824,0.5679599046707153,0.6786965727806091,-0.10448025166988373,0.9645869731903076,0.5056026577949524,0.8117207884788513,0.17271897196769714,0.3756601810455322,0.5302318334579468,0.8168591260910034,0.009734188206493855,0.915009081363678,0.5400878190994263,0.5873512029647827,0.03851322457194328,0.4709223210811615,0.5446063280105591,0.6340972185134888,-0.19801969826221466,0.985382616519928,179.0972302944139,0.47898194193840027,0.6472597420215607,101.70209039531713,76.32261418746828,0.5274128624599336,-0.003498498898600156,-0.0011604034067261525,0.06407400303326924,0.01461811586908053,127.92678311245737,0.06698989817485454,14,1762115146.499333
0.5398386716842651,0.3580665588378906,-0.14127330482006073,0.9999647736549377,0.49790939688682556,0.43220239877700806,0.013862920925021172,0.9996606707572937,0.4813985228538513,0.4575079679489136,-0.22051826119422913,0.9999202489852905,0.4878999590873718,0.6315010786056519,0.07406231015920639,0.9992436766624451,0.47116050124168396,0.6620028018951416,-0.07386989146471024,0.9992613196372986,0.5638386011123657,0.6596547365188599,0.09964969754219055,0.4047054052352905,0.5687731504440308,0.6790888905525208,-0.08973477780818939,0.9643376469612122,0.5103510022163391,0.8022918701171875,0.16730964183807373,0.3744332790374756,0.5301938056945801,0.8169299364089966,0.010699617676436901,0.9150068759918213,0.5437929630279541,0.5940824151039124,0.026596471667289734,0.4444969892501831,0.5480417609214783,0.6343375444412231,-0.16142207384109497,0.984777569770813,177.1294161294284,0.4795302301645279,0.6467519402503967,96.83585552368729,80.14386675885292,0.5072504913436899,0.005981806334813381,-0.005540100455979628,0.10342981519358281,-0.047782349328963546,123.12284441052812,0.21991627806208364,15,1762115146.5909922
0.5503564476966858,0.3581482768058777,-0.13609609007835388,0.9999660849571228,0.5036662817001343,0.43380844593048096,0.018650896847248077,0.9996742010116577,0.49027103185653687,0.45703232288360596,-0.2047898769378662,0.9999244213104248,0.48732978105545044,0.6315488815307617,0.07244362682104111,0.9992840886116028,0.47179684042930603,0.6620479822158813,-0.07228423655033112,0.9993014335632324,0.5659759044647217,0.6416705846786499,0.11066891998052597,0.42128199338912964,0.5702618360519409,0.6797159910202026,-0.08942912518978119,0.9655036926269531,0.5375685095787048,0.7887721657752991,0.16243687272071838,0.3854210078716278,0.530854344367981,0.8164986371994019,0.03164704889059067,0.914027750492096,0.5457861423492432,0.5962300300598145,0.027068713679909706,0.42217135429382324,0.5519450902938843,0.6379823684692383,-0.10910297930240631,0.9828933477401733,175.06013353405797,0.47956331074237823,0.6467984318733215,95.07185234650082,79.24558968663567,0.5021780724720613,0.00035725964472298536,0.0005020946358268983,-0.06074330265088692,0.0652537716121988,119.97582553574499,0.5133041906309763,16,1762115146.6835876
0.5557760000228882,0.35832667350769043,-0.10839299112558365,0.9999674558639526,0.5109691619873047,0.43597885966300964,0.03611620143055916,0.9996938109397888,0.49941420555114746,0.45441776514053345,-0.1869913637638092,0.9999275803565979,0.487118661403656,0.6337918043136597,0.07125747203826904,0.9993366599082947,0.4727695882320404,0.6617175936698914,-0.07109809666872025,0.9993478059768677,0.5663509964942932,0.6489720344543457,0.11049685627222061,0.43355241417884827,0.5703175067901611,0.6827899813652039,-0.06953789293766022,0.9653686881065369,0.5333458185195923,0.7935076951980591,0.1584596335887909,0.38949307799339294,0.5306112170219421,0.8163795471191406,0.05646030232310295,0.9091785550117493,0.545480489730835,0.5965110063552856,0.05054641515016556,0.40584343671798706,0.5542939901351929,0.640635073184967,-0.08949511498212814,0.9813090562820435,172.89503440356947,0.4799441248178482,0.6477546989917755,95.99897695229735,87.36656672216826,0.49661405340043296,0.004861483113784119,0.012207732718108549,0.057501042493051296,0.1494345023955607,122.07379784925318,0.6944396886871403,17,1762115146.7619205
0.5563675165176392,0.3589574694633484,-0.07618150860071182,0.9999638795852661,0.5109243988990784,0.43808743357658386,0.05561830848455429,0.9997063279151917,0.498277485370636,0.4541594982147217,-0.16787341237068176,0.9999238848686218,0.48498091101646423,0.6378642320632935,0.06898678839206696,0.9993684887886047,0.47267037630081177,0.6616016030311584,-0.06880787014961243,0.9993689656257629,0.5639432072639465,0.6796784996986389,0.11000843346118927,0.4467425048351288,0.5741889476776123,0.6828688979148865,-0.07892893254756927,0.9645036458969116,0.5114101767539978,0.8154098391532898,0.14998364448547363,0.39725834131240845,0.5306539535522461,0.8166165947914124,0.04522665590047836,0.9054365158081055,0.5443810224533081,0.5971212983131409,0.046362247318029404,0.38765838742256165,0.5566093325614929,0.6433192491531372,-0.07264082133769989,0.9781522154808044,172.7851978384215,0.478825643658638,0.649732917547226,102.32290219306972,81.67290743151482,0.49025539592014794,-0.015300930531410736,0.02706222133796914,-0.27582377046792506,0.20321084229314432,128.1987798337215,0.5365939807773149,18,1762115146.8350194
0.5628402829170227,0.3591630160808563,-0.09103573858737946,0.9999538660049438,0.5221513509750366,0.43792372941970825,0.04497162252664566,0.9996984004974365,0.5065258741378784,0.4526348114013672,-0.17273180186748505,0.9999105930328369,0.4862391948699951,0.6382734775543213,0.06561130285263062,0.9993856549263,0.4747714400291443,0.6572148203849792,-0.0654427632689476,0.9993722438812256,0.5524619817733765,0.7074644565582275,0.10772456973791122,0.47732192277908325,0.5737627744674683,0.6832094192504883,-0.05911256745457649,0.9640113711357117,0.4905485510826111,0.8267315626144409,0.15465380251407623,0.4256369173526764,0.5308498740196228,0.8166089653968811,0.05475729703903198,0.9062015414237976,0.5453287959098816,0.6003569960594177,0.03642934933304787,0.36772260069847107,0.5587299466133118,0.6445842981338501,-0.09798815101385117,0.9742535948753357,170.5131330994834,0.4805053174495697,0.6477441489696503,114.29882123446536,89.815829980329,0.5049220707913764,0.026142785842573214,-0.030953600213741817,0.6450384637390953,-0.9029700924642186,136.72646834761102,0.645499069562621,19,1762115146.8992693
0.5697596073150635,0.3591315448284149,-0.0853886753320694,0.9999253153800964,0.52666175365448,0.43679848313331604,0.046213481575250626,0.9996775984764099,0.5174878835678101,0.44952934980392456,-0.17204351723194122,0.9998924136161804,0.4878985285758972,0.6384774446487427,0.0658780187368393,0.9993869066238403,0.47764191031455994,0.6561587452888489,-0.06572729349136353,0.999367356300354,0.5540680885314941,0.6926736235618591,0.1065414696931839,0.48327013850212097,0.5754355192184448,0.6818511486053467,-0.06940700858831406,0.9614704847335815,0.4985281825065613,0.8211565613746643,0.15233665704727173,0.429412305355072,0.5309367179870605,0.816317081451416,0.044363219290971756,0.9022515416145325,0.5456142425537109,0.6035276055335999,0.024096649140119553,0.3414249122142792,0.5613310933113098,0.6466147303581238,-0.07116322219371796,0.9624843597412109,169.10251646067456,0.4827702194452286,0.6473180949687958,111.66876021427743,85.8959774019842,0.49802095977055433,0.031080991548963988,-0.005846690419868932,0.06776643321501767,0.34453925715975897,125.77654380732875,0.7857721170485733,20,1762115146.9721403
0.5758206844329834,0.35852956771850586,-0.09012292325496674,0.9999104142189026,0.5347617268562317,0.43150532245635986,0.0452258437871933,0.9996654391288757,0.5248852968215942,0.44503453373908997,-0.17454451322555542,0.9998746514320374,0.48935237526893616,0.6378253698348999,0.06619305163621902,0.999397337436676,0.479548841714859,0.6525560021400452,-0.06605223566293716,0.9993647933006287,0.5547324419021606,0.6937873363494873,0.10592029243707657,0.5010432004928589,0.5758748054504395,0.6816294193267822,-0.0647638589143753,0.9599535465240479,0.48978447914123535,0.8198434710502625,0.15558990836143494,0.44366663694381714,0.5320138931274414,0.8163263201713562,0.04711392894387245,0.8979985117912292,0.5478687882423401,0.6086145043373108,0.021216360852122307,0.3177935481071472,0.564524233341217,0.6481461524963379,-0.07418251037597656,0.9525444507598877,167.63211567545102,0.4844506084918976,0.6451906859874725,109.61493541219448,89.48048273547067,0.5020642542733865,0.020554039906212816,-0.026021860345752747,-0.12876267230186236,-0.2467769285888009,126.12973643271316,0.8339773632372738,21,1762115147.053895
0.5803097486495972,0.3540199398994446,-0.05652657896280289,0.9998956322669983,0.5321618318557739,0.4230591952800751,0.07512540370225906,0.9996756315231323,0.5326325297355652,0.44312867522239685,-0.1789012849330902,0.9998794794082642,0.4847099184989929,0.6371654868125916,0.07082809507846832,0.9994447231292725,0.48110252618789673,0.6504393815994263,-0.07071307301521301,0.9994100332260132,0.5278034210205078,0.7470184564590454,0.14665041863918304,0.5236323475837708,0.5764825344085693,0.6816926598548889,-0.03174443170428276,0.9597122669219971,0.4832827150821686,0.8368638753890991,0.23624153435230255,0.4701097309589386,0.5329850912094116,0.8127979636192322,0.11532995849847794,0.892593264579773,0.5469807982444763,0.607245147228241,0.0549197681248188,0.29632365703582764,0.5652011036872864,0.6480380296707153,-0.05168011784553528,0.9479708671569824,166.7820300481374,0.4829062223434448,0.6438024342060089,141.41750234942202,105.1556660202969,0.5299446647696495,-0.02021572910977608,-0.018171959116798003,-0.5336687376541727,0.10275375555655707,88.65646450404307,1.1245370278778901,22,1762115147.1302903
0.581498384475708,0.34968453645706177,-0.05812057852745056,0.9998853206634521,0.5327509045600891,0.4188746511936188,0.07640387117862701,0.9996849298477173,0.5351102352142334,0.44137561321258545,-0.17865517735481262,0.9998833537101746,0.48347800970077515,0.636087954044342,0.07319481670856476,0.9994894862174988,0.48148950934410095,0.6494542956352234,-0.07310221344232559,0.9994522929191589,0.5235787630081177,0.745158314704895,0.15294227004051208,0.5414861440658569,0.5760472416877747,0.681747317314148,-0.03069649636745453,0.960496723651886,0.4848508834838867,0.8427388668060303,0.23826944828033447,0.4976617395877838,0.5338414311408997,0.80512535572052,0.11676131188869476,0.8882488012313843,0.5506714582443237,0.606762170791626,0.04793992638587952,0.2746633291244507,0.5644108057022095,0.647355854511261,-0.046690646559000015,0.9400526881217957,166.39940676745962,0.48248375952243805,0.6427711248397827,146.46706059947317,106.99760818704969,0.5344539372903724,-0.005187626255233188,-0.012663948824545482,0.18453737715613394,0.06763553473910448,84.01414390701552,1.2713009630121068,23,1762115147.211727
0.5859333276748657,0.33869048953056335,-0.047102950513362885,0.9998865127563477,0.5331376791000366,0.40994948148727417,0.09184588491916656,0.9997019171714783,0.5388703942298889,0.4314888119697571,-0.18054768443107605,0.9998916387557983,0.4798138737678528,0.6312199831008911,0.07778716087341309,0.9995346069335938,0.48258060216903687,0.6458261013031006,-0.07772775739431381,0.9994978904724121,0.5239881873130798,0.7361776828765869,0.1609688550233841,0.5534246563911438,0.5775067210197449,0.6815005540847778,-0.03675493597984314,0.9603357911109924,0.4843927323818207,0.8401665687561035,0.24738922715187073,0.5169782042503357,0.5341132879257202,0.8046449422836304,0.12356001138687134,0.8816720247268677,0.5562540292739868,0.6043754816055298,0.07649651169776917,0.25816595554351807,0.5648010969161987,0.6469184756278992,-0.053553350269794464,0.9363366365432739,165.87569280803385,0.4811972379684448,0.6385230422019958,145.39374042569847,107.61203254903869,0.5421740086100414,-0.017197070859014972,-0.05678457380695906,-0.16053152719253852,-0.5897651009511093,75.09616841249091,1.3207907518671358,24,1762115147.2865374
0.5897679924964905,0.3259083330631256,-0.052426207810640335,0.9998894333839417,0.5345057249069214,0.39832112193107605,0.09363655745983124,0.9997215867042542,0.543527364730835,0.4194164574146271,-0.18254956603050232,0.999899685382843,0.47781020402908325,0.6152795553207397,0.08168196678161621,0.999578058719635,0.48625069856643677,0.6316651701927185,-0.08168164640665054,0.9995425343513489,0.5196568369865417,0.7246628403663635,0.1721186488866806,0.5608354210853577,0.5788506269454956,0.6770231127738953,-0.022397827357053757,0.9607822895050049,0.4816744327545166,0.8417385816574097,0.27142080664634705,0.5411166548728943,0.5353962182998657,0.8055100440979004,0.13875219225883484,0.8852443695068359,0.5588863492012024,0.6027116775512695,0.0831034705042839,0.24271482229232788,0.5680667161941528,0.6466068029403687,-0.059109728783369064,0.9300787448883057,165.1288022372547,0.48203045129776,0.6234723627567291,149.6628841316701,116.95758942094535,0.5662444146724281,0.012628187987367295,-0.22810821993047675,0.4520318653490129,-2.5965825723253237,66.84552192791709,1.3994824214033665,25,1762115147.3525178
0.5917400121688843,0.31360936164855957,-0.051036298274993896,0.9998940825462341,0.5339647531509399,0.3842926025390625,0.08700288832187653,0.9997391104698181,0.5467163324356079,0.4076405465602875,-0.18178224563598633,0.9999068975448608,0.476453959941864,0.6068968176841736,0.08090629428625107,0.9996156692504883,0.49034327268600464,0.6214038133621216,-0.08085072785615921,0.9995813369750977,0.5107890367507935,0.7272096276283264,0.16947981715202332,0.5688161253929138,0.5792638659477234,0.6760161519050598,-0.013399454765021801,0.961089551448822,0.4764319360256195,0.8416464328765869,0.26776307821273804,0.5611355900764465,0.5351897478103638,0.805524468421936,0.1445763111114502,0.8854114413261414,0.5564011335372925,0.6001555323600769,0.07078386098146439,0.22655129432678223,0.5688298344612122,0.6454663276672363,-0.04677223414182663,0.9221639037132263,165.37311983149215,0.4833986163139343,0.6141503155231476,153.871627328443,122.12707331387676,0.5775935910787204,0.01997535496851493,-0.13610288256364023,0.1072694205204538,1.34328772565719,61.35865113330839,1.4519849447754833,26,1762115147.4210105
0.5911526679992676,0.2992129325866699,-0.05316762253642082,0.9998989701271057,0.5360080003738403,0.3676843047142029,0.0825180634856224,0.9997520446777344,0.5487645268440247,0.3906411826610565,-0.18158462643623352,0.9999130964279175,0.47814902663230896,0.5887673497200012,0.07946790009737015,0.9996449947357178,0.49311304092407227,0.6057341694831848,-0.07945488393306732,0.9996102452278137,0.5179665088653564,0.7227296829223633,0.15593725442886353,0.5864494442939758,0.5798486471176147,0.6747943758964539,-0.026205021888017654,0.9620197415351868,0.4780504107475281,0.840100884437561,0.24314281344413757,0.5864601731300354,0.5363563299179077,0.8043653964996338,0.11867425590753555,0.8890948295593262,0.5609748959541321,0.5821871161460876,0.08615682274103165,0.21313735842704773,0.5713844895362854,0.6442483067512512,-0.05403866618871689,0.9199908971786499,165.41290315053124,0.4856310337781906,0.597250759601593,149.48248397657707,121.74782564051463,0.5791280254026903,0.026712533449729833,-0.202215741485653,0.08061534565901987,-0.7910894730434657,60.940236528378506,1.3608667362386389,27,1762115147.5045824
0.5926021337509155,0.2946130931377411,-0.06116292625665665,0.999901294708252,0.5380374193191528,0.36506912112236023,0.07932973653078079,0.9997629523277283,0.5491424202919006,0.3892238736152649,-0.1901368945837021,0.9999176263809204,0.4851156175136566,0.582535982131958,0.07986155897378922,0.9996707439422607,0.49316468834877014,0.6019642949104309,-0.07985296845436096,0.9996347427368164,0.521792471408844,0.7006831765174866,0.15770649909973145,0.5907096266746521,0.5795028209686279,0.6757680773735046,-0.03135756030678749,0.9610834717750549,0.48076334595680237,0.8251546025276184,0.24816572666168213,0.5983689427375793,0.5361231565475464,0.8070748448371887,0.1155567392706871,0.8888275027275085,0.5597455501556396,0.5790243148803711,0.08010827749967575,0.19890473783016205,0.5707022547721863,0.6441856026649475,-0.061863888055086136,0.9145029187202454,165.7949488724258,0.4891401529312134,0.5922501385211945,150.4183436284431,121.63528062044658,0.5814700423324898,0.03173896987471158,-0.04522917430401311,0.04546266664448416,1.4198981879029196,65.30968007256307,1.2901139050151322,28,1762115147.6184778
0.5923576951026917,0.28184449672698975,-0.06259658932685852,0.9998926520347595,0.5378619432449341,0.3526324927806854,0.07728666812181473,0.9997638463973999,0.5505309700965881,0.37366214394569397,-0.19002081453800201,0.9999192953109741,0.4891480505466461,0.5746749639511108,0.07920057326555252,0.9996940493583679,0.4970688819885254,0.5922420024871826,-0.0792643129825592,0.9996552467346191,0.5090870261192322,0.705859899520874,0.16138987243175507,0.5922852158546448,0.5753291249275208,0.6799329519271851,-0.0037328910548239946,0.959306001663208,0.46676936745643616,0.8281044960021973,0.2618839144706726,0.6112534999847412,0.5351231694221497,0.8108460903167725,0.14803896844387054,0.886852502822876,0.5591377019882202,0.5753385424613953,0.07612767815589905,0.1831989735364914,0.5709241628646851,0.6429687142372131,-0.05984633415937424,0.9047164916992188,166.94442120954938,0.49310846626758575,0.5834584832191467,156.52302464034764,133.87856041833876,0.6074456535644637,0.051650630880564034,-0.11443011283235273,0.2591654855995723,-0.9007031021857977,58.93371106341323,1.2381123344097862,29,1762115147.6919742
0.5918763875961304,0.26851072907447815,-0.04976511746644974,0.9998496174812317,0.5370756387710571,0.3399481475353241,0.06954048573970795,0.9997425079345703,0.5520198941230774,0.36152970790863037,-0.19163939356803894,0.9999165534973145,0.49260368943214417,0.5633479356765747,0.07863516360521317,0.9996996521949768,0.5045439004898071,0.583255410194397,-0.07873021066188812,0.999648928642273,0.5069427490234375,0.7057318091392517,0.15962912142276764,0.5800015926361084,0.5728042721748352,0.6869416832923889,-0.009793064557015896,0.9551586508750916,0.4635379910469055,0.8281846642494202,0.2553507685661316,0.6110655069351196,0.5327125191688538,0.8165286779403687,0.13247667253017426,0.8776021003723145,0.54253089427948,0.5716508030891418,0.07328731566667557,0.16668854653835297,0.5714496970176697,0.6389537453651428,-0.0602121539413929,0.8874196410179138,168.32877516650055,0.49857379496097565,0.5733016729354858,157.78036527790434,137.2801154043602,0.6123021953508404,0.08239578877750181,-0.15312498876743744,0.4635167760487896,-0.5833674428721916,55.29914859119148,1.1011926067931834,30,1762115147.7583044
0.5941564440727234,0.2599274814128876,-0.05693485587835312,0.9998071193695068,0.5382043123245239,0.33890295028686523,0.07537730783224106,0.9997325539588928,0.5520322322845459,0.35766980051994324,-0.20362254977226257,0.9999154210090637,0.4935030937194824,0.5640953779220581,0.08078266680240631,0.9997106790542603,0.5051685571670532,0.5829406976699829,-0.08089423924684525,0.9996446371078491,0.5127145648002625,0.7058389186859131,0.16401125490665436,0.5708326697349548,0.5727435350418091,0.6877163648605347,-0.014206791296601295,0.9527336359024048,0.467551052570343,0.8285791873931885,0.27148276567459106,0.6117269992828369,0.5318840146064758,0.8168081641197205,0.14085640013217926,0.8734256029129028,0.5438729524612427,0.5720153450965881,0.07530911266803741,0.15302293002605438,0.5719567537307739,0.6318862438201904,-0.08431272208690643,0.8743379712104797,168.51012622609485,0.4993358254432678,0.5735180377960205,155.4119418068963,136.4747727789672,0.6283696706685158,0.011929544792887482,0.0033871798508521137,-1.1031451280956541,2.450189289734946,53.6162130616965,1.0643982441580537,31,1762115147.822182
0.5944008231163025,0.23378194868564606,-0.05934559181332588,0.9997506141662598,0.5376542806625366,0.3169472813606262,0.07456599175930023,0.9997127652168274,0.5527406930923462,0.33191248774528503,-0.213405042886734,0.9999165534973145,0.4962162971496582,0.5510098338127136,0.08236882090568542,0.9996930956840515,0.5130028128623962,0.5669577121734619,-0.08248356729745865,0.9996124505996704,0.5153488516807556,0.6911225318908691,0.16858746111392975,0.5410722494125366,0.572604775428772,0.6892973780632019,-0.018745074048638344,0.9433532357215881,0.46930423378944397,0.8184372782707214,0.27429017424583435,0.5846995711326599,0.5318917036056519,0.8181502223014832,0.13225816190242767,0.850622296333313,0.5363513231277466,0.571658194065094,0.07333183288574219,0.1394791305065155,0.570591390132904,0.6200657486915588,-0.09697683155536652,0.8632031083106995,170.18258095233412,0.5046095550060272,0.5589837729930878,156.40748351372014,138.9409511404536,0.6476281031507687,0.08172959681352626,-0.22524469413694742,1.0817259477038963,-3.5432212928959204,44.76891237621906,0.9356403187934111,32,1762115147.8867085
0.59499192237854,0.22839798033237457,-0.08092077821493149,0.9996572732925415,0.5405175089836121,0.3117322623729706,0.06205957382917404,0.999671220779419,0.5516607761383057,0.32740142941474915,-0.221746563911438,0.9999145269393921,0.5045784711837769,0.546569287776947,0.08184592425823212,0.9996811747550964,0.5139893293380737,0.5611264705657959,-0.08193747699260712,0.9995884895324707,0.5325506925582886,0.6709617376327515,0.16441339254379272,0.5242145657539368,0.5717393755912781,0.688724160194397,-0.017761077731847763,0.9426183700561523,0.4912966787815094,0.8106375932693481,0.26893383264541626,0.5728772282600403,0.531913161277771,0.818688690662384,0.13112285733222961,0.8480786085128784,0.5403215885162354,0.5738747715950012,0.05664771795272827,0.1277734786272049,0.5701079964637756,0.6097987294197083,-0.13609805703163147,0.8623466491699219,171.07187979026085,0.5092839002609253,0.5538478791713715,155.8647918202523,140.12839359839987,0.6554331710669195,0.05654109589041096,-0.0621240086517664,-0.3046812694328081,1.973115338466436,54.58112732335131,0.9078498005518642,33,1762115147.9693801
0.5953105688095093,0.21408353745937347,-0.08178851008415222,0.9995061755180359,0.5430614352226257,0.3004443049430847,0.06248822063207626,0.9995743632316589,0.5503829121589661,0.31535783410072327,-0.22249428927898407,0.9999100565910339,0.5117431879043579,0.5391258597373962,0.08167573064565659,0.9996374845504761,0.5132251977920532,0.5525140166282654,-0.08175341784954071,0.9995446801185608,0.5362415313720703,0.676058292388916,0.15524259209632874,0.5181810259819031,0.5691426992416382,0.688291072845459,-0.01881159469485283,0.943000078201294,0.4895228445529938,0.8162269592285156,0.2674090266227722,0.5706677436828613,0.5316430926322937,0.8196758031845093,0.12268183380365372,0.8515071868896484,0.5407346487045288,0.5640178918838501,0.05637233331799507,0.1178751289844513,0.5692521333694458,0.5989999771118164,-0.14883248507976532,0.864789605140686,171.81100649071172,0.5124841928482056,0.5458199381828308,154.28452290448627,141.6595406184032,0.6696806473617803,0.04009846124432787,-0.10058707815659998,-0.20602002164774677,-0.48192777998094555,63.85226131252829,0.8130577429462236,34,1762115148.049191
0.595187246799469,0.19716492295265198,-0.09882307052612305,0.9994091391563416,0.5437706708908081,0.28681838512420654,0.054005950689315796,0.9994741678237915,0.5502122044563293,0.3018977642059326,-0.2411215603351593,0.9999083280563354,0.5160874128341675,0.5294190645217896,0.08391787856817245,0.9995115995407104,0.5146216750144958,0.5449608564376831,-0.08394306153059006,0.9994641542434692,0.5503666996955872,0.6690207123756409,0.16152045130729675,0.5005220174789429,0.5652178525924683,0.688202977180481,-0.020267918705940247,0.9430385828018188,0.5200799107551575,0.807216465473175,0.28322508931159973,0.5535926818847656,0.5260744094848633,0.8198304772377014,0.12365212291479111,0.8518086075782776,0.5422424674034119,0.5498349666595459,0.046074867248535156,0.108876071870327,0.566831648349762,0.5849853754043579,-0.15582792460918427,0.8635364770889282,172.57713691393974,0.5153545439243317,0.5371899604797363,155.30459596961134,142.61986756335833,0.6902607086854363,0.04061865287421473,-0.12212376093983009,0.007361288804769841,-0.30476796002764284,66.86903847250349,0.9113028003291035,35,1762115148.1198568
0.5945664644241333,0.18182964622974396,-0.10592545568943024,0.9993343353271484,0.5441561341285706,0.2738158106803894,0.041792020201683044,0.9993315935134888,0.5494741201400757,0.2870064377784729,-0.24204802513122559,0.9999056458473206,0.519446074962616,0.5234745144844055,0.0836295485496521,0.9993007779121399,0.5189084410667419,0.5387066602706909,-0.08366090059280396,0.9993500113487244,0.548540472984314,0.6689173579216003,0.16063840687274933,0.48716819286346436,0.564857542514801,0.6883368492126465,-0.01884937472641468,0.9408519864082336,0.5084660053253174,0.8089215755462646,0.27579230070114136,0.5345471501350403,0.5243498682975769,0.8233775496482849,0.12150406837463379,0.8468714952468872,0.5423954725265503,0.544335663318634,0.04166664183139801,0.10074450075626373,0.5656315684318542,0.5801706314086914,-0.16219496726989746,0.8630940318107605,173.7084457043201,0.519177258014679,0.5310905873775482,154.75349022523721,144.5079013367244,0.7079799531486848,0.05118246909954543,-0.08166474602890852,0.1414393503535978,0.5417073397420002,68.04248193705594,0.6859381629228399,36,1762115148.1945448
0.5942846536636353,0.1802854686975479,-0.11554936319589615,0.9992731809616089,0.5434478521347046,0.26910147070884705,0.033086203038692474,0.999191164970398,0.5493593811988831,0.2873404920101166,-0.24533133208751678,0.9999018907546997,0.5194058418273926,0.5233012437820435,0.08305767178535461,0.999163031578064,0.5188966989517212,0.5380820631980896,-0.08312419801950455,0.999282956123352,0.5453233122825623,0.6659526228904724,0.1685449182987213,0.4737635552883148,0.5651798844337463,0.68793123960495,-0.011042543686926365,0.9400372505187988,0.5134817361831665,0.8053532242774963,0.2913714349269867,0.5242010951042175,0.5250304341316223,0.8234082460403442,0.13552039861679077,0.8453496694564819,0.5432085394859314,0.5351676344871521,0.041995808482170105,0.09282808005809784,0.5646010637283325,0.5775858759880066,-0.16256602108478546,0.8584791421890259,173.8391972021752,0.5191512703895569,0.5306916534900665,158.69828523122868,145.63521712216374,0.7182924107088252,-0.0004076808569526417,-0.006258275173357869,-0.8093204533229345,1.1829389762921223,72.04174504687269,0.7570829464855402,37,1762115148.2582898
0.5939128398895264,0.16791152954101562,-0.11549423635005951,0.9992450475692749,0.5429657697677612,0.26041311025619507,0.029443610459566116,0.9990735054016113,0.5486867427825928,0.2752551734447479,-0.24179336428642273,0.9999006986618042,0.5227783918380737,0.5193140506744385,0.08090956509113312,0.9990850687026978,0.5218647718429565,0.5335949659347534,-0.0810130313038826,0.9992510080337524,0.5518380403518677,0.6691871285438538,0.16645237803459167,0.46424558758735657,0.5655655860900879,0.6875210404396057,-0.008659717626869678,0.9410567283630371,0.5215197801589966,0.8064559698104858,0.28231891989707947,0.5224596261978149,0.5255396366119385,0.824467658996582,0.13374760746955872,0.8486183881759644,0.5462924242019653,0.5368562936782837,0.044660937041044235,0.08613071590662003,0.564385175704956,0.5702337622642517,-0.15712451934814453,0.8564810752868652,174.80694834399125,0.5223215818405151,0.526454508304596,158.21261187885113,146.83562808345866,0.7272861884455761,0.04936535691480673,-0.06597717215366568,0.7750228368239312,-0.9298911824894677,68.92050776205087,0.6682570260596354,38,1762115148.3225112
0.5938600301742554,0.15714646875858307,-0.11515010893344879,0.9992235898971558,0.5426269769668579,0.252187579870224,0.03042830154299736,0.9989722967147827,0.547520637512207,0.26465845108032227,-0.24195699393749237,0.9998999238014221,0.5256438851356506,0.5178094506263733,0.08013372868299484,0.9989763498306274,0.5257941484451294,0.5322319269180298,-0.08025826513767242,0.9992100596427917,0.5538040399551392,0.6677331328392029,0.17300459742546082,0.4533822238445282,0.5642694234848022,0.6887539625167847,-0.0006643195520155132,0.9382181167602539,0.5197703838348389,0.8058264255523682,0.29859092831611633,0.5166879892349243,0.5256756544113159,0.8302339315414429,0.14343774318695068,0.8467669486999512,0.5479452610015869,0.5291389226913452,0.04155832901597023,0.08054733276367188,0.5644091367721558,0.5596972703933716,-0.15070025622844696,0.8520029783248901,175.84765448858406,0.52571901679039,0.5250206887722015,157.952276714481,150.37707096762085,0.7448719930801758,0.05340872462594825,-0.022540085004947377,0.06356298673320036,0.6828443988794105,68.57459656104719,0.5329738022158611,39,1762115148.3861232
0.5929478406906128,0.14739607274532318,-0.1104532927274704,0.9992384314537048,0.5408793091773987,0.24575936794281006,0.032949306070804596,0.9988661408424377,0.5459136962890625,0.2570761442184448,-0.23852114379405975,0.9999016523361206,0.5268018841743469,0.5166600346565247,0.07887868583202362,0.9988176226615906,0.5304285883903503,0.5310704708099365,-0.07901439815759659,0.9991809725761414,0.5538328289985657,0.6678534150123596,0.1742449849843979,0.4538376033306122,0.5635082125663757,0.6939815282821655,0.005421615205705166,0.938752293586731,0.5245827436447144,0.7983578443527222,0.29866090416908264,0.52390056848526,0.5259066820144653,0.8342370986938477,0.1404084861278534,0.8513902425765991,0.5482306480407715,0.5271795392036438,0.0432419553399086,0.07511091232299805,0.5644274353981018,0.5557370781898499,-0.14921800792217255,0.8513892889022827,176.8945403558801,0.5286152362823486,0.5238652527332306,158.87697932783124,153.22485332148645,0.748935822985982,0.033274144906417,-0.013274596865866652,-0.23132256552987118,0.10644952698663251,66.01760643230818,0.44219796493036206,40,1762115148.4731643
0.5913149118423462,0.13839507102966309,-0.10710511356592178,0.99916672706604,0.5390011668205261,0.24126029014587402,0.03601366654038429,0.9985912442207336,0.543137788772583,0.2489418238401413,-0.23330318927764893,0.999898374080658,0.5288728475570679,0.5131612420082092,0.07807344943284988,0.9987146854400635,0.5334534049034119,0.5258615612983704,-0.07820064574480057,0.9991646409034729,0.5511307716369629,0.6682000160217285,0.1739955097436905,0.44432538747787476,0.5595501661300659,0.6944617629051208,0.016767896711826324,0.9374845027923584,0.522604763507843,0.7993132472038269,0.2979308068752289,0.5267882347106934,0.5249040126800537,0.8380022644996643,0.14528562128543854,0.8571187257766724,0.5482889413833618,0.5215633511543274,0.0442483052611351,0.06958454102277756,0.5644491314888,0.5484549403190613,-0.14932194352149963,0.8464456796646118,177.9324913655864,0.5311631262302399,0.5195114016532898,160.27491875102479,158.24482440782546,0.758534242142555,0.03384435232044794,-0.057833451567339544,0.007574228483520981,-0.5918880361219876,61.69686483978186,0.3136203573958313,41,1762115148.548447
0.5906139016151428,0.1378357708454132,-0.12369158118963242,0.9990931153297424,0.5373919606208801,0.24159984290599823,0.02530442178249359,0.9983810186386108,0.5413019061088562,0.25282150506973267,-0.243002250790596,0.9998970627784729,0.5290216207504272,0.5118469595909119,0.07813809812068939,0.998677670955658,0.5339973568916321,0.52461838722229,-0.07827144116163254,0.9991815090179443,0.5499393343925476,0.668136477470398,0.1911371350288391,0.44019946455955505,0.5577853322029114,0.6940023899078369,0.03298730030655861,0.9378775954246521,0.5214850306510925,0.7988917231559753,0.32864290475845337,0.5364806652069092,0.5249505639076233,0.8384755253791809,0.17406728863716125,0.8661271333694458,0.5484315156936646,0.5213151574134827,0.03428808972239494,0.06475889682769775,0.5647770762443542,0.5519060492515564,-0.16400381922721863,0.8478327393531799,178.34357585804554,0.5315094888210297,0.518232673406601,161.89049565866046,160.64695760285983,0.7802282005821212,0.004772989364882758,-0.0176212919186908,-0.40061285456133466,0.554136663270458,70.79021364214093,0.2557450631354615,42,1762115148.621014
0.5880503058433533,0.13325324654579163,-0.1158376932144165,0.9989887475967407,0.5346533060073853,0.23834310472011566,0.02572624944150448,0.9981713891029358,0.53910231590271,0.24611632525920868,-0.23421373963356018,0.9998956322669983,0.5297267436981201,0.5111689567565918,0.0775923877954483,0.9986383318901062,0.5363331437110901,0.5222045183181763,-0.07772130519151688,0.9991819262504578,0.5490307807922363,0.6681944131851196,0.18365167081356049,0.42767369747161865,0.5549997091293335,0.69361811876297,0.028552498668432236,0.934018611907959,0.5217463970184326,0.8001331090927124,0.3099861443042755,0.5346145033836365,0.5248063802719116,0.8384451270103455,0.16229483485221863,0.8691990375518799,0.5461379289627075,0.5186020731925964,0.04178311675786972,0.060251086950302124,0.5651975274085999,0.5473155379295349,-0.15691053867340088,0.8479222655296326,179.1967700137982,0.5330299437046051,0.516686737537384,162.70936524201142,162.26170499647782,0.7737761423718484,0.020426482599573997,-0.020768805752630484,0.2102961492872901,-0.0422851327292918,60.21529644033009,0.133886099087843,43,1762115148.6954496
0.5853695273399353,0.12936417758464813,-0.09739623963832855,0.9989033937454224,0.5336023569107056,0.2350810319185257,0.03689252585172653,0.9980266690254211,0.5367061495780945,0.2404777705669403,-0.21695277094841003,0.9998924732208252,0.533123254776001,0.510650098323822,0.07460178434848785,0.9986270070075989,0.5380298495292664,0.5208464860916138,-0.07469602674245834,0.9991751909255981,0.5495176315307617,0.667957067489624,0.1754961609840393,0.41849130392074585,0.5493863821029663,0.693347156047821,0.02826467528939247,0.929450511932373,0.5247445702552795,0.8003855347633362,0.29859456419944763,0.5343308448791504,0.5243337750434875,0.8369044065475464,0.16010300815105438,0.8698939085006714,0.5448755025863647,0.5150150060653687,0.057013433426618576,0.0562419667840004,0.5652461647987366,0.5470516681671143,-0.15466968715190887,0.8526575565338135,-179.91295455244813,0.5355765521526337,0.5157482922077179,163.60976235648113,164.22865867267313,0.7652258853711084,0.03394601689474788,-0.012509375377398666,0.18021393903266766,0.11009731915232704,60.09576907513107,0.016950378066851745,44,1762115148.770469
0.5837104916572571,0.12539418041706085,-0.09141672402620316,0.9988217949867249,0.5333048701286316,0.2328799068927765,0.04261258989572525,0.9977453351020813,0.5359085202217102,0.23761843144893646,-0.20880918204784393,0.9998824000358582,0.5337807536125183,0.5100328326225281,0.0722954273223877,0.9985296726226807,0.5384398698806763,0.5188590288162231,-0.07237984240055084,0.9991295337677002,0.5491783618927002,0.6679435968399048,0.16738459467887878,0.40844836831092834,0.5482092499732971,0.6931524276733398,0.02593441680073738,0.9238108396530151,0.5234581232070923,0.8005919456481934,0.28537866473197937,0.5290835499763489,0.5244895815849304,0.8366549015045166,0.15667584538459778,0.8695245981216431,0.5450198650360107,0.5140740871429443,0.056575387716293335,0.05275547131896019,0.5653737783432007,0.5453010201454163,-0.14894244074821472,0.8553902506828308,-179.6914360675707,0.5361103117465973,0.5144459307193756,163.22452067504264,163.8297993487192,0.7627296308047735,0.007996878047386526,-0.01951220383421503,-0.38877446165621776,-0.10491758047864713,61.212776401368515,0.060823566905568255,45,1762115148.837215
0.5827919244766235,0.12649652361869812,-0.08992944657802582,0.9988008737564087,0.5333832502365112,0.23447570204734802,0.043107617646455765,0.9975311756134033,0.5341215133666992,0.2389495074748993,-0.20543217658996582,0.9998745322227478,0.5340390801429749,0.511840283870697,0.07131403684616089,0.9984352588653564,0.5382478833198547,0.5210891366004944,-0.07139519602060318,0.9991028308868408,0.5488294959068298,0.668188750743866,0.16704776883125305,0.3995751738548279,0.5490201115608215,0.6932420134544373,0.028499070554971695,0.9209249019622803,0.5222474932670593,0.8001474142074585,0.28456422686576843,0.5278779864311218,0.5245189666748047,0.8360198736190796,0.15542367100715637,0.8723644018173218,0.5451502203941345,0.5157755017280579,0.05550633743405342,0.049469295889139175,0.5656079053878784,0.5450218915939331,-0.14189176261425018,0.8575307130813599,-179.51029287833734,0.5361434817314148,0.5164647102355957,163.3511653951987,164.4946568249713,0.7601806686751761,0.00048826240002246095,0.029716448081870156,-0.11052687292438623,0.7246460879214279,80.62955224243862,0.09361233335393866,46,1762115148.911958
0.582181990146637,0.12867644429206848,-0.09239707887172699,0.9987463355064392,0.5335401296615601,0.23517121374607086,0.039161451160907745,0.9973379373550415,0.5332008600234985,0.24020560085773468,-0.20801904797554016,0.9998699426651001,0.535221517086029,0.5125443339347839,0.0711842030286789,0.9983512759208679,0.5396562814712524,0.5221911668777466,-0.07126704603433609,0.999091625213623,0.5486271381378174,0.6682797074317932,0.16956771910190582,0.388796329498291,0.5498736500740051,0.6931313872337341,0.0337105467915535,0.9195144176483154,0.5215572714805603,0.796410858631134,0.290666788816452,0.5278067588806152,0.5240925550460815,0.8328692317008972,0.16437023878097534,0.8771775960922241,0.5464967489242554,0.517376184463501,0.05417017266154289,0.0463947132229805,0.5658078789710999,0.5446176528930664,-0.15374889969825745,0.8626739382743835,-179.166595712413,0.5374388992786407,0.5173677504062653,163.00253447109688,164.3640190718272,0.7592201991081132,0.015208291347574903,0.01060175388508218,0.17281415506414025,-0.22440782818410082,93.8553593645379,0.15395180540098974,47,1762115148.990328
