nose_x,nose_y,nose_z,nose_visibility,left_shoulder_x,left_shoulder_y,left_shoulder_z,left_shoulder_visibility,right_shoulder_x,right_shoulder_y,right_shoulder_z,right_shoulder_visibility,left_hip_x,left_hip_y,left_hip_z,left_hip_visibility,right_hip_x,right_hip_y,right_hip_z,right_hip_visibility,left_knee_x,left_knee_y,left_knee_z,left_knee_visibility,right_knee_x,right_knee_y,right_knee_z,right_knee_visibility,left_ankle_x,left_ankle_y,left_ankle_z,left_ankle_visibility,right_ankle_x,right_ankle_y,right_ankle_z,right_ankle_visibility,left_wrist_x,left_wrist_y,left_wrist_z,left_wrist_visibility,right_wrist_x,right_wrist_y,right_wrist_z,right_wrist_visibility,trunk_lateral_inclination,center_mass_x,center_mass_y,left_knee_angle,right_knee_angle,person_height,center_mass_velocity_x,center_mass_velocity_y,center_mass_acceleration_x,center_mass_acceleration_y,body_orientation,torso_leg_ratio,frame,timestamp
0.4908977448940277,0.36293351650238037,-0.05938985198736191,0.999880313873291,0.4697972238063812,0.43244469165802,0.06867986917495728,0.9998501539230347,0.4525388777256012,0.4445939362049103,-0.15778551995754242,0.9999109506607056,0.46713119745254517,0.6051076650619507,0.07444661110639572,0.9990247488021851,0.4552156925201416,0.6231930255889893,-0.07441448420286179,0.9990092515945435,0.5479596853256226,0.6317834854125977,0.07339770346879959,0.4931521713733673,0.5495774149894714,0.6519502997398376,-0.08462405949831009,0.8996877074241638,0.5365476012229919,0.7743130326271057,0.11367015540599823,0.5316175818443298,0.5599156022071838,0.7950321435928345,-0.006940281484276056,0.9368833303451538,0.5090594291687012,0.5543988943099976,0.10021252930164337,0.5697822570800781,0.5066966414451599,0.610762357711792,-0.1072763055562973,0.9773297309875488,-179.99824025368756,0.4611734449863434,0.61415034532547,102.96610572097825,105.40135221776431,0.4403006451155481,0.0,0.0,0.0,0.0,144.8558553929812,0.010027392825071535,0,1762115167.4644046
0.4915288984775543,0.36251577734947205,-0.06095734238624573,0.9998528361320496,0.46941328048706055,0.4324486255645752,0.06943883001804352,0.9998307228088379,0.45384055376052856,0.4427555799484253,-0.16881749033927917,0.9999155402183533,0.47122740745544434,0.6086094975471497,0.07810093462467194,0.998992919921875,0.4589107632637024,0.6255204677581787,-0.07804360240697861,0.9990026354789734,0.5481355786323547,0.6335089206695557,0.09057050198316574,0.47604554891586304,0.5510808229446411,0.6497465968132019,-0.08904336392879486,0.9018610715866089,0.5434073805809021,0.7760242223739624,0.1399172991514206,0.5192235708236694,0.5594165325164795,0.7956923842430115,-0.002302340464666486,0.9343796968460083,0.508914053440094,0.5568607449531555,0.09143846482038498,0.5357279777526855,0.5083937644958496,0.6095075607299805,-0.1121596097946167,0.9761762022972107,-178.90117927112692,0.46506908535957336,0.6170649826526642,107.93184657560894,101.85375115357252,0.44681515628706137,0.05416941555578394,0.040528433182931804,0.7532331787654922,0.5635534414309372,146.50104534270642,1.9072764923110428,1,1762115167.5363204
0.49391379952430725,0.36246761679649353,-0.08100901544094086,0.999844491481781,0.4706178605556488,0.43247726559638977,0.05668630078434944,0.9998105764389038,0.45486530661582947,0.44276919960975647,-0.18358607590198517,0.9999192953109741,0.4759940207004547,0.6096869707107544,0.07818646728992462,0.9989491105079651,0.4612632393836975,0.6280969977378845,-0.07812582701444626,0.9989783763885498,0.5487709641456604,0.6330305933952332,0.08977790176868439,0.4641801714897156,0.5520420670509338,0.6495873332023621,-0.0917275995016098,0.9049837589263916,0.5502671003341675,0.7767795324325562,0.13924959301948547,0.5105201601982117,0.5590915679931641,0.7964063882827759,-0.0023752176202833652,0.9337303638458252,0.5085927248001099,0.5541485548019409,0.09273883700370789,0.5124812722206116,0.5129299759864807,0.610406219959259,-0.13788442313671112,0.9768205881118774,-178.13986471592705,0.4686286300420761,0.6188919842243195,110.09355410619987,99.15307741274579,0.4537718863966936,0.0449805598990109,0.023087097075473687,-0.11611593873355626,-0.22039927391744324,146.8413994763916,1.3774675659000906,2,1762115167.6154556
0.4973408579826355,0.36250564455986023,-0.08694885671138763,0.9998466372489929,0.4724108576774597,0.43241047859191895,0.05298134684562683,0.9998105764389038,0.45632943511009216,0.44276657700538635,-0.1871775984764099,0.9999231696128845,0.4775764048099518,0.6103373169898987,0.07848101854324341,0.9989698529243469,0.4629334509372711,0.6302118301391602,-0.07841823995113373,0.9989861845970154,0.5488574504852295,0.6327329874038696,0.09012438356876373,0.46031564474105835,0.5522331595420837,0.649938702583313,-0.09164664894342422,0.9074834585189819,0.5486120581626892,0.7847281694412231,0.13850140571594238,0.5031139254570007,0.5583394765853882,0.7970052361488342,0.00850523542612791,0.9308138489723206,0.5083597898483276,0.5534040927886963,0.0780661404132843,0.5028976202011108,0.5134425759315491,0.6130772233009338,-0.1452360451221466,0.9772624969482422,-178.15499541314324,0.47025492787361145,0.6202745735645294,109.1134028378896,97.4092649387685,0.4608570553429821,0.023117967532027384,0.019653629770216226,-0.3107786843869329,-0.04880704145702768,147.2193152809764,2.007455923489497,3,1762115167.6858034
0.5008941888809204,0.36287087202072144,-0.09624378383159637,0.9998244643211365,0.47322410345077515,0.4324387311935425,0.04125810042023659,0.9997813105583191,0.46144986152648926,0.4436686635017395,-0.19494694471359253,0.9999250173568726,0.47813963890075684,0.6113151907920837,0.07828469574451447,0.9989601969718933,0.4656238555908203,0.631855845451355,-0.07822582125663757,0.9989907741546631,0.5492309331893921,0.6320118308067322,0.10670123249292374,0.4628826677799225,0.5528409481048584,0.6511706709861755,-0.07308854162693024,0.9114803671836853,0.5465408563613892,0.7841395139694214,0.17581015825271606,0.5033265948295593,0.5579456090927124,0.7966446876525879,0.037535689771175385,0.9302985668182373,0.5078449845314026,0.5539936423301697,0.06875879317522049,0.4712789058685303,0.5132792592048645,0.6151622533798218,-0.14135608077049255,0.9766461849212646,-178.58148503466407,0.4718817472457886,0.6215855181217194,111.79488738875821,103.51486604574592,0.4760108356879357,0.022878038558256496,0.018435875943000838,-0.003374132621636638,-0.017125330254835917,136.35544207532288,3.7613130406651765,4,1762115167.7569118
0.5023137331008911,0.3628781735897064,-0.08962111920118332,0.9997991323471069,0.4732428193092346,0.43251341581344604,0.045254722237586975,0.9997552633285522,0.46426740288734436,0.44370919466018677,-0.1949402391910553,0.9999266266822815,0.47734880447387695,0.61335688829422,0.07925565540790558,0.9989332556724548,0.46667495369911194,0.63451087474823,-0.07918728142976761,0.9989936947822571,0.5496150255203247,0.6287054419517517,0.11482162773609161,0.4662175178527832,0.5530146956443787,0.6525418162345886,-0.07403109967708588,0.9156012535095215,0.5418196320533752,0.7756288051605225,0.18623307347297668,0.5039315819740295,0.5577365159988403,0.7959016561508179,0.03353176265954971,0.9308774471282959,0.5073519349098206,0.5538253784179688,0.07418808341026306,0.4432949125766754,0.513506293296814,0.6175408959388733,-0.1401909589767456,0.975490152835846,-178.9959241657087,0.47201187908649445,0.623933881521225,108.39323353845081,102.93920530791391,0.4699872211833001,0.0016279449529791785,0.029377947189935485,-0.2658379567014411,0.13688494349240474,128.7184049228612,2.1178283650493985,5,1762115167.836848
0.5043045878410339,0.3630504310131073,-0.11781418323516846,0.9997909665107727,0.47567978501319885,0.4325184226036072,0.028401371091604233,0.9997243285179138,0.4691842198371887,0.44562429189682007,-0.20977798104286194,0.9999292492866516,0.4766235947608948,0.6132200956344604,0.07909725606441498,0.998923122882843,0.4672270715236664,0.6370872855186462,-0.07903555035591125,0.9990218877792358,0.5496151447296143,0.6261551976203918,0.1326407492160797,0.47000226378440857,0.5529488325119019,0.6551240682601929,-0.055810026824474335,0.9192022085189819,0.5397928953170776,0.7593000531196594,0.22539842128753662,0.5019148588180542,0.5566571950912476,0.793748140335083,0.06719417124986649,0.9304012060165405,0.5068026781082153,0.5538456439971924,0.07970623672008514,0.41869133710861206,0.5134023427963257,0.6192230582237244,-0.15292325615882874,0.975388765335083,179.8439941113126,0.4719253331422806,0.6251536905765533,113.68405107161651,109.74314744170717,0.4925888997916431,-0.0011396100838225599,0.01606206636737513,-0.03644230421334781,-0.17533937838692804,116.36405539471833,0.16568955467374372,6,1762115167.9127915
0.5080960392951965,0.363047331571579,-0.10794682800769806,0.9997389912605286,0.4803503155708313,0.43252623081207275,0.03419315442442894,0.9996874928474426,0.47531771659851074,0.4498140513896942,-0.20528535544872284,0.9999291896820068,0.47516578435897827,0.6136534214019775,0.08113083243370056,0.9989290237426758,0.46707987785339355,0.6379721164703369,-0.081064872443676,0.9990600347518921,0.5454472303390503,0.6210585832595825,0.14685270190238953,0.4601278305053711,0.5528908967971802,0.6556780934333801,-0.051936112344264984,0.921634316444397,0.5186777114868164,0.7441639304161072,0.2427179366350174,0.4942028820514679,0.5549507141113281,0.7897459864616394,0.07118821889162064,0.9290400147438049,0.5144304037094116,0.5691350102424622,0.07441253215074539,0.39110687375068665,0.5119508504867554,0.6199407577514648,-0.1443379819393158,0.970921516418457,177.91839304417334,0.4711228311061859,0.6258127689361572,110.41934029070289,111.41352305036742,0.4838781505797321,-0.011148773976436764,0.009156257970064025,-0.13905248948016907,-0.09593906742078148,106.23062753961399,0.5431584683184812,7,1762115167.9847727
0.514326810836792,0.36349520087242126,-0.10026730597019196,0.9995844960212708,0.485795795917511,0.4328683614730835,0.039181336760520935,0.9996193647384644,0.4809280335903168,0.45475295186042786,-0.19787125289440155,0.9999259114265442,0.4734206795692444,0.6193234920501709,0.08081484586000443,0.9989099502563477,0.4683021903038025,0.641049325466156,-0.08074747771024704,0.9990996718406677,0.5085688829421997,0.6519385576248169,0.17345024645328522,0.43852049112319946,0.5528795719146729,0.6558576226234436,-0.01921192929148674,0.9152735471725464,0.47009333968162537,0.7504007816314697,0.2826389670372009,0.476152628660202,0.5531158447265625,0.7883421182632446,0.12227632105350494,0.9160631895065308,0.5134366750717163,0.5814813375473022,0.059483326971530914,0.35834285616874695,0.5114055871963501,0.6215278506278992,-0.13410954177379608,0.9578085541725159,176.16283974111502,0.47086143493652344,0.6301864087581635,139.0483239939378,121.46464248950002,0.5063450754172867,-0.0017165539128270082,0.028721111558194914,0.06194013583956126,0.12847979380860355,102.54008413720499,0.6537690652388038,8,1762115168.1370523
0.5211281776428223,0.36446279287338257,-0.08377843350172043,0.9994889497756958,0.4891411364078522,0.43165016174316406,0.04619193822145462,0.9995969533920288,0.4864346981048584,0.45424896478652954,-0.18923279643058777,0.999923825263977,0.4714497923851013,0.6183290481567383,0.0825171023607254,0.9989398717880249,0.4676876664161682,0.6406475305557251,-0.08245708048343658,0.9991392493247986,0.5127960443496704,0.6292169094085693,0.15556146204471588,0.42521753907203674,0.5528421401977539,0.655785858631134,-0.04315086454153061,0.9182218313217163,0.5004794001579285,0.7466468214988708,0.2509738802909851,0.4675470292568207,0.5521858930587769,0.7871350049972534,0.08403925597667694,0.9143357276916504,0.5095139145851135,0.5948492288589478,0.04933464154601097,0.33189690113067627,0.5102218985557556,0.6225413680076599,-0.1066456064581871,0.9500847458839417,174.42162958659182,0.46956872940063477,0.6294882893562317,127.03146267000447,113.51849418468399,0.4744677340056854,-0.016080622582864735,-0.008684262818231429,-0.17868196632919875,-0.4653045037859827,96.82923136766922,2.8083761769295554,9,1762115168.2174413
0.5240800976753235,0.36509937047958374,-0.05875100940465927,0.9994634389877319,0.48778027296066284,0.4306632876396179,0.061552323400974274,0.9996005296707153,0.4880446791648865,0.45302078127861023,-0.1653313934803009,0.9999250173568726,0.46792688965797424,0.6182202100753784,0.08017552644014359,0.9990096688270569,0.46776002645492554,0.6399282813072205,-0.0801338404417038,0.9991957545280457,0.5268706679344177,0.6292385458946228,0.14530512690544128,0.430587500333786,0.5528040528297424,0.6545531153678894,-0.04205324873328209,0.9216917753219604,0.5106357336044312,0.7483664751052856,0.23125989735126495,0.47076520323753357,0.5521368980407715,0.7845603227615356,0.08705084025859833,0.9125003814697266,0.5048969984054565,0.5944260954856873,0.04992299526929855,0.3075738549232483,0.5101858377456665,0.6243574619293213,-0.09182734787464142,0.9421574473381042,173.88194785276895,0.4678434580564499,0.6290742456912994,117.06503427670202,113.02905365466809,0.4567599520806539,-0.021813401881611034,-0.00523494515233453,-0.07248217456554076,0.043611315238704235,89.32243508086925,2.3744571937706906,10,1762115168.2965336
0.5296397805213928,0.3662295937538147,-0.06505196541547775,0.9993817806243896,0.49315768480300903,0.43068745732307434,0.06085744500160217,0.9995946288108826,0.49440470337867737,0.4525558352470398,-0.169593945145607,0.999924898147583,0.46620649099349976,0.6182982325553894,0.07944804430007935,0.9990842342376709,0.46814483404159546,0.6394520401954651,-0.0794108659029007,0.9992548227310181,0.5319463014602661,0.6323530077934265,0.15112805366516113,0.4407161474227905,0.5517396926879883,0.6541260480880737,-0.027943160384893417,0.9249006509780884,0.5013173818588257,0.756048858165741,0.24843955039978027,0.48513907194137573,0.5515651702880859,0.7839630246162415,0.11134036630392075,0.9111236333847046,0.4999299943447113,0.6012478470802307,0.03653445467352867,0.28209954500198364,0.5096374154090881,0.6240034103393555,-0.09182925522327423,0.9290341138839722,171.91337218247133,0.4671756625175476,0.6288751363754272,115.16375407488735,118.63913208666811,0.4722733481372426,-0.008102759223205478,-0.002415911385484137,0.16635935669634097,0.0342050081562721,86.73630991328291,1.7273267218263506,11,1762115168.3789494
0.5361660718917847,0.36899566650390625,-0.06854785233736038,0.9992966055870056,0.5017185807228088,0.43108507990837097,0.060171641409397125,0.9995682835578918,0.49948325753211975,0.4516243040561676,-0.1672259271144867,0.9999248385429382,0.46862977743148804,0.618064820766449,0.0749000683426857,0.9991543889045715,0.46790608763694763,0.6381717920303345,-0.07487232238054276,0.9993096590042114,0.5345231294631958,0.6403273940086365,0.14420762658119202,0.4526103734970093,0.5512778759002686,0.6535438895225525,-0.026220101863145828,0.9283631443977356,0.47896313667297363,0.757362961769104,0.23055072128772736,0.5048989057540894,0.5495765805244446,0.7843067646026611,0.10681654512882233,0.9105439186096191,0.5010582208633423,0.6035897731781006,0.022431273013353348,0.25813159346580505,0.5090430378913879,0.623698353767395,-0.10033977031707764,0.9185164570808411,170.17816314423462,0.46826793253421783,0.6281183063983917,108.80749287557565,117.21924738828162,0.46715410934806173,0.01124980048375017,-0.007794946406865815,0.19932107650158482,-0.055401201041956755,96.21116416888148,1.1292745362260936,12,1762115168.4760418
0.5468355417251587,0.3737562298774719,-0.07033535838127136,0.999210774898529,0.5094980001449585,0.434189110994339,0.05964561551809311,0.9995489120483398,0.5072014331817627,0.45173993706703186,-0.16984644532203674,0.9999240636825562,0.46999964118003845,0.6183581948280334,0.07456927746534348,0.9992178678512573,0.46807175874710083,0.6369138956069946,-0.07452921569347382,0.9993583559989929,0.535865843296051,0.647496223449707,0.14049950242042542,0.45935478806495667,0.551232635974884,0.6542765498161316,-0.026632070541381836,0.9313665628433228,0.4797604978084564,0.7581120133399963,0.22568953037261963,0.5168001055717468,0.547136127948761,0.7846021056175232,0.10465232282876968,0.9083000421524048,0.5013779401779175,0.60771244764328,0.01908762939274311,0.23657068610191345,0.5091885924339294,0.6269989609718323,-0.10058057308197021,0.9063157439231873,167.9819312581124,0.46903569996356964,0.627636045217514,110.49408859582252,117.06176875564955,0.46331882868678154,0.009195380964754729,-0.005775935671596189,-0.02460532892693852,0.024181245743138506,97.45493173751952,1.3060299102227109,13,1762115168.5595367
0.5571908950805664,0.3785078227519989,-0.062355123460292816,0.9991764426231384,0.5159198641777039,0.4358822703361511,0.06515417248010635,0.9995301365852356,0.5151583552360535,0.45322930812835693,-0.16572657227516174,0.9999222755432129,0.4715634286403656,0.6184409260749817,0.07484382390975952,0.999268114566803,0.4704006612300873,0.6340025067329407,-0.07480212301015854,0.9993931651115417,0.5366150140762329,0.6587338447570801,0.12908916175365448,0.4594156742095947,0.5514526963233948,0.6588096022605896,-0.032827768474817276,0.9290673136711121,0.47194331884384155,0.7566412091255188,0.19777807593345642,0.5166423320770264,0.5450884103775024,0.7890936136245728,0.09672751277685165,0.8954165577888489,0.5016353130340576,0.6025281548500061,0.03415793925523758,0.21710000932216644,0.5088967084884644,0.6271073818206787,-0.10154248774051666,0.8932821750640869,166.21914717371848,0.47098204493522644,0.6262217164039612,105.75966588746194,117.9621967909929,0.4492485091139547,0.02466892045025308,-0.017925889552013297,0.19611914650807183,-0.15399441009427817,92.51358499114417,1.2544575178685768,14,1762115168.6384354
0.5584367513656616,0.38218948245048523,-0.052903253585100174,0.9992046356201172,0.5190385580062866,0.4393303394317627,0.06629104167222977,0.9995400309562683,0.516058623790741,0.4538927674293518,-0.1501782238483429,0.9999216794967651,0.4718305170536041,0.6184026598930359,0.07353139668703079,0.9993124008178711,0.4699775278568268,0.6319022178649902,-0.07347382605075836,0.9994260668754578,0.5324880480766296,0.6583812236785889,0.1369599997997284,0.4562121033668518,0.5514858365058899,0.6592416167259216,-0.033947911113500595,0.9326600432395935,0.4732115864753723,0.7567477822303772,0.20635750889778137,0.522942304611206,0.5448306798934937,0.7893017530441284,0.0916316956281662,0.892726480960846,0.5064524412155151,0.6018350124359131,0.042603749781847,0.20279701054096222,0.5088984966278076,0.6269024610519409,-0.08324745297431946,0.8762778043746948,165.35849050934928,0.47090402245521545,0.6251524388790131,111.47880797030207,117.77215130448212,0.4426701567344523,-0.000936935440925111,-0.012840453279202467,-0.30748873755727474,0.06106862375935305,101.56487308417218,1.4148948505191896,15,1762115168.7217095
0.5657748579978943,0.3846891224384308,-0.05283812806010246,0.9992552399635315,0.5253807306289673,0.4392915368080139,0.06674174219369888,0.9995543956756592,0.5248825550079346,0.4572157561779022,-0.14942717552185059,0.9999256134033203,0.47419676184654236,0.6161004900932312,0.07352316379547119,0.9993587732315063,0.47221407294273376,0.6305955052375793,-0.07345276325941086,0.9994701147079468,0.5219961404800415,0.668928861618042,0.16511176526546478,0.45796290040016174,0.5517125725746155,0.6604366898536682,-0.031268421560525894,0.9376628994941711,0.4777980446815491,0.7763644456863403,0.26076608896255493,0.5355166792869568,0.5448564887046814,0.788891613483429,0.09031839668750763,0.8953136205673218,0.5084555745124817,0.5999008417129517,0.06137790158390999,0.19133369624614716,0.5087524056434631,0.6266530156135559,-0.07636695355176926,0.8698123097419739,163.48167632361753,0.47320541739463806,0.6233479976654053,134.88885688495887,120.09975173843662,0.46203626245722046,0.0314266226493723,-0.0246404874459551,0.44193949950632516,-0.16113497716357775,91.59203665607889,2.034081898059615,16,1762115168.7949402
0.5725075006484985,0.3895473778247833,-0.05618148297071457,0.9992827773094177,0.5322922468185425,0.43887171149253845,0.06591564416885376,0.9995561242103577,0.5325096249580383,0.458743155002594,-0.1506962925195694,0.9999281167984009,0.47517481446266174,0.6109462380409241,0.07265996187925339,0.9993982315063477,0.47434043884277344,0.6292024254798889,-0.0725889652967453,0.9995065927505493,0.5213338732719421,0.6775901913642883,0.16757145524024963,0.46235108375549316,0.5524464845657349,0.6610860824584961,-0.023594243451952934,0.9420984983444214,0.4783971905708313,0.7808917760848999,0.2648603022098541,0.546298623085022,0.5447288751602173,0.7871153354644775,0.09569410234689713,0.8957769870758057,0.5084157586097717,0.6002514958381653,0.059227414429187775,0.17903226613998413,0.5084835886955261,0.6265937089920044,-0.06428533792495728,0.8596370816230774,161.39830818175255,0.4747576266527176,0.6200743317604065,139.80559318450776,123.12066707155,0.46392091384839046,0.020855289712081802,-0.043984566200684236,-0.14203510892780033,-0.25990462596669606,89.37325372607722,2.275859793063304,17,1762115168.8693678
0.5789681077003479,0.3881259858608246,-0.051046330481767654,0.9992943406105042,0.5394577383995056,0.4322452247142792,0.06604118645191193,0.9995641112327576,0.5434703826904297,0.4579063951969147,-0.15296295285224915,0.9999312162399292,0.4770027697086334,0.6022456884384155,0.0728711411356926,0.9994377493858337,0.47995585203170776,0.6231972575187683,-0.07280528545379639,0.9995381236076355,0.5251309275627136,0.6721978187561035,0.1605672836303711,0.46854737401008606,0.5526119470596313,0.6614633202552795,-0.018552713096141815,0.9463266134262085,0.4903930127620697,0.7816547751426697,0.2518004775047302,0.5569615960121155,0.5432255268096924,0.7874059081077576,0.1086634173989296,0.8967925310134888,0.5111817121505737,0.6029589176177979,0.05768371745944023,0.16866439580917358,0.5075997710227966,0.625074028968811,-0.0718233659863472,0.8575564622879028,159.40871844947068,0.4784793108701706,0.6127214729785919,141.3655677206158,128.7315585850507,0.46313040954334633,0.04479816271534715,-0.08850685466165781,0.28820196932431397,-0.5359177744261435,81.11261394433257,2.8547464729439413,18,1762115168.9524446
0.5884673595428467,0.38679271936416626,-0.052323780953884125,0.9993250370025635,0.5468278527259827,0.42701438069343567,0.06892265379428864,0.999574601650238,0.5484023690223694,0.4536210298538208,-0.15339848399162292,0.9999358654022217,0.48066234588623047,0.5966957807540894,0.07428250461816788,0.9994840621948242,0.4814389646053314,0.6164407730102539,-0.07423943281173706,0.9995779395103455,0.5286941528320312,0.6610317826271057,0.18003633618354797,0.4764731824398041,0.5526782274246216,0.6619679927825928,-0.022380264475941658,0.9510491490364075,0.5115759968757629,0.7807191610336304,0.2820519804954529,0.573706865310669,0.5424562692642212,0.7866961359977722,0.10803475230932236,0.9018170237541199,0.5106685757637024,0.5962490439414978,0.05097004771232605,0.1578720211982727,0.507097601890564,0.6237517595291138,-0.0938355103135109,0.855821430683136,158.1795112695604,0.48105065524578094,0.6065682768821716,147.24964654615647,130.79592842092956,0.4717077695030744,0.034953136545716176,-0.08364243443653664,-0.133826704531391,0.06612367676501707,86.61332584716936,4.869005764833311,19,1762115169.02601
0.5892537832260132,0.3858950734138489,-0.05419527739286423,0.9993572235107422,0.5477736592292786,0.4262365996837616,0.06897837668657303,0.9995862245559692,0.5485655069351196,0.45361968874931335,-0.15570437908172607,0.9999398589134216,0.48126307129859924,0.5939269661903381,0.07549072057008743,0.999522864818573,0.4820999503135681,0.6148601770401001,-0.07544194161891937,0.999611496925354,0.5315283536911011,0.6621292233467102,0.17945566773414612,0.48089268803596497,0.5529264807701111,0.6618466973304749,-0.02478202059864998,0.9549000263214111,0.5118315815925598,0.7791828513145447,0.27986079454421997,0.587044894695282,0.5416015386581421,0.783747673034668,0.10852617025375366,0.9044928550720215,0.5126723051071167,0.59978187084198,0.045610211789608,0.14800168573856354,0.50693279504776,0.6233953833580017,-0.09370792657136917,0.8521273732185364,157.98810342051,0.4816815108060837,0.6043935716152191,146.7190281039738,130.6996904475763,0.4712575246086763,0.008267354883863348,-0.028499487586469783,-0.34971686267766056,0.7226476861561575,88.34361669158507,4.286274159500251,20,1762115169.1023169
0.5948728322982788,0.3853353261947632,-0.053623784333467484,0.9993975758552551,0.5528112649917603,0.42285656929016113,0.06987540423870087,0.9995948672294617,0.5537137985229492,0.4464162588119507,-0.15724998712539673,0.9999440312385559,0.4837527275085449,0.5911824703216553,0.07571404427289963,0.9995610117912292,0.48433631658554077,0.6105413436889648,-0.07566456496715546,0.9996448755264282,0.526649534702301,0.6702902913093567,0.1899961531162262,0.4954572319984436,0.5538948774337769,0.6616942882537842,-0.0221740510314703,0.958864152431488,0.5035477876663208,0.7786098718643188,0.30422136187553406,0.6100598573684692,0.5415096282958984,0.7819579839706421,0.10434512048959732,0.9104788899421692,0.5102392435073853,0.5954908728599548,0.043265052139759064,0.1385684311389923,0.5067237019538879,0.6209427118301392,-0.10108347237110138,0.8491804599761963,157.39265134830887,0.48404452204704285,0.6008619070053101,153.05510682352246,132.71522601930724,0.4772149454244653,0.03428729204360295,-0.0512444519014886,0.3775492764859026,-0.3300294219818541,87.80616427974496,3.900815304620996,21,1762115169.1712348
0.5998367071151733,0.3791273236274719,-0.05195053294301033,0.9994255304336548,0.5559861063957214,0.41158562898635864,0.06913010030984879,0.9995926022529602,0.5619238018989563,0.43989622592926025,-0.15761344134807587,0.9999479055404663,0.4841693043708801,0.5833771824836731,0.07389585673809052,0.9995911717414856,0.49029111862182617,0.6050238013267517,-0.07388078421354294,0.9996705651283264,0.5218695998191833,0.6712326407432556,0.18325811624526978,0.49789515137672424,0.5549304485321045,0.6619291305541992,0.015881475061178207,0.961392343044281,0.502444863319397,0.7780930399894714,0.298231303691864,0.614973247051239,0.5407235026359558,0.781701922416687,0.15998141467571259,0.9091171026229858,0.5180230140686035,0.5941675901412964,0.06855445355176926,0.13049422204494476,0.5067319869995117,0.6187808513641357,-0.10709496587514877,0.8511922359466553,156.93723259573247,0.48723021149635315,0.5942004919052124,157.5207505631613,143.6685373781615,0.49571479032710086,0.0397672314500936,-0.0831550093899089,0.06840654815163545,-0.39834219422055184,78.15481713042173,4.265054406273059,22,1762115169.2513433
0.6029070615768433,0.36649128794670105,-0.02724977396428585,0.9994530081748962,0.5548424124717712,0.3989871144294739,0.06839188933372498,0.9995949268341064,0.5691205859184265,0.43032896518707275,-0.16043326258659363,0.9999521374702454,0.4851537346839905,0.5746104121208191,0.07342195510864258,0.9996259808540344,0.49685320258140564,0.5981264114379883,-0.07342071086168289,0.9996993541717529,0.5196678042411804,0.6698484420776367,0.19227299094200134,0.49562159180641174,0.5567113161087036,0.6628642678260803,0.024257928133010864,0.963776171207428,0.505499005317688,0.7704905271530151,0.3109092116355896,0.6160017848014832,0.541164219379425,0.7804326415061951,0.17675453424453735,0.9070223569869995,0.5225639343261719,0.5796823501586914,0.08686896413564682,0.12249536067247391,0.507436990737915,0.614181399345398,-0.12124282121658325,0.8550043106079102,157.54180417133455,0.49100346863269806,0.5863684117794037,161.95006243694567,148.0756406720684,0.4970656040521999,0.04610352487073047,-0.09569623479717428,0.07741997185740554,-0.15323490464087045,65.5077671046713,4.776787117884815,23,1762115169.3331864
0.6057676076889038,0.3532966077327728,-0.038131751120090485,0.9994737505912781,0.5578294992446899,0.39266225695610046,0.07247014343738556,0.9995976090431213,0.5720601677894592,0.42117738723754883,-0.18101106584072113,0.9999555349349976,0.48830193281173706,0.5694313049316406,0.07826004922389984,0.9996576309204102,0.49946871399879456,0.5924968123435974,-0.07832552492618561,0.999724268913269,0.5208934545516968,0.6683695316314697,0.21005602180957794,0.4892641603946686,0.559367835521698,0.664887011051178,0.038100481033325195,0.9648665189743042,0.5107842683792114,0.7705291509628296,0.34786778688430786,0.6109687685966492,0.5407344102859497,0.7788031101226807,0.22522418200969696,0.9020427465438843,0.5132262110710144,0.5709750056266785,0.07446280121803284,0.11624807119369507,0.5072954297065735,0.6129528284072876,-0.1400606334209442,0.8602654933929443,157.7905826813641,0.4938853234052658,0.580964058637619,165.42908483215317,151.5290807871708,0.5379305064145969,0.040778278573766015,-0.07647165985756553,-0.07535229708263422,0.272027959150456,63.47820004510121,4.944196955917407,24,1762115169.4038577
0.6079918146133423,0.35010048747062683,-0.06505097448825836,0.9994835257530212,0.5597628951072693,0.3882225453853607,0.07006622850894928,0.9995980858802795,0.5725449919700623,0.41994544863700867,-0.19379638135433197,0.999958336353302,0.49020975828170776,0.5619087815284729,0.08110618591308594,0.9996840357780457,0.5005229711532593,0.58790123462677,-0.08119277656078339,0.9997460246086121,0.5348005890846252,0.6593571305274963,0.21178770065307617,0.48023879528045654,0.5609145164489746,0.6658535599708557,0.02664903923869133,0.9659566283226013,0.5231227874755859,0.7640647292137146,0.3497244417667389,0.6014247536659241,0.5408093929290771,0.778468132019043,0.20732760429382324,0.8991715908050537,0.5097927451133728,0.5668602585792542,0.04887571185827255,0.11048104614019394,0.507315993309021,0.6133460402488708,-0.14828020334243774,0.8633794188499451,157.4910684089863,0.4953663647174835,0.5749050080776215,160.8320801769555,149.94696606526202,0.5488222076974694,0.019781350507913256,-0.08092698149858293,-0.28044294931795843,-0.05950696869791377,68.05403514730654,4.454160488598272,25,1762115169.4787283
0.6090561151504517,0.3376580476760864,-0.08172585070133209,0.9994567036628723,0.5615631341934204,0.3829384744167328,0.05550868436694145,0.9995639324188232,0.5737700462341309,0.41070201992988586,-0.20082612335681915,0.9999586939811707,0.4920834004878998,0.5598188042640686,0.08140289783477783,0.9996923208236694,0.5030881762504578,0.5857834219932556,-0.08147221803665161,0.9997543692588806,0.5385407209396362,0.653834342956543,0.21729281544685364,0.45767995715141296,0.5618075132369995,0.6670173406600952,0.033337097615003586,0.9651726484298706,0.5222128033638,0.7617536187171936,0.36676886677742004,0.575455367565155,0.5397512912750244,0.7776241898536682,0.21893878281116486,0.8881077170372009,0.511128306388855,0.57090163230896,0.049579836428165436,0.10354070365428925,0.5077114105224609,0.6135212182998657,-0.15205669403076172,0.8629100918769836,158.2860857071972,0.49758578836917877,0.5728011131286621,159.19969451066538,151.17057589459637,0.5771101752912499,0.029955102441410336,-0.02839583541155157,0.1373130277081716,0.709002024557042,66.26615113289809,3.6513597193364844,26,1762115169.55282
0.609000563621521,0.31838685274124146,-0.1067032590508461,0.9994861483573914,0.5730284452438354,0.38267168402671814,0.031214270740747452,0.9994453191757202,0.5733464956283569,0.39468392729759216,-0.20556823909282684,0.9999538064002991,0.511529803276062,0.5618342161178589,0.0786263719201088,0.9995241165161133,0.5017205476760864,0.5706945061683655,-0.07851926982402802,0.9996837377548218,0.5609499216079712,0.655254602432251,0.1546536386013031,0.44909486174583435,0.5324751734733582,0.6644794940948486,-0.025491785258054733,0.9641146659851074,0.5341038703918457,0.7605224847793579,0.25019484758377075,0.5484220385551453,0.513203501701355,0.7699225544929504,0.17860445380210876,0.8566908240318298,0.555785059928894,0.5738831162452698,0.047721199691295624,0.10783646255731583,0.5091486573219299,0.6124703884124756,-0.1947915107011795,0.8705386519432068,159.45319445304472,0.5066251754760742,0.5662643611431122,146.85414670944064,141.15939034064064,0.5568242823073862,0.12036323477123519,-0.08703959732822004,1.2038222423888356,-0.7808663131662951,88.48332341101155,2.8865002063067586,27,1762115169.6279209
0.608993649482727,0.3023810088634491,-0.13217468559741974,0.9995134472846985,0.5721584558486938,0.365570992231369,0.009370112791657448,0.9994511604309082,0.5762320756912231,0.37953445315361023,-0.22952055931091309,0.9999557733535767,0.5084487795829773,0.5442883968353271,0.07733702659606934,0.9995369911193848,0.5133640766143799,0.5659603476524353,-0.07725553959608078,0.9996942281723022,0.5574808716773987,0.6549527049064636,0.19701144099235535,0.42368829250335693,0.5496957302093506,0.6675868034362793,0.04987683147192001,0.9616867303848267,0.5202197432518005,0.7552436590194702,0.3508782684803009,0.5187900066375732,0.5243250131607056,0.7713980078697205,0.23574428260326385,0.8486124873161316,0.564273476600647,0.5739452242851257,0.045038122683763504,0.10863953083753586,0.513131320476532,0.6122418642044067,-0.21612557768821716,0.8776844143867493,160.88102099555965,0.5109064280986786,0.5551243722438812,150.21274084722253,158.45886641832135,0.6332648765747682,0.05620551448263773,-0.14624897491595876,-0.8422809851991807,-0.7773177205065726,73.73622653784648,2.0209149603406065,28,1762115169.7040923
0.6080191135406494,0.2854453921318054,-0.13249574601650238,0.9995281100273132,0.5703619718551636,0.35160964727401733,0.016021035611629486,0.9994497895240784,0.5752320289611816,0.36492958664894104,-0.23446722328662872,0.9999573826789856,0.5089892148971558,0.5403760671615601,0.077601857483387,0.9995552897453308,0.5146422386169434,0.5635260939598083,-0.07754860073328018,0.999707818031311,0.5451809167861938,0.6561102271080017,0.20327889919281006,0.40414828062057495,0.5609380006790161,0.6690078973770142,0.04246249049901962,0.9583989381790161,0.5095041990280151,0.7552705407142639,0.3504919409751892,0.4947596490383148,0.5331618785858154,0.7723302245140076,0.2209169566631317,0.8390423059463501,0.5634915232658386,0.5656219720840454,0.050207145512104034,0.10839611291885376,0.5188143849372864,0.6128228306770325,-0.2198527604341507,0.8837879300117493,162.52321264526648,0.5118157267570496,0.5519510805606842,155.12959427559636,153.6953449231276,0.6412716861305193,0.012572813613632093,-0.04387689842851162,-0.6033065268876283,1.4154920664053745,69.91649776402085,1.9220369571162796,29,1762115169.7764149
0.6073806881904602,0.2867812514305115,-0.10762860625982285,0.9995521306991577,0.5686808824539185,0.34685471653938293,0.0282269474118948,0.9994668960571289,0.5768739581108093,0.3637005686759949,-0.21664635837078094,0.9999600052833557,0.5096296072006226,0.5374590754508972,0.0775916799902916,0.9995708465576172,0.5193215608596802,0.5621868371963501,-0.0775393694639206,0.9997178912162781,0.5448541641235352,0.654127836227417,0.1742139607667923,0.38879814743995667,0.5668889284133911,0.6732794046401978,0.036959584802389145,0.9541800618171692,0.49993711709976196,0.7488188743591309,0.2835225760936737,0.47294852137565613,0.5363837480545044,0.774585485458374,0.21957476437091827,0.8258631229400635,0.5710980296134949,0.5533342361450195,0.06832968443632126,0.11064210534095764,0.5220181941986084,0.6117589473724365,-0.19631443917751312,0.8911533951759338,163.31744381443463,0.5144755840301514,0.5498229563236237,148.2439414030849,150.94034286430025,0.6020950575005892,0.03476810356648674,-0.02781759932185642,0.2901238903203046,0.2099177952861552,64.06376577083353,1.545971056658544,30,1762115169.8529177
0.6062914133071899,0.26734423637390137,-0.12012986093759537,0.9994826316833496,0.5743119716644287,0.3474976122379303,0.013534238561987877,0.9993389844894409,0.5749191045761108,0.3540974259376526,-0.22008225321769714,0.9999532699584961,0.5161151885986328,0.5340614318847656,0.07305167615413666,0.999524712562561,0.5165938138961792,0.554429292678833,-0.07304386794567108,0.9996980428695679,0.5522089004516602,0.6477925777435303,0.17488622665405273,0.3656976521015167,0.5683565735816956,0.6754382848739624,0.02772371843457222,0.949561595916748,0.520831286907196,0.7496013045310974,0.2986646592617035,0.44492560625076294,0.5384174585342407,0.7799041867256165,0.2104102373123169,0.8118483424186707,0.5588165521621704,0.5577647686004639,0.06545604765415192,0.10487877577543259,0.5292397737503052,0.6119304299354553,-0.18757465481758118,0.8920301795005798,163.23917958718187,0.516354501247406,0.5442453622817993,154.1256318918799,146.84838143707597,0.6274301975460168,0.023809487842606468,-0.07067882305312514,-0.13886669697495385,-0.5431339794948378,84.74401504521175,1.9002689132906079,31,1762115169.9318323
0.6056158542633057,0.25459474325180054,-0.12036365270614624,0.9992945194244385,0.5734090805053711,0.3199992775917053,0.012840120121836662,0.9991504549980164,0.5731543302536011,0.34201163053512573,-0.22382402420043945,0.9999382495880127,0.5184106230735779,0.5265770554542542,0.07101593911647797,0.9992769956588745,0.5203652381896973,0.5475833415985107,-0.07098238170146942,0.9995540976524353,0.5511859655380249,0.6485595107078552,0.16250483691692352,0.34590956568717957,0.5683796405792236,0.6765744090080261,0.01615116000175476,0.9426232576370239,0.5240622162818909,0.7576727867126465,0.2875373661518097,0.41648679971694946,0.5385839343070984,0.7872952818870544,0.15879398584365845,0.7921582460403442,0.5612279176712036,0.5451974868774414,0.06409311294555664,0.09881308674812317,0.5406991243362427,0.6040548086166382,-0.18167856335639954,0.8928185105323792,165.3439507049569,0.5193879306316376,0.5370801985263824,155.47521638151542,147.98838959101425,0.6258922706575781,0.043043150986163264,-0.10167081092053182,0.2729179953911595,-0.4397639253026668,90.66305781573344,1.8936189964816468,32,1762115170.0023065
0.6046022772789001,0.2404485046863556,-0.11356606334447861,0.9988522529602051,0.5704432129859924,0.31284576654434204,0.020756345242261887,0.9987285733222961,0.5688134431838989,0.32424572110176086,-0.22253601253032684,0.9999139308929443,0.5245970487594604,0.5284003019332886,0.07071453332901001,0.9990078210830688,0.5207087993621826,0.5428513288497925,-0.07068485021591187,0.9993545413017273,0.5531899929046631,0.652216911315918,0.1380119025707245,0.3275926113128662,0.5680797100067139,0.6763112545013428,7.995021587703377e-05,0.9326674342155457,0.5240248441696167,0.7866697311401367,0.24762828648090363,0.3918974995613098,0.5400308966636658,0.7903872728347778,0.13361983001232147,0.7711292505264282,0.5681453347206116,0.551647424697876,0.05517832562327385,0.09248843789100647,0.5514366626739502,0.5920928120613098,-0.1797638088464737,0.8936899304389954,167.78965431507345,0.5226529240608215,0.5356258153915405,156.4583787268338,146.00602302730897,0.6310232626825949,0.04298648037818529,-0.019148219879839536,-0.0007461178806947631,1.0864817395403887,98.1360367657471,1.6420384213764359,33,1762115170.0782604
0.6020696759223938,0.22595155239105225,-0.11283732950687408,0.9986773729324341,0.5694421529769897,0.298893541097641,0.021548844873905182,0.9985417723655701,0.5667441487312317,0.30757319927215576,-0.22757256031036377,0.9999085664749146,0.5257800817489624,0.5283390283584595,0.07265415787696838,0.9988260269165039,0.5278009176254272,0.5432766675949097,-0.07265707850456238,0.9992675185203552,0.5515632629394531,0.6523034572601318,0.15651969611644745,0.30495333671569824,0.5669940710067749,0.6756015419960022,0.01006905548274517,0.9263774752616882,0.5264114737510681,0.7694935202598572,0.2939760982990265,0.36699604988098145,0.5409870743751526,0.7908732891082764,0.14993363618850708,0.7647585868835449,0.5710784792900085,0.5357500314712524,0.054643988609313965,0.08593295514583588,0.5620506405830383,0.5777945518493652,-0.1774296760559082,0.8930363655090332,169.92989139576275,0.5267904996871948,0.5358078479766846,156.5278983547827,151.1449943350408,0.6511015842030071,0.055115253182245486,0.002424794837267207,0.16156330282515086,0.2873668726340217,107.26745074081852,1.614621452931779,34,1762115170.1533318
0.6011146306991577,0.2275332510471344,-0.11397062242031097,0.9985979199409485,0.566001296043396,0.2965611517429352,0.024218278005719185,0.9984104037284851,0.5631389021873474,0.30791014432907104,-0.228628009557724,0.9999029636383057,0.526793360710144,0.5288307070732117,0.07280485332012177,0.9987470507621765,0.5303021669387817,0.544592559337616,-0.07279767096042633,0.9992311596870422,0.5511505603790283,0.6550502181053162,0.17507222294807434,0.28940966725349426,0.5662285089492798,0.6750141978263855,0.020969441160559654,0.9218918681144714,0.5250014066696167,0.7723582983016968,0.31777694821357727,0.35091066360473633,0.5411530137062073,0.7911216616630554,0.17677482962608337,0.7621707916259766,0.5697141885757446,0.538855791091919,0.042596664279699326,0.07924744486808777,0.5637803077697754,0.5733641982078552,-0.16731421649456024,0.8855240345001221,171.2659866877539,0.5285477638244629,0.5367116332054138,159.80094094900525,153.4618256995806,0.6650362628777076,0.021076817930951654,0.010840098714029574,-0.4082607089229897,0.10093407353085643,104.15566243006198,1.4063904638510218,35,1762115170.236706
0.5965809226036072,0.2199292778968811,-0.10424257814884186,0.9986795783042908,0.5621203780174255,0.28679531812667847,0.031036823987960815,0.9983547925949097,0.5600367188453674,0.2990151345729828,-0.2142014503479004,0.9999059438705444,0.5323137044906616,0.524721086025238,0.07288357615470886,0.9986913800239563,0.5362895131111145,0.5407333970069885,-0.07288696616888046,0.9992449283599854,0.5516071915626526,0.6536381244659424,0.20031926035881042,0.2805158793926239,0.5650507211685181,0.674644410610199,0.041981227695941925,0.9232121109962463,0.5261233448982239,0.7597781419754028,0.3492266535758972,0.3495568633079529,0.5413106679916382,0.7910572290420532,0.20081612467765808,0.7724209427833557,0.5680493712425232,0.5138505697250366,0.028196921572089195,0.07285818457603455,0.5727558732032776,0.5478475689888,-0.13964547216892242,0.8751901388168335,173.6291190187462,0.5343016088008881,0.5327272415161133,162.88405382491263,159.21886168616646,0.6755445209751854,0.08798456748489743,-0.060927081092708106,1.023115747819334,-1.0974234274260515,99.67670849991161,1.0879207781606943,36,1762115170.302102
0.5938714146614075,0.21097254753112793,-0.08218050003051758,0.998619794845581,0.5608106851577759,0.27978160977363586,0.04448280856013298,0.9981319308280945,0.5575339794158936,0.28818923234939575,-0.19317986071109772,0.9999052286148071,0.5369055867195129,0.5201029181480408,0.07188259810209274,0.9984422922134399,0.5412161946296692,0.5382818579673767,-0.07192517817020416,0.999192476272583,0.5523234605789185,0.6521816253662109,0.19345474243164062,0.2652863562107086,0.5647222399711609,0.6740133166313171,0.03365673869848251,0.9167178273200989,0.5274060964584351,0.7529955506324768,0.3382166922092438,0.3375427722930908,0.5418962240219116,0.7909539341926575,0.18146653473377228,0.7691430449485779,0.5732812881469727,0.4936935305595398,0.03336700052022934,0.06692545115947723,0.586067259311676,0.527880847454071,-0.12067858874797821,0.8645375370979309,175.31119658278817,0.5390608906745911,0.5291923880577087,162.0059891299294,159.8858103441904,0.6597041968336267,0.061899590062265884,-0.04597457889905981,-0.3392632443491019,0.19447340602077545,111.29237257936624,0.8424455552713441,37,1762115170.3789892
0.5943090915679932,0.20295363664627075,-0.08966291695833206,0.9986481070518494,0.5613959431648254,0.2761554419994354,0.035102926194667816,0.9980075359344482,0.5547678470611572,0.28840890526771545,-0.1985761821269989,0.9999066591262817,0.5449070334434509,0.5175216197967529,0.06906755268573761,0.9982684850692749,0.543199896812439,0.5331947207450867,-0.06910274922847748,0.999175488948822,0.5526663661003113,0.6498485803604126,0.17900797724723816,0.25748297572135925,0.5596774220466614,0.6711546778678894,0.03637734428048134,0.9144642949104309,0.5329331755638123,0.7514858841896057,0.29953423142433167,0.3396826982498169,0.5431699156761169,0.7876377701759338,0.17709648609161377,0.7757182121276855,0.5804421901702881,0.4848891794681549,0.03476734086871147,0.0623478926718235,0.5939372777938843,0.5155366063117981,-0.1360359638929367,0.8652904629707336,176.69700318987503,0.544053465127945,0.5253581702709198,165.96290662316295,163.25843623478704,0.6570993093901261,0.06818481531167782,-0.05236485386438824,0.08583886466341098,-0.08727355443023031,118.40967116713445,0.7741383054923863,38,1762115170.4522104
0.5935685038566589,0.19875968992710114,-0.08357494324445724,0.9987067580223083,0.5614875555038452,0.275237500667572,0.04055007919669151,0.9979271292686462,0.5537780523300171,0.2816929519176483,-0.18601466715335846,0.9999091029167175,0.5456068515777588,0.5174230933189392,0.06596143543720245,0.9981111884117126,0.5452064275741577,0.5306156873703003,-0.06600669771432877,0.9991528391838074,0.5520719289779663,0.6500415205955505,0.15691958367824554,0.25296550989151,0.5575419664382935,0.6705507636070251,0.027048995718359947,0.9105439186096191,0.5331000089645386,0.7551512122154236,0.26047641038894653,0.3447062075138092,0.5431927442550659,0.7901009321212769,0.14521339535713196,0.780250608921051,0.5787935256958008,0.4853267967700958,0.049833253026008606,0.05846855789422989,0.59409099817276,0.5137499570846558,-0.13018392026424408,0.8680738806724548,177.14959176786425,0.5454066395759583,0.5240193903446198,166.03087092698422,165.7066208605469,0.643762817429833,0.016426233351277197,-0.016251497733863546,-0.6282992902068064,0.43838133048455447,140.05932001205016,0.7337942063698945,39,1762115170.5345893
0.5934046506881714,0.1959788203239441,-0.08602333068847656,0.9987377524375916,0.5615472793579102,0.27262985706329346,0.040165677666664124,0.9979270696640015,0.5531923174858093,0.27907806634902954,-0.18806809186935425,0.9999076128005981,0.5502279996871948,0.5128332376480103,0.06470192223787308,0.9980506896972656,0.5465195775032043,0.5255574584007263,-0.0647602453827858,0.9991340041160583,0.5518147945404053,0.648764967918396,0.15757234394550323,0.24896712601184845,0.5553956627845764,0.6691471934318542,0.026538517326116562,0.9041728377342224,0.5340505838394165,0.7553355693817139,0.26265138387680054,0.34930044412612915,0.5431985855102539,0.791154146194458,0.14735060930252075,0.7820648550987244,0.5843185186386108,0.4876759946346283,0.05035397410392761,0.056620266288518906,0.5990009307861328,0.5075539350509644,-0.12173567712306976,0.870709240436554,177.8828148212814,0.5483737885951996,0.5191953480243683,167.40760108213036,165.84980867175472,0.6487927964378688,0.03554866361790069,-0.05779563365677674,0.22910101134009542,-0.4977298085276475,142.33968599962358,0.6004688026275727,40,1762115170.6180565
0.5935807228088379,0.19271248579025269,-0.08814841508865356,0.9987059235572815,0.5608698725700378,0.27056267857551575,0.039679139852523804,0.9978870153427124,0.5534210801124573,0.2785275876522064,-0.1922760307788849,0.9999043345451355,0.5507091879844666,0.5091995000839233,0.06537050008773804,0.9979561567306519,0.548754870891571,0.521840512752533,-0.06542394310235977,0.9990870356559753,0.5517575740814209,0.647646427154541,0.1614580750465393,0.24293449521064758,0.5532530546188354,0.6677165627479553,0.026232540607452393,0.8948607444763184,0.5363708734512329,0.7559794783592224,0.2699123024940491,0.34859028458595276,0.5431849956512451,0.7919736504554749,0.1507384032011032,0.7799296379089355,0.5880091190338135,0.48384416103363037,0.047908104956150055,0.05326865613460541,0.6043232679367065,0.49997973442077637,-0.1150655597448349,0.8689167499542236,178.2378856134456,0.5497320294380188,0.5155200064182281,168.0645638560701,166.22863737577794,0.6556289036192073,0.017212818800665927,-0.046577151196342835,-0.23236790151376735,0.1421704455662582,133.08220889541246,0.5824344512312362,41,1762115170.6969652
0.593755841255188,0.190949946641922,-0.09213956445455551,0.9987438917160034,0.5599075555801392,0.2669830024242401,0.03737277537584305,0.99787437915802,0.5532954931259155,0.27720996737480164,-0.19433152675628662,0.9999061226844788,0.5500795245170593,0.5056436657905579,0.06571032851934433,0.9977841973304749,0.5491889715194702,0.5187951326370239,-0.06575118005275726,0.9990596771240234,0.5512620210647583,0.646090030670166,0.16782322525978088,0.23889382183551788,0.5509749054908752,0.6657576560974121,0.034453392028808594,0.8925994038581848,0.5348384976387024,0.7545231580734253,0.27160292863845825,0.3509591221809387,0.5430915355682373,0.7906047105789185,0.1617564857006073,0.7870262861251831,0.5942037105560303,0.4605545997619629,0.045835427939891815,0.05021357536315918,0.609500527381897,0.49752017855644226,-0.12458817660808563,0.8738129138946533,178.33800302136228,0.5496342480182648,0.5122193992137909,169.8161115639626,168.3033992913028,0.6607921062349508,-0.0013572792528634828,-0.0458148970602349,-0.2577668525891663,0.01058065762341372,122.88397052009225,0.5732285904439937,42,1762115170.7690074
0.593647837638855,0.18867522478103638,-0.12042373418807983,0.9988011121749878,0.5594590306282043,0.26420941948890686,0.021365705877542496,0.997898519039154,0.5523881912231445,0.2779383957386017,-0.2184479683637619,0.9999104738235474,0.5506264567375183,0.5031119585037231,0.06742632389068604,0.9976703524589539,0.5476633310317993,0.5162901878356934,-0.06747713685035706,0.9990612864494324,0.5511347055435181,0.6419579982757568,0.1819644719362259,0.2330319732427597,0.5489189624786377,0.6623672842979431,0.03807668760418892,0.8931673765182495,0.5347046256065369,0.7496446967124939,0.30720871686935425,0.3527824878692627,0.5430556535720825,0.7904598712921143,0.1758756935596466,0.7976318001747131,0.5985662937164307,0.46461114287376404,0.032674022018909454,0.04875728115439415,0.6118709444999695,0.49543872475624084,-0.1765572726726532,0.8826794028282166,178.3728279485777,0.5491448938846588,0.5097010731697083,168.60281291932998,168.54369784836194,0.6870357538192666,-0.006886312928821862,-0.03543850967103387,-0.07780593535826251,0.1460191009447097,117.24984168576896,0.6080824235528715,43,1762115170.8400693
0.593509316444397,0.1894388645887375,-0.11596473306417465,0.9988493323326111,0.5588269829750061,0.26233959197998047,0.02381107024848461,0.9979264140129089,0.5524355173110962,0.2748136818408966,-0.21608321368694305,0.9999144077301025,0.5498477816581726,0.5015607476234436,0.06769268959760666,0.9975595474243164,0.547253429889679,0.5139465928077698,-0.06775082647800446,0.999053955078125,0.5506643056869507,0.6403639316558838,0.1817636638879776,0.22597341239452362,0.5481461882591248,0.6599416136741638,0.03777601569890976,0.8910014629364014,0.5342477560043335,0.7503607273101807,0.3057495653629303,0.350959837436676,0.5430181622505188,0.7902140021324158,0.17532573640346527,0.8051998615264893,0.5981227159500122,0.46359968185424805,0.035926517099142075,0.04732956364750862,0.6141836047172546,0.49696487188339233,-0.1794518232345581,0.890435516834259,178.3042996301615,0.5485506057739258,0.5077536702156067,169.22464029199716,169.13953470126617,0.6837326556913784,-0.008211660797174737,-0.02690851828547144,-0.018313183347632944,0.11786437351853264,117.12966317524602,0.6572408043482864,44,1762115170.9124405
0.5932854413986206,0.18578824400901794,-0.11164335161447525,0.9988771677017212,0.5584755539894104,0.25995224714279175,0.02498001977801323,0.9979515075683594,0.5524388551712036,0.27310463786125183,-0.2143644392490387,0.99991774559021,0.5496602654457092,0.49932610988616943,0.06781356036663055,0.997413158416748,0.5475777983665466,0.51279616355896,-0.067887082695961,0.9990315437316895,0.5488936901092529,0.6369590163230896,0.18116098642349243,0.2176402360200882,0.5472005605697632,0.657852828502655,0.036703791469335556,0.887160062789917,0.5336073637008667,0.748299241065979,0.30409032106399536,0.34645020961761475,0.5429835319519043,0.7892870306968689,0.17387816309928894,0.8095322251319885,0.5981186628341675,0.4631426930427551,0.036726512014865875,0.0464392714202404,0.6149102449417114,0.49570173025131226,-0.18185456097126007,0.8978121876716614,178.36476581927923,0.5486190319061279,0.5060611367225647,170.24912165854244,169.49724490645062,0.6825381401807227,0.0009443523125115165,-0.02335873542341204,0.12636257340943924,0.04899072250344571,114.65422868246652,0.7011584936524441,45,1762115170.9848988
0.593271791934967,0.18497861921787262,-0.11892662942409515,0.9989129900932312,0.5587124824523926,0.2602183520793915,0.020245946943759918,0.9979543089866638,0.5523372888565063,0.27411770820617676,-0.21547086536884308,0.9999206066131592,0.5514670610427856,0.49942535161972046,0.06783165782690048,0.9972536563873291,0.5478073954582214,0.5135132670402527,-0.06791184097528458,0.9990171790122986,0.5485018491744995,0.6318510174751282,0.1869002729654312,0.21209582686424255,0.5457091927528381,0.6571103930473328,0.04226656258106232,0.8865695595741272,0.5329620242118835,0.7401255965232849,0.31561279296875,0.34568774700164795,0.5428543090820312,0.7885535359382629,0.1842125952243805,0.8162502646446228,0.6020588874816895,0.46850496530532837,0.0318371020257473,0.04538671299815178,0.6159206032752991,0.49844247102737427,-0.18284666538238525,0.9044786691665649,178.5906056208378,0.5496372282505035,0.5064693093299866,170.9330784419368,170.287625068333,0.6890331519628757,0.013193279517573533,0.005288896715137922,0.15871547889507914,0.37120170427668053,114.63942163402619,0.6400772574338999,46,1762115171.0620742
0.5931980609893799,0.18537169694900513,-0.12347289174795151,0.9989429712295532,0.5590886473655701,0.2602200508117676,0.0158227626234293,0.9979586601257324,0.5516846776008606,0.2719128429889679,-0.21694400906562805,0.9999234080314636,0.5525628924369812,0.4990539848804474,0.0679326206445694,0.9971094727516174,0.5477709174156189,0.5117879509925842,-0.06800868362188339,0.9990050196647644,0.5462614297866821,0.6293516159057617,0.18685175478458405,0.20876164734363556,0.5445033311843872,0.6549557447433472,0.04349381476640701,0.8866854310035706,0.5331113338470459,0.7421650290489197,0.3140608072280884,0.34724733233451843,0.5424898862838745,0.7855769395828247,0.1861734241247177,0.8228208422660828,0.5995999574661255,0.46808135509490967,0.03361762315034866,0.044711776077747345,0.6119207143783569,0.5010153651237488,-0.18346863985061646,0.9108318090438843,178.7507122054143,0.5501669049263,0.5054209679365158,173.4958974788096,170.36750663984864,0.6908688708432089,0.007104834789505328,-0.014061960331572282,-0.08166754530565344,-0.2595633310556228,122.34231869498902,0.6883707758178474,47,1762115171.1366258
0.5926121473312378,0.18555133044719696,-0.12659665942192078,0.99897700548172,0.559990406036377,0.2600146234035492,0.012716509401798248,0.9978541731834412,0.5498027205467224,0.27103596925735474,-0.2156701534986496,0.999925434589386,0.5541402101516724,0.4993734657764435,0.06763475388288498,0.996729850769043,0.5472615957260132,0.5107336640357971,-0.06769417971372604,0.998957097530365,0.5452625155448914,0.6284299492835999,0.18647333979606628,0.2113802433013916,0.543451189994812,0.652626633644104,0.04187210276722908,0.8898661732673645,0.531004011631012,0.7388805747032166,0.31066441535949707,0.35429847240448,0.5420531034469604,0.7839323282241821,0.18072012066841125,0.831196665763855,0.5975111722946167,0.43850788474082947,0.03486653417348862,0.04392990842461586,0.6103886365890503,0.5018439292907715,-0.18503166735172272,0.9160431027412415,178.9964898490572,0.5507009029388428,0.5050535649061203,173.94042196640982,171.02997277558234,0.6880069294246027,0.008083609734618675,-0.005561711173589632,0.014816599478796893,0.12867594115746844,132.74904177052338,0.5358924691160364,48,1762115171.202685
0.5922077298164368,0.1857280731201172,-0.12594285607337952,0.9989791512489319,0.5606380701065063,0.25953006744384766,0.011529330164194107,0.9977282285690308,0.5487315058708191,0.27048730850219727,-0.21480794250965118,0.9999266266822815,0.554516077041626,0.49947527050971985,0.06700412184000015,0.9962911605834961,0.5469187498092651,0.5096791386604309,-0.06705375760793686,0.9988828897476196,0.5448442697525024,0.6282216906547546,0.1774527132511139,0.21299195289611816,0.5433419942855835,0.6517260670661926,0.03979334607720375,0.891670823097229,0.5300242900848389,0.738781750202179,0.29280605912208557,0.35772648453712463,0.5416142344474792,0.7839117050170898,0.16374295949935913,0.8363460302352905,0.5967026352882385,0.45075759291648865,0.028854530304670334,0.04358210414648056,0.609886109828949,0.5019484758377075,-0.182394877076149,0.92074054479599,179.05123993516438,0.5507174134254456,0.5045772045850754,174.0456309250562,173.74694034320058,0.6782229991740514,0.0002524175587850423,-0.007282747761047141,-0.11972575121239784,-0.026311753519883144,137.37760014563813,0.4794485812703549,49,1762115171.2680945
0.5919495224952698,0.18630307912826538,-0.13939295709133148,0.9989631175994873,0.5615354776382446,0.2606040835380554,0.00077296351082623,0.997565746307373,0.5478241443634033,0.2717118561267853,-0.22460222244262695,0.9999269247055054,0.5548902750015259,0.4998628795146942,0.06710594892501831,0.9960507154464722,0.5467144250869751,0.5097594857215881,-0.06716214120388031,0.9988470077514648,0.5449247360229492,0.6277226805686951,0.18406078219413757,0.21770091354846954,0.5437501668930054,0.651098906993866,0.04115855693817139,0.8946778774261475,0.5309635996818542,0.7398074865341187,0.30987608432769775,0.36617565155029297,0.5414751768112183,0.7842791080474854,0.17245300114154816,0.8429242968559265,0.5950849056243896,0.46095168590545654,0.018731795251369476,0.04297984018921852,0.6008667945861816,0.5039699673652649,-0.18830150365829468,0.9238958954811096,179.06918243322212,0.5508023500442505,0.5048111826181412,173.96623766178283,172.85699395873772,0.6923919824398665,0.001312207861091978,0.003614787339450217,0.016372975347535956,0.16835884718038843,140.9885090931437,0.4775749191248484,50,1762115171.3328226
0.5910502672195435,0.18589673936367035,-0.14275431632995605,0.9989575743675232,0.5626997351646423,0.2614665627479553,-0.0031030152458697557,0.9972895979881287,0.5469451546669006,0.2725175619125366,-0.22482271492481232,0.9999264478683472,0.556829035282135,0.4998806118965149,0.06686881929636002,0.9958776831626892,0.5464581847190857,0.5085293054580688,-0.06691265851259232,0.9988201260566711,0.5449663996696472,0.6249349117279053,0.1840578019618988,0.2217424064874649,0.5430968999862671,0.6504870653152466,0.04449053481221199,0.897719144821167,0.5318783521652222,0.7391419410705566,0.310651957988739,0.3705885112285614,0.5408165454864502,0.7837363481521606,0.176860511302948,0.8467366099357605,0.5856224298477173,0.4641072154045105,0.01709030754864216,0.041988734155893326,0.5847480893135071,0.5094448924064636,-0.18913744390010834,0.9253966212272644,179.23223852572463,0.5516436100006104,0.5042049586772919,175.16594669030573,173.28929086917955,0.6954364561871381,0.013570214369774401,-0.00977889030759409,0.19773171754029614,-0.2160510261970653,144.95238524214696,0.4136306798330758,51,1762115171.3948157
0.5904279947280884,0.18636393547058105,-0.15070028603076935,0.9990025758743286,0.5631498098373413,0.2617286443710327,-0.008468746207654476,0.9971942901611328,0.5469819903373718,0.273110568523407,-0.23033463954925537,0.9999288320541382,0.557145357131958,0.500734269618988,0.06656883656978607,0.995991587638855,0.5457940101623535,0.5093256235122681,-0.06661336123943329,0.9988644123077393,0.5441966652870178,0.6268911957740784,0.18720713257789612,0.22546997666358948,0.5423735976219177,0.6509650349617004,0.05317259579896927,0.9019712209701538,0.5356332659721375,0.7396321892738342,0.3195631802082062,0.37732335925102234,0.540346086025238,0.7837833166122437,0.19383426010608673,0.8530023694038391,0.5813320875167847,0.47549882531166077,0.01910145953297615,0.040999360382556915,0.5721381306648254,0.5221874713897705,-0.1993331015110016,0.9270882606506348,179.13289845290205,0.5514696836471558,0.505029946565628,173.9661975773305,173.54915943226817,0.7069259054652394,-0.002739988431577287,0.012996634640665259,-0.25694649548350973,0.35879942079981364,144.85497762466287,0.6789854970414694,52,1762115171.4582927
0.5894823670387268,0.18654003739356995,-0.17441701889038086,0.9990715384483337,0.5642037391662598,0.26230406761169434,-0.012387698516249657,0.997159481048584,0.5466804504394531,0.27340269088745117,-0.22934062778949738,0.9999326467514038,0.5582379102706909,0.49867337942123413,0.06576813012361526,0.996143102645874,0.545413076877594,0.5061073899269104,-0.06583292782306671,0.998910665512085,0.5442882776260376,0.6276378631591797,0.1875476986169815,0.2287348210811615,0.5414310693740845,0.6504700183868408,0.05613575503230095,0.904646635055542,0.537274181842804,0.739879846572876,0.3158986270427704,0.38033735752105713,0.5391780138015747,0.782588541507721,0.191399484872818,0.8575557470321655,0.5814308524131775,0.45607706904411316,0.039488621056079865,0.04142177850008011,0.5628676414489746,0.5236551761627197,-0.20988497138023376,0.9294799566268921,179.11655917796134,0.5518254935741425,0.5023903846740723,174.11523186774238,174.47889122884155,0.7184296369539721,0.005605838072557078,-0.04158668835315418,0.1314897320601792,-0.8599683340956241,147.65129538135807,0.7803521789452814,53,1762115171.521764
0.5890568494796753,0.18678776919841766,-0.17863157391548157,0.9991373419761658,0.5646495819091797,0.26269614696502686,-0.011137479916214943,0.9970594644546509,0.546630322933197,0.27368098497390747,-0.22769112884998322,0.999936044216156,0.558576762676239,0.49697744846343994,0.06554872542619705,0.9961968660354614,0.5453623533248901,0.5044788122177124,-0.0656205266714096,0.9989363551139832,0.5442137718200684,0.628105103969574,0.18849822878837585,0.23082296550273895,0.5412797927856445,0.649994432926178,0.056994955986738205,0.9065303802490234,0.5372570753097534,0.740157425403595,0.3153897225856781,0.381460577249527,0.5387789607048035,0.7811915874481201,0.1906738579273224,0.8617731928825378,0.5815798044204712,0.4231247901916504,0.08053696155548096,0.04210367798805237,0.5616124868392944,0.5244788527488708,-0.21827015280723572,0.9320217370986938,179.09572098605136,0.5519695580005646,0.5007281303405762,174.15688258634552,174.5457341882872,0.7199195854065212,0.0018070433570783466,-0.0208501552098473,-0.04764942273394013,0.2601045615220273,148.63282479081673,0.7760205776121529,54,1762115171.6014879
0.5883750319480896,0.18696613609790802,-0.18880872428417206,0.9992042779922485,0.5658060908317566,0.26325052976608276,-0.012188302353024483,0.9970635175704956,0.5458590984344482,0.273812472820282,-0.2283898890018463,0.9999402761459351,0.5600424408912659,0.497378408908844,0.06558811664581299,0.9963054060935974,0.545340895652771,0.5046218037605286,-0.06566136330366135,0.9989737272262573,0.5442410707473755,0.6291293501853943,0.1954154223203659,0.23179137706756592,0.5402708053588867,0.6501873731613159,0.06210709363222122,0.9075883030891418,0.5379315614700317,0.7403799295425415,0.3283839225769043,0.3788769841194153,0.5378113985061646,0.7803407311439514,0.20139560103416443,0.8649749159812927,0.5824558138847351,0.41393813490867615,0.08565648645162582,0.04448253661394119,0.5530579686164856,0.5322214365005493,-0.24145135283470154,0.9356757402420044,179.22591321690834,0.5526916682720184,0.5010001063346863,173.81924798140926,174.26771240179295,0.7329214330574103,0.011390517523439175,0.004290130537305237,0.1511690592734284,0.3965611301590625,152.09875661501465,0.7162139768540641,55,1762115171.6648836
0.5881292819976807,0.18705393373966217,-0.1740809828042984,0.9992640018463135,0.566224992275238,0.26740357279777527,-0.009164199233055115,0.9970593452453613,0.5446619391441345,0.27456986904144287,-0.2273436039686203,0.9999433159828186,0.560449481010437,0.5008272528648376,0.0653027817606926,0.9964046478271484,0.544944167137146,0.5087904334068298,-0.0653727576136589,0.99901282787323,0.5442622900009155,0.6343955397605896,0.19614291191101074,0.24483120441436768,0.5390670895576477,0.6538875699043274,0.06078994274139404,0.9115936756134033,0.5376591682434082,0.7405616044998169,0.33025839924812317,0.3887602388858795,0.5356805920600891,0.7804614305496216,0.19877466559410095,0.8706700205802917,0.5785207748413086,0.4434826672077179,0.06790586560964584,0.04558127000927925,0.5423033237457275,0.5402634739875793,-0.22766514122486115,0.9382838010787964,179.3269938088577,0.5526968240737915,0.5048088431358337,172.2736525522301,173.4860018519366,0.7237882637904824,7.425938071968929e-05,0.05485750783801325,-0.1629888732595521,0.728325542417538,161.6162142837762,0.5497890913932058,56,1762115171.7343132
0.5878421068191528,0.1870785653591156,-0.1696745604276657,0.9993200898170471,0.5662901997566223,0.26980963349342346,-0.007806745823472738,0.9970609545707703,0.5439283847808838,0.27650561928749084,-0.22067169845104218,0.9999461770057678,0.5606001019477844,0.5021634697914124,0.06486402451992035,0.9965139627456665,0.5446651577949524,0.5104798078536987,-0.06492970883846283,0.9990475177764893,0.5442968606948853,0.637178897857666,0.19435933232307434,0.25665250420570374,0.5385897755622864,0.6552101969718933,0.060006849467754364,0.9146754145622253,0.5373587608337402,0.7407340407371521,0.3261583149433136,0.39653173089027405,0.5349752902984619,0.7805510759353638,0.19600030779838562,0.8750808835029602,0.5761828422546387,0.44887229800224304,0.08305422961711884,0.04676429554820061,0.5356098413467407,0.5418247580528259,-0.2261783331632614,0.9411681890487671,179.3914285281139,0.5526326298713684,0.5063216388225555,171.5523504647047,173.41843803670938,0.7191626145259531,-0.0008722738405318197,0.0205559389132942,-0.012861537910391768,-0.46609133119265767,163.33028150804918,0.46930549482716966,57,1762115171.8079073
0.5873433947563171,0.18713930249214172,-0.19373714923858643,0.9993798732757568,0.5667651891708374,0.270868718624115,-0.0064634219743311405,0.9970784783363342,0.5432375073432922,0.2766803801059723,-0.22002768516540527,0.9999496340751648,0.5612441897392273,0.5021860599517822,0.06486660242080688,0.9967049360275269,0.5446364283561707,0.5104935765266418,-0.06493482738733292,0.999096155166626,0.5443070530891418,0.6392381191253662,0.19624021649360657,0.2771429419517517,0.53809654712677,0.6563138961791992,0.06073785945773125,0.9194979071617126,0.5370439291000366,0.740782618522644,0.3292096257209778,0.4111972153186798,0.5342596173286438,0.7805846929550171,0.195135697722435,0.8809423446655273,0.5723758339881897,0.45756739377975464,0.07167904078960419,0.04786843806505203,0.5321452617645264,0.5406854748725891,-0.23554325103759766,0.94512939453125,179.49224681175906,0.552940309047699,0.506339818239212,170.78645068671156,173.45946406975315,0.7344922767522144,0.004846475086000991,0.0002863570130240803,0.09008011047767082,-0.31928070288959787,166.12490288480794,0.371289717896388,58,1762115171.8713925
0.5870397686958313,0.18716961145401,-0.2003476619720459,0.9994338750839233,0.5670328736305237,0.2713095247745514,-0.006198388058692217,0.9970794916152954,0.5429660081863403,0.27670687437057495,-0.21986344456672668,0.9999527931213379,0.5616720914840698,0.502133846282959,0.06492050737142563,0.9968684911727905,0.5446276664733887,0.510417103767395,-0.06499092280864716,0.9991362690925598,0.5445549488067627,0.6396071314811707,0.19728413224220276,0.2980172634124756,0.5379950404167175,0.6571593880653381,0.05943720415234566,0.9240190386772156,0.5370480418205261,0.7409048080444336,0.329255074262619,0.4246726334095001,0.5340314507484436,0.7806328535079956,0.1934327483177185,0.8860313892364502,0.5711630582809448,0.4604402780532837,0.06733579933643341,0.04860629513859749,0.531929612159729,0.5397406816482544,-0.2366967648267746,0.9487255811691284,179.54375900573345,0.5531498789787292,0.506275475025177,171.06326569047388,172.9077339654951,0.738124261582527,0.0026485556482935047,-0.0008131728732459722,-0.027777419750132613,-0.01389591568041975,167.3597195597801,0.3224340761041913,59,1762115171.9505186
0.5865659713745117,0.18861278891563416,-0.21995680034160614,0.9994858503341675,0.5673184394836426,0.27166569232940674,-0.007121792994439602,0.9970709085464478,0.5430527329444885,0.27712202072143555,-0.22141893208026886,0.9999558925628662,0.5622621178627014,0.502021312713623,0.06532652676105499,0.9969834089279175,0.5448659658432007,0.5104976892471313,-0.06540487706661224,0.9991669058799744,0.5452698469161987,0.6395959854125977,0.20100529491901398,0.31897255778312683,0.538100004196167,0.657668948173523,0.059390682727098465,0.9285639524459839,0.5371227860450745,0.7406545877456665,0.3336208462715149,0.43843594193458557,0.5341095924377441,0.7809227108955383,0.19316717982292175,0.8913249969482422,0.5729876756668091,0.4555610120296478,0.080198273062706,0.05000678449869156,0.5291672945022583,0.5398725271224976,-0.2550751566886902,0.9526072144508362,179.59931048091136,0.553564041852951,0.5062595009803772,171.6167505698116,172.90213558074967,0.7507390387699407,0.006502968614297265,-0.0002508160881674703,0.06051997439789703,0.008829831815017149,167.32738284218667,0.2671523567123848,60,1762115172.014207
0.5863997340202332,0.18872155249118805,-0.2221679389476776,0.9995312690734863,0.5674183964729309,0.2716432213783264,-0.009904993698000908,0.9970540404319763,0.5427932739257812,0.2772626578807831,-0.22734470665454865,0.9999585747718811,0.5624202489852905,0.500527024269104,0.0658782422542572,0.9970635771751404,0.5453194379806519,0.5100914239883423,-0.06596817076206207,0.9991886615753174,0.5452889204025269,0.6394503712654114,0.20364125072956085,0.3337573707103729,0.5382578372955322,0.6576763987541199,0.05918443202972412,0.9318749904632568,0.5371018648147583,0.739935040473938,0.33772149682044983,0.4474999010562897,0.5342345237731934,0.7821270227432251,0.19264225661754608,0.8951902985572815,0.5737704634666443,0.4539160430431366,0.08042673766613007,0.05123351514339447,0.5296245813369751,0.5397648811340332,-0.2622910439968109,0.9557649493217468,179.69324451194228,0.5538698434829712,0.5053092241287231,171.3315477262928,173.2362869691708,0.7534067107751043,0.004804306786428641,-0.01492935641672972,-0.026686883738778613,-0.2306077011778299,167.14526113435355,0.2024163706879665,61,1762115172.0778584
0.586161732673645,0.18895334005355835,-0.21973510086536407,0.9995743632316589,0.5673875212669373,0.2717347741127014,-0.009026935324072838,0.9970223307609558,0.5424655675888062,0.27746936678886414,-0.22680827975273132,0.9999610781669617,0.5621808767318726,0.5005339980125427,0.06619907915592194,0.99714195728302,0.5452989935874939,0.5100947618484497,-0.06629396975040436,0.9992125034332275,0.5453330278396606,0.6393216252326965,0.2024170160293579,0.34774959087371826,0.5383695363998413,0.6578555703163147,0.05879003927111626,0.9349789619445801,0.5370000600814819,0.7399635910987854,0.3347476124763489,0.45599132776260376,0.5342916250228882,0.7854970097541809,0.18519146740436554,0.8983836770057678,0.5744162797927856,0.45260682702064514,0.09202863276004791,0.05194620043039322,0.5309677720069885,0.5404199361801147,-0.25375378131866455,0.9586892127990723,179.7053165317897,0.5537399351596832,0.5053143799304962,171.4685388364337,175.4474086223712,0.7495921543213365,-0.0020462790488065016,8.121272664453424e-05,-0.1079084843210432,0.23644222611249682,167.04168224607295,0.19119001406048472,62,1762115172.1413436
0.5857837200164795,0.19182096421718597,-0.230453222990036,0.9996136426925659,0.5677124261856079,0.2722729742527008,-0.009045046754181385,0.9969692230224609,0.5424365401268005,0.2779754102230072,-0.226540207862854,0.9999637007713318,0.562349796295166,0.4995720386505127,0.06630436331033707,0.9972473978996277,0.5452753901481628,0.5093199014663696,-0.06640376895666122,0.9992440938949585,0.5456205606460571,0.639302670955658,0.19837644696235657,0.3697633147239685,0.5384507775306702,0.6579567193984985,0.04899606853723526,0.9387732148170471,0.5376028418540955,0.7400355935096741,0.3195114731788635,0.4752272367477417,0.5350023508071899,0.7864472270011902,0.1673031747341156,0.9034324884414673,0.57444828748703,0.4533763825893402,0.07783851027488708,0.05242154747247696,0.5336651802062988,0.5398045778274536,-0.2579651474952698,0.9618456363677979,179.68472144945108,0.5538125932216644,0.5044459700584412,172.8309446496971,175.0776762482159,0.74398489615329,0.0011441024755411728,-0.013674324050366789,0.05023700468189465,-0.21660010258803938,167.28647680653668,0.2200686994842638,63,1762115172.2048502
0.585524320602417,0.19343198835849762,-0.2396165430545807,0.9996494650840759,0.5679111480712891,0.27271246910095215,-0.012098696082830429,0.9969668984413147,0.5423217415809631,0.2782585024833679,-0.22946329414844513,0.9999662637710571,0.5624111890792847,0.4985790252685547,0.06641687452793121,0.9973767995834351,0.5451820492744446,0.5085888504981995,-0.06652257591485977,0.9992806911468506,0.5457981824874878,0.6392832398414612,0.19875989854335785,0.38932543992996216,0.5385125875473022,0.6579129695892334,0.04954767972230911,0.9421600699424744,0.5386882424354553,0.7401091456413269,0.3196811378002167,0.49291133880615234,0.5357581973075867,0.7869763970375061,0.17278766632080078,0.907979428768158,0.5748093128204346,0.4534291625022888,0.07631725817918777,0.052895162254571915,0.5343313813209534,0.5393982529640198,-0.2651997208595276,0.9646967649459839,179.66847826107752,0.5537966191768646,0.5035839378833771,172.68673684547787,174.05618556792862,0.7506067159785863,-0.0002518711772909939,-0.013592115304369401,-0.02201105179136258,0.0012962285944153242,167.77132299432876,0.2675413472353229,64,1762115172.2682717
0.5853118300437927,0.1943351924419403,-0.2282530963420868,0.9996811151504517,0.5678757429122925,0.27268046140670776,-0.01104703452438116,0.9969453811645508,0.5418505668640137,0.27861711382865906,-0.22866304218769073,0.9999685883522034,0.5623686909675598,0.49921557307243347,0.06668025255203247,0.9974437952041626,0.5436509847640991,0.5090259313583374,-0.0667940229177475,0.999304473400116,0.5458115339279175,0.6407896876335144,0.19869615137577057,0.39973926544189453,0.5385472178459167,0.6586816310882568,0.05005498602986336,0.9451399445533752,0.538784384727478,0.7406938076019287,0.3198605179786682,0.5024847388267517,0.5357789397239685,0.7882071733474731,0.1737288534641266,0.9117551445960999,0.5749887228012085,0.4534846544265747,0.07532655447721481,0.0538153275847435,0.535659909248352,0.5390869379043579,-0.2624458968639374,0.9673936367034912,179.5352387559835,0.5530098378658295,0.5041207522153854,172.15499386522328,174.2532110909086,0.7436455777553249,-0.009878376234422849,0.006739933784944756,-0.1208648927512127,0.25527758184386395,167.15002258614115,0.37832728150759953,65,1762115172.3479185
0.5850147008895874,0.1963159292936325,-0.22637517750263214,0.9997105598449707,0.5679559707641602,0.27267760038375854,-0.010626208037137985,0.9967962503433228,0.5416630506515503,0.2802563011646271,-0.22093141078948975,0.9999707341194153,0.5622857213020325,0.49945321679115295,0.06630362570285797,0.9974843263626099,0.543273389339447,0.5099626779556274,-0.06642642617225647,0.9993301033973694,0.5458064675331116,0.6406322717666626,0.1939096748828888,0.407626211643219,0.5388644933700562,0.6588432788848877,0.04908106103539467,0.9479818344116211,0.5388361215591431,0.7404870986938477,0.3107672333717346,0.512287974357605,0.5361377000808716,0.7887522578239441,0.1642267256975174,0.9151384830474854,0.5749387741088867,0.4608689546585083,0.06907451152801514,0.05283393710851669,0.5393234491348267,0.5390276312828064,-0.25613924860954285,0.9700273275375366,179.49042980251522,0.5527795553207397,0.5047079473733902,172.25835043517554,176.20180682135907,0.735122724442164,-0.0036311772777683792,0.009259102614710803,0.09850806057516746,0.039723152312498546,163.92084316488962,0.41858464592363503,66,1762115172.4113367
0.5844157934188843,0.19768482446670532,-0.23576673865318298,0.9997373819351196,0.5679420232772827,0.27287665009498596,-0.010729160159826279,0.9966575503349304,0.5415717363357544,0.28104257583618164,-0.22103464603424072,0.999972403049469,0.5614247918128967,0.4995352327823639,0.0659436360001564,0.9975559115409851,0.5415703058242798,0.5101419687271118,-0.06607338041067123,0.9993559122085571,0.5458091497421265,0.6405062675476074,0.19001153111457825,0.4241132140159607,0.5388858318328857,0.6588943004608154,0.04610713571310043,0.9513261914253235,0.5389178991317749,0.7403357625007629,0.30271148681640625,0.5291440486907959,0.5363436937332153,0.7887338399887085,0.1546945571899414,0.9192705750465393,0.5741223096847534,0.46971431374549866,0.0495949313044548,0.05235756188631058,0.5450209379196167,0.5378817915916443,-0.24424712359905243,0.9723593592643738,179.1805599163521,0.5514975488185883,0.5048386007547379,172.57157589805874,177.07937168960254,0.7343295518229151,-0.01616942164914043,0.0016478774556531518,-0.15813972834025444,-0.0959972579365331,162.79413454445006,0.6908737070828548,67,1762115172.4906225
0.5833932161331177,0.19885775446891785,-0.24496081471443176,0.9997605085372925,0.5675103664398193,0.2726909816265106,-0.012226583436131477,0.9963887333869934,0.5410884618759155,0.2810445725917816,-0.22600392997264862,0.999973475933075,0.5598210096359253,0.4994313418865204,0.06599367409944534,0.9975874423980713,0.5401860475540161,0.5091968774795532,-0.06612689793109894,0.9993715286254883,0.5454262495040894,0.6395519971847534,0.1904798299074173,0.43788087368011475,0.5389031767845154,0.6583228707313538,0.045199569314718246,0.9542596936225891,0.5388838052749634,0.7396639585494995,0.306171178817749,0.5442867279052734,0.5363304615020752,0.7884564995765686,0.15570548176765442,0.9235259890556335,0.5730322599411011,0.46891483664512634,0.04561091214418411,0.050897907465696335,0.5492921471595764,0.5351672768592834,-0.24348220229148865,0.974099338054657,178.91795639469785,0.5500035285949707,0.5043141096830368,172.24082967008812,176.3467874410303,0.7402906178514816,-0.02354823981240699,-0.008266850301381395,-0.11630242810235542,-0.15627257463225844,162.45504714050315,0.9423736762413567,68,1762115172.5540676
0.5828365087509155,0.19958756864070892,-0.24611862003803253,0.9997818470001221,0.5674085021018982,0.27265194058418274,-0.012140946462750435,0.9962101578712463,0.540916383266449,0.28107330203056335,-0.22664029896259308,0.9999746084213257,0.5588704943656921,0.4994497001171112,0.0660005584359169,0.9976433515548706,0.5396108031272888,0.509064793586731,-0.06613293290138245,0.9993906021118164,0.5450613498687744,0.638618528842926,0.19089901447296143,0.4499701261520386,0.5389127135276794,0.6578869819641113,0.045663055032491684,0.9568216800689697,0.538872480392456,0.7395821213722229,0.308045357465744,0.5563638806343079,0.536359429359436,0.7883819341659546,0.15789853036403656,0.9269327521324158,0.5721536874771118,0.47117698192596436,0.04199918359518051,0.049747366458177567,0.5503097772598267,0.5336829423904419,-0.2396916151046753,0.9756994843482971,178.76006745710987,0.5492406487464905,0.5042572468519211,172.4103144035248,176.13675306586072,0.74169655011757,-0.012024614806463736,-0.0008962795941375423,0.18163692768480955,0.1161759270938584,162.36548852502807,1.1257336359234964,69,1762115172.6175108
