nose_x,nose_y,nose_z,nose_visibility,left_shoulder_x,left_shoulder_y,left_shoulder_z,left_shoulder_visibility,right_shoulder_x,right_shoulder_y,right_shoulder_z,right_shoulder_visibility,left_hip_x,left_hip_y,left_hip_z,left_hip_visibility,right_hip_x,right_hip_y,right_hip_z,right_hip_visibility,left_knee_x,left_knee_y,left_knee_z,left_knee_visibility,right_knee_x,right_knee_y,right_knee_z,right_knee_visibility,left_ankle_x,left_ankle_y,left_ankle_z,left_ankle_visibility,right_ankle_x,right_ankle_y,right_ankle_z,right_ankle_visibility,left_wrist_x,left_wrist_y,left_wrist_z,left_wrist_visibility,right_wrist_x,right_wrist_y,right_wrist_z,right_wrist_visibility,trunk_lateral_inclination,center_mass_x,center_mass_y,left_knee_angle,right_knee_angle,person_height,center_mass_velocity_x,center_mass_velocity_y,center_mass_acceleration_x,center_mass_acceleration_y,body_orientation,torso_leg_ratio,frame,timestamp
0.4889248013496399,0.3498246371746063,-0.1914922297000885,0.9999978542327881,0.4727347493171692,0.4417738914489746,0.037345100194215775,0.9998168349266052,0.44943541288375854,0.45636940002441406,-0.1858244687318802,0.9998923540115356,0.47155970335006714,0.6385980248451233,0.0735601857304573,0.9999074935913086,0.4560919404029846,0.6575567126274109,-0.07366637885570526,0.9998410940170288,0.5589950084686279,0.6671904921531677,0.09053751081228256,0.3709470331668854,0.5653356313705444,0.6757352948188782,-0.10826705396175385,0.9335698485374451,0.5165086984634399,0.8143762946128845,0.15480586886405945,0.39669373631477356,0.5306168794631958,0.809893012046814,0.03405163809657097,0.889883816242218,0.5289738178253174,0.6082956790924072,0.04488230496644974,0.2150571346282959,0.5337483882904053,0.6345004439353943,-0.1013043075799942,0.9690163731575012,-179.21096263118397,0.4638258218765259,0.6480773687362671,95.85234338461571,74.19299386974649,0.5446844497929374,0.0,0.0,0.0,0.0,147.93555068208443,0.07099715254459073,0,1762115158.2370236
0.49196791648864746,0.3510308265686035,-0.19334755837917328,0.9999977946281433,0.4732779562473297,0.43779343366622925,0.037160396575927734,0.999823272228241,0.44931158423423767,0.4560297131538391,-0.20114228129386902,0.999901294708252,0.47858136892318726,0.6366015076637268,0.07838864624500275,0.9998992681503296,0.4610966145992279,0.6601787209510803,-0.07847149670124054,0.9998365640640259,0.5630365610122681,0.6528379917144775,0.1064520850777626,0.36731669306755066,0.5687869787216187,0.6749690175056458,-0.11022879928350449,0.9370784759521484,0.5297641754150391,0.8058923482894897,0.16193905472755432,0.39458364248275757,0.5307123064994812,0.8125969171524048,0.01918131485581398,0.8928930759429932,0.5336649417877197,0.60792475938797,0.02292262762784958,0.23572254180908203,0.5346799492835999,0.6331896185874939,-0.1390121430158615,0.9706515073776245,-177.57167846229802,0.4698389917612076,0.6483901143074036,94.7014987693811,73.5660785454179,0.5403962587915649,0.08474990255179876,0.0044078509647371925,1.1944691602405282,0.06212446128887365,142.73208941102703,0.23950481706584525,1,1762115158.3079755
0.49928736686706543,0.3512803912162781,-0.1880190074443817,0.9999971985816956,0.47657138109207153,0.4366750121116638,0.03581200912594795,0.9998233914375305,0.45051518082618713,0.45591041445732117,-0.21235832571983337,0.9999081492424011,0.4828140139579773,0.6360593438148499,0.08116155862808228,0.9998824000358582,0.4650590419769287,0.6608877182006836,-0.08120732009410858,0.999823272228241,0.5644027590751648,0.6539925336837769,0.1063026636838913,0.3672477602958679,0.5691801309585571,0.6765710115432739,-0.12210577726364136,0.940475583076477,0.5297669768333435,0.8058212995529175,0.16705165803432465,0.39133191108703613,0.5292993783950806,0.8137175440788269,0.015111970715224743,0.8964003920555115,0.5379633903503418,0.6065481305122375,0.027273591607809067,0.26042288541793823,0.5367134809494019,0.6332644820213318,-0.16327714920043945,0.9721032381057739,-177.05726047653013,0.473936527967453,0.6484735310077667,95.60425538057517,70.10576196472076,0.537609773895561,0.05014504773408961,0.0010208413570953398,-0.42348914306611807,-0.04144972732447117,143.5642383791567,0.2789439442275445,2,1762115158.3896892
0.5086256861686707,0.35191550850868225,-0.1939988136291504,0.9999949932098389,0.4819486141204834,0.4360394775867462,0.023728836327791214,0.9997670650482178,0.45699524879455566,0.45614713430404663,-0.2249595671892166,0.9999077320098877,0.48420149087905884,0.6338201761245728,0.08094735443592072,0.9997925758361816,0.4676600396633148,0.6605910658836365,-0.08095794171094894,0.9997364282608032,0.5655959248542786,0.6603530645370483,0.1021510511636734,0.3663882613182068,0.5696643590927124,0.6765667200088501,-0.11986599862575531,0.9434710741043091,0.5186818838119507,0.8064355850219727,0.17889954149723053,0.3862530291080475,0.5294848084449768,0.8158389329910278,0.012919194996356964,0.8989073634147644,0.5404794812202454,0.6015869379043579,0.020987391471862793,0.25993892550468445,0.5388023257255554,0.63246750831604,-0.18097929656505585,0.9727364778518677,-178.16054642108156,0.47593076527118683,0.6472056210041046,96.3927376156676,71.06096876773209,0.5432957843572213,0.025860303233605504,-0.016441642680253644,-0.31491280178007053,-0.2264450331825276,141.1378057792695,0.14831597531713353,3,1762115158.466805
0.5176635384559631,0.35356247425079346,-0.1799570620059967,0.9999915957450867,0.48686447739601135,0.43603846430778503,0.026647809892892838,0.9997004866600037,0.4643464982509613,0.45613783597946167,-0.21983787417411804,0.9999067783355713,0.4859038293361664,0.6334441900253296,0.08037808537483215,0.9996743202209473,0.4690930247306824,0.6604338884353638,-0.08038923144340515,0.999637246131897,0.5606060028076172,0.681248128414154,0.08896969258785248,0.37120506167411804,0.5694526433944702,0.6762374043464661,-0.11616126447916031,0.9451547265052795,0.49542325735092163,0.8099222183227539,0.17320097982883453,0.38650983572006226,0.530091404914856,0.8171678185462952,0.0113752456381917,0.900562584400177,0.5418142080307007,0.5985676050186157,0.02671225741505623,0.2524689733982086,0.5412458777427673,0.6322998404502869,-0.1807711124420166,0.9725039005279541,-179.46002620603585,0.4774984270334244,0.6469390392303467,97.7435483510586,72.50519052399025,0.5345329241431077,0.022167101563606205,-0.0037695282211029526,-0.05222272972768285,0.17918664281298616,138.2481492051115,0.03621256673219015,4,1762115158.5375252
0.5191429853439331,0.35473132133483887,-0.17718051373958588,0.9999874234199524,0.4879317879676819,0.4358993470668793,0.027990173548460007,0.9996659755706787,0.4660032391548157,0.4570257365703583,-0.22244659066200256,0.9999039173126221,0.4848726689815521,0.6334984302520752,0.08033542335033417,0.9995647072792053,0.4689963757991791,0.6603731513023376,-0.08032481372356415,0.9995273947715759,0.5493477582931519,0.7099028825759888,0.08210379630327225,0.38675782084465027,0.5759999752044678,0.6723417043685913,-0.1120949536561966,0.9465057849884033,0.4812970757484436,0.8189362287521362,0.17589646577835083,0.39512068033218384,0.5302162766456604,0.8179664015769958,0.009083593264222145,0.9031450748443604,0.5406500697135925,0.5940886735916138,0.028721917420625687,0.2553558647632599,0.5418021082878113,0.6325485110282898,-0.19430893659591675,0.9729694128036499,179.9905710370558,0.4769345223903656,0.6469357907772064,104.96653708565043,71.32571089839993,0.5365981996360332,-0.006836869048926711,-3.938475947113133e-05,-0.35164872539653375,0.04522484908539539,136.06735784474955,0.0005796243795413458,5,1762115158.6200051
0.5281520485877991,0.3558218777179718,-0.17755629122257233,0.9999772906303406,0.4921899437904358,0.4355831444263458,0.013066357001662254,0.9996101260185242,0.4712454378604889,0.4571721851825714,-0.22825393080711365,0.9998936057090759,0.48448461294174194,0.633256733417511,0.07692775130271912,0.9993999004364014,0.4689618647098541,0.6602534651756287,-0.0768146738409996,0.9993714690208435,0.5483556389808655,0.7059043645858765,0.07978422939777374,0.39271703362464905,0.5729205012321472,0.6765968799591064,-0.0994463711977005,0.9464499354362488,0.4878501892089844,0.8186135292053223,0.18076542019844055,0.3902386724948883,0.5302262902259827,0.8179349899291992,0.01997772976756096,0.9024412631988525,0.5415874719619751,0.592521607875824,0.029101943597197533,0.2550729215145111,0.5437403917312622,0.6327440738677979,-0.19628337025642395,0.9737778306007385,178.57218562260968,0.47672323882579803,0.6467550992965698,107.00139783615522,76.32936066573107,0.5398809516747136,-0.002870289397399148,-0.0024546956226011757,0.05388602535659092,-0.032812022913633575,134.13183118087355,0.09679014779434225,6,1762115158.6936157
0.5389237403869629,0.35640254616737366,-0.1282702535390854,0.9999679923057556,0.4972274899482727,0.4356377422809601,0.013819036073982716,0.9995990991592407,0.4812011122703552,0.4553101360797882,-0.2073090374469757,0.9998939633369446,0.4847771227359772,0.6339543461799622,0.07302694767713547,0.9993544816970825,0.46955832839012146,0.661907434463501,-0.0728340819478035,0.9993393421173096,0.5630713701248169,0.6830825209617615,0.09746160358190536,0.39194580912590027,0.572841227054596,0.6786413192749023,-0.09353302419185638,0.9478998184204102,0.507896363735199,0.8088507056236267,0.16873207688331604,0.38505056500434875,0.5289972424507141,0.8178441524505615,0.01864798367023468,0.9020830392837524,0.5429473519325256,0.5927046537399292,0.03132285922765732,0.2508871555328369,0.5470948815345764,0.6336925029754639,-0.1337788999080658,0.9736502170562744,176.59480649344331,0.4771677255630493,0.6479308903217316,104.08503600303214,76.68764894768928,0.5084135113599781,0.005889602676413631,0.015579636889774848,0.11607159332147997,0.23896113006444245,129.16844104683895,0.2433135727162223,7,1762115158.7690854
0.5488771796226501,0.35776397585868835,-0.11123721301555634,0.9999688267707825,0.5011318922042847,0.43620792031288147,0.024781642481684685,0.999625563621521,0.4915621280670166,0.4549770653247833,-0.1927626132965088,0.9999008178710938,0.48437222838401794,0.6339842677116394,0.07111382484436035,0.9993956089019775,0.4708740711212158,0.6619570851325989,-0.07093744724988937,0.9993798136711121,0.5656870007514954,0.6585926413536072,0.11084307730197906,0.40388721227645874,0.5733366012573242,0.679472029209137,-0.075698621571064,0.9501190185546875,0.5292262434959412,0.7993606328964233,0.16863326728343964,0.3911742568016052,0.5297664403915405,0.8177895545959473,0.045566897839307785,0.9021525979042053,0.5454655885696411,0.5929622054100037,0.03454345837235451,0.2510126829147339,0.552571177482605,0.6388087868690491,-0.09746359288692474,0.9727159142494202,174.71409020148647,0.4776231497526169,0.6479706764221191,100.97944429847425,82.34910594531095,0.5012758277834256,0.00500729394124478,0.00043743987249692646,-0.009700800451801399,-0.166485296825679,117.01552532337494,0.46790397807678363,8,1762115158.8600376
0.5558348894119263,0.3590020537376404,-0.09061092138290405,0.9999669790267944,0.5100749731063843,0.4381202757358551,0.05056716129183769,0.9996380805969238,0.49995821714401245,0.4542320668697357,-0.17416444420814514,0.9998982548713684,0.485062837600708,0.6388113498687744,0.06925768405199051,0.999404788017273,0.47321686148643494,0.6613621711730957,-0.06907821446657181,0.9993757605552673,0.5648145079612732,0.6781039834022522,0.09421278536319733,0.42680755257606506,0.5728925466537476,0.6801416873931885,-0.08433182537555695,0.9504451751708984,0.49757662415504456,0.8090665340423584,0.14700844883918762,0.40335655212402344,0.5296550989151001,0.8177030682563782,0.03876263648271561,0.8992979526519775,0.5472873449325562,0.593589723110199,0.05766016244888306,0.2519907057285309,0.5557507872581482,0.6414706707000732,-0.09849458932876587,0.971625030040741,172.76768565318687,0.47913984954357147,0.6500867605209351,94.37219697981557,79.32010158114254,0.4918506681675798,0.01884218944375333,0.02628843078016705,0.1718729860368273,0.3211507451217476,122.12512571633854,0.46845348669768894,9,1762115158.9405324
0.5558311939239502,0.3592303395271301,-0.08811375498771667,0.9999668598175049,0.5116090774536133,0.43882352113723755,0.05183931067585945,0.999658465385437,0.4991861879825592,0.4527284502983093,-0.16458627581596375,0.9999010562896729,0.48472362756729126,0.6393099427223206,0.0678953006863594,0.9994400143623352,0.4732140898704529,0.6611878275871277,-0.06773139536380768,0.9994043707847595,0.564139187335968,0.6779866814613342,0.09676242619752884,0.4444437026977539,0.5737637281417847,0.681412935256958,-0.07855316251516342,0.9518833160400391,0.5006282925605774,0.8227511048316956,0.14062955975532532,0.41706758737564087,0.529897153377533,0.8176248073577881,0.04285507649183273,0.8986669778823853,0.54637610912323,0.5939344167709351,0.05274689942598343,0.2525137662887573,0.5563262701034546,0.6436588764190674,-0.07524234056472778,0.9696433544158936,172.63516996917286,0.47896885871887207,0.6502488851547241,96.86166118253755,81.17417006210182,0.4964634247780265,-0.0021511709868803877,0.0020396287875606637,-0.26410953894685785,-0.30506501974479727,131.77811902425182,0.4922500383456858,10,1762115159.0200198
0.5624539256095886,0.3590787649154663,-0.09073843061923981,0.9999610185623169,0.5217168927192688,0.43744468688964844,0.04903838783502579,0.9996652603149414,0.5062047243118286,0.45076146721839905,-0.16939853131771088,0.9998937249183655,0.4872364103794098,0.638913631439209,0.06586961448192596,0.999459445476532,0.47444453835487366,0.6573644280433655,-0.06570523232221603,0.9994159936904907,0.5627462863922119,0.6857797503471375,0.09870217740535736,0.462268203496933,0.5735223889350891,0.6834092736244202,-0.06181089207530022,0.9520525932312012,0.49894484877586365,0.823852002620697,0.1474919617176056,0.42880725860595703,0.5301753878593445,0.8175690770149231,0.05097690969705582,0.8973155617713928,0.5476201772689819,0.5978009700775146,0.04434407502412796,0.24885505437850952,0.5568949580192566,0.6432978510856628,-0.08852726966142654,0.9672959446907043,170.77982862226497,0.4808404743671417,0.6481390297412872,102.42026068946288,88.88154051067046,0.5014851965080753,0.02800445566983094,-0.03156916990407289,0.4512101139379736,-0.5028789505720787,139.35479500506165,0.6182024927323247,11,1762115159.0868526
0.5690147876739502,0.35895872116088867,-0.09299015253782272,0.9999512434005737,0.5279275178909302,0.43651431798934937,0.0479898527264595,0.9996631145477295,0.5170053839683533,0.4478905498981476,-0.1682225465774536,0.9998897910118103,0.48854976892471313,0.6388422846794128,0.06591955572366714,0.9994838833808899,0.47762423753738403,0.6551811695098877,-0.06578884273767471,0.9994343519210815,0.5625470876693726,0.68480384349823,0.10011938959360123,0.47501224279403687,0.5761642456054688,0.6837217807769775,-0.06565813720226288,0.9518378376960754,0.49916204810142517,0.8225491642951965,0.146170973777771,0.43798401951789856,0.5306850075721741,0.8173367977142334,0.05263281986117363,0.8933824300765991,0.5493136644363403,0.6047108769416809,0.026714101433753967,0.2355327010154724,0.5598710179328918,0.6444084644317627,-0.06994219869375229,0.959244966506958,169.1163491963204,0.4830870032310486,0.6470117270946503,102.52230499011361,88.02055333277472,0.5024410939308511,0.028284959115305645,-0.014193322766951238,0.003531683306822315,0.21877089307126868,133.83335386598245,0.7234462051294359,12,1762115159.1662774
0.5758774280548096,0.3582218587398529,-0.08871860802173615,0.9999199509620667,0.5363016128540039,0.43397819995880127,0.0463750846683979,0.9996461272239685,0.5234036445617676,0.44414418935775757,-0.1745983362197876,0.9998747110366821,0.4896029531955719,0.6374287009239197,0.06655555218458176,0.9994885921478271,0.47878989577293396,0.6516122221946716,-0.06643971055746078,0.9994363784790039,0.558710515499115,0.6900708675384521,0.10821086168289185,0.4835513234138489,0.5757866501808167,0.6837457418441772,-0.068142369389534,0.9510244131088257,0.49531644582748413,0.8220416307449341,0.1586953103542328,0.44316112995147705,0.5308054685592651,0.8176384568214417,0.047078557312488556,0.8903812170028687,0.5484863519668579,0.6111119389533997,0.02071753330528736,0.22117653489112854,0.5635126829147339,0.6469157338142395,-0.07430467009544373,0.9508081078529358,167.47156716096475,0.48419642448425293,0.6445204615592957,108.23494275281627,89.21026855097742,0.5037359838683091,0.014453914896392773,-0.032457049049969405,-0.1801955167985138,-0.2379459962780551,141.75533975293752,0.8425422065766098,13,1762115159.2430332
0.5801219344139099,0.354134738445282,-0.05347399786114693,0.9998939633369446,0.532453179359436,0.42364364862442017,0.07769832760095596,0.9996582865715027,0.5323306918144226,0.44135093688964844,-0.17648932337760925,0.9998804330825806,0.4826125204563141,0.636717677116394,0.07196174561977386,0.9995273351669312,0.4820418953895569,0.6500301957130432,-0.07188032567501068,0.9994769096374512,0.5234078168869019,0.7366969585418701,0.15386030077934265,0.4979570209980011,0.5764158964157104,0.683978259563446,-0.03361515700817108,0.9512335062026978,0.482848584651947,0.8290868401527405,0.24236717820167542,0.4617345631122589,0.5327030420303345,0.8150992393493652,0.11736645549535751,0.8823992013931274,0.5512750148773193,0.611292839050293,0.037283726036548615,0.2085682600736618,0.5660133361816406,0.6463308334350586,-0.046503301709890366,0.9445249438285828,166.644533386407,0.4823272079229355,0.6433739364147186,144.61614951653596,106.1260578711379,0.5278890686542277,-0.021906408132130354,-0.013436777883645487,-0.4261272302860012,0.22290933622994022,90.3963287508195,1.1881404989779125,14,1762115159.3283606
0.5819226503372192,0.3495277464389801,-0.06196611374616623,0.9998857975006104,0.5343191623687744,0.41942644119262695,0.06981734931468964,0.9996645450592041,0.5323003530502319,0.4406181275844574,-0.17598214745521545,0.9998828768730164,0.4827858507633209,0.6336632966995239,0.072535440325737,0.9995630979537964,0.4816017746925354,0.6489829421043396,-0.07245104759931564,0.9995137453079224,0.5323662161827087,0.7317113876342773,0.15106098353862762,0.5164092183113098,0.5763714909553528,0.6841513514518738,-0.032898884266614914,0.9533143043518066,0.48803868889808655,0.8329707384109497,0.23678191006183624,0.48724570870399475,0.5337111949920654,0.8078429102897644,0.1151459664106369,0.8804344534873962,0.5531588792800903,0.6112170219421387,0.04639739170670509,0.19533371925354004,0.5652958154678345,0.6463792324066162,-0.04404454678297043,0.9373138546943665,166.40079588833507,0.48219381272792816,0.6413231194019318,139.9531221528058,106.69853100506056,0.5323397341160929,-0.001750039880265368,-0.026905103735607915,0.2644356738647271,-0.17669382589117352,95.4418149930736,1.1752166649632405,15,1762115159.4045846
0.5855997800827026,0.33980825543403625,-0.048496000468730927,0.999879777431488,0.5332473516464233,0.4106561839580536,0.08997757732868195,0.999682605266571,0.5391448736190796,0.4310910105705261,-0.17679406702518463,0.9998902678489685,0.4788505434989929,0.6310264468193054,0.07818907499313354,0.9996016621589661,0.48347458243370056,0.6459553837776184,-0.07815176248550415,0.999553918838501,0.52193683385849,0.7369496822357178,0.16103287041187286,0.5304208397865295,0.5778915286064148,0.6821771264076233,-0.034371983259916306,0.953408420085907,0.4815114438533783,0.8400846719741821,0.24857905507087708,0.5097492933273315,0.533856987953186,0.8060680627822876,0.1229691132903099,0.8767644166946411,0.5536680817604065,0.6105507612228394,0.05303804203867912,0.18547333776950836,0.5654399991035461,0.646068811416626,-0.046776965260505676,0.9320592880249023,165.80794254768657,0.48116256296634674,0.6384909152984619,145.51818517814905,108.62931599159964,0.5426798095793776,-0.01789556104443093,-0.049148017591983485,-0.28017767407228045,-0.3859874082418007,73.901779809283,1.3031563270563309,16,1762115159.4622107
0.5894827842712402,0.32637959718704224,-0.05407734587788582,0.9998856782913208,0.5347310900688171,0.3972540497779846,0.09201283752918243,0.99970543384552,0.5435191988945007,0.42061084508895874,-0.18801845610141754,0.9998987913131714,0.4787745475769043,0.6120078563690186,0.08265373110771179,0.9996384382247925,0.4856991767883301,0.631072461605072,-0.08265902101993561,0.9995929002761841,0.5281623601913452,0.732604444026947,0.16894204914569855,0.5439907908439636,0.5784225463867188,0.6764668822288513,-0.021545255556702614,0.9546884894371033,0.4859943985939026,0.8374703526496887,0.2700377106666565,0.5348377227783203,0.5349217057228088,0.8066778182983398,0.1425292044878006,0.8807005286216736,0.5570343732833862,0.6040698289871216,0.08417759090662003,0.17790487408638,0.5680915117263794,0.6458656787872314,-0.05528019741177559,0.9282931685447693,165.02006219946867,0.4822368621826172,0.6215401589870453,144.46288541757173,117.63303796956488,0.5654605927731736,0.014513044528544971,-0.2289930751268218,0.43781800141446203,-2.4295832005752556,69.38094446576517,1.3280669912602174,17,1762115159.5362337
0.591230034828186,0.31295526027679443,-0.048572838306427,0.9998893737792969,0.5339313745498657,0.3837776482105255,0.08628012239933014,0.9997228980064392,0.5466806888580322,0.40829697251319885,-0.1820985972881317,0.9999057650566101,0.47765594720840454,0.6042761206626892,0.08183322846889496,0.9996704459190369,0.4912160038948059,0.6191031336784363,-0.08174813538789749,0.9996273517608643,0.514924943447113,0.725530743598938,0.16187849640846252,0.5568407773971558,0.5795082449913025,0.6717575788497925,-0.018306158483028412,0.9561848640441895,0.47808369994163513,0.8382240533828735,0.2537100911140442,0.5600690245628357,0.5349885821342468,0.8050345778465271,0.13379156589508057,0.8839348554611206,0.5548599362373352,0.5998728275299072,0.06970489770174026,0.16737063229084015,0.5686925649642944,0.6448850631713867,-0.03925050050020218,0.9200813174247742,165.47545460822795,0.4844359755516052,0.6116896271705627,150.82826537110995,120.60633925369143,0.5697746130848474,0.02956548078864788,-0.1324332402709174,0.20236906443582275,1.298176793723445,62.526919107577896,1.3733544842510959,18,1762115159.6106148
0.5916579961776733,0.2978488802909851,-0.0539921410381794,0.9998915195465088,0.536045253276825,0.3669084310531616,0.081678107380867,0.9997349381446838,0.54852294921875,0.3912600576877594,-0.1825060397386551,0.9999104738235474,0.4796716570854187,0.5878535509109497,0.08152445405721664,0.9996915459632874,0.49293437600135803,0.60517817735672,-0.081514872610569,0.9996468424797058,0.5188605785369873,0.7210386395454407,0.150935560464859,0.5721708536148071,0.5800284743309021,0.6732176542282104,-0.03175296634435654,0.9564470052719116,0.4748757481575012,0.8367987871170044,0.23488378524780273,0.5830451846122742,0.5348952412605286,0.8053849339485168,0.1131216511130333,0.8859941363334656,0.5554133653640747,0.5886737108230591,0.07268651574850082,0.1573161631822586,0.5706793665885925,0.6443902850151062,-0.050599176436662674,0.9142506718635559,165.56190251892457,0.48630301654338837,0.5965158641338348,147.20338778118534,120.20433208980694,0.5773164983036008,0.02839971531152535,-0.23080936752012765,-0.01773255531934773,-1.4964074273804,62.86954279167893,1.2563071105956958,19,1762115159.6763563
0.5934098362922668,0.29455649852752686,-0.06027267500758171,0.9998893737792969,0.5378770232200623,0.3658654987812042,0.07934162020683289,0.9997421503067017,0.5485890507698059,0.389955997467041,-0.18674594163894653,0.9999139904975891,0.48380881547927856,0.5847135782241821,0.08032459020614624,0.9997115135192871,0.4938158094882965,0.6008098721504211,-0.08031074702739716,0.999668300151825,0.5099917650222778,0.7206711769104004,0.16786311566829681,0.5792974233627319,0.5797075033187866,0.6732881665229797,-0.019507931545376778,0.9571208357810974,0.4603913426399231,0.8317663669586182,0.26863130927085876,0.6010106801986694,0.5348041653633118,0.8091974258422852,0.13142289221286774,0.8890898823738098,0.5577163100242615,0.5861614346504211,0.06802328675985336,0.14847174286842346,0.570762038230896,0.6443145871162415,-0.05587238073348999,0.9050852656364441,165.78619883126942,0.48881231248378754,0.5927617251873016,150.96599992702085,124.802617223149,0.5945867913903535,0.029937875654595467,-0.0447898325430305,0.01835146359035584,2.2193594696463363,66.02730503739521,1.1516911628795719,20,1762115159.760173
0.5926342606544495,0.2830083668231964,-0.06139581650495529,0.9998779892921448,0.5374423265457153,0.3528839647769928,0.07740061730146408,0.9997420907020569,0.5508614182472229,0.3754790127277374,-0.18961040675640106,0.9999156594276428,0.48809194564819336,0.5738773941993713,0.07965433597564697,0.9997257590293884,0.49808916449546814,0.5915921330451965,-0.07962585985660553,0.9996800422668457,0.5126651525497437,0.7089753746986389,0.16364075243473053,0.5690997242927551,0.5769222378730774,0.674931526184082,-0.0172500591725111,0.9544006586074829,0.4685661792755127,0.830180287361145,0.25922852754592896,0.6018879413604736,0.5346250534057617,0.8120571374893188,0.1281573474407196,0.8851697444915771,0.5539020299911499,0.5719857811927795,0.08199478685855865,0.13699516654014587,0.570805013179779,0.6441957354545593,-0.05767069384455681,0.8935372829437256,166.84968073380264,0.49309055507183075,0.5827347636222839,154.47274207424363,130.0435934543578,0.6024292914681637,0.051189284175873706,-0.11997285670680394,0.25427365735958773,-0.8995668454792413,59.294124718795054,1.182000141192462,21,1762115159.84375
0.5920668840408325,0.26990798115730286,-0.05238593369722366,0.9998236894607544,0.5368044376373291,0.3407156765460968,0.07359001785516739,0.9997261166572571,0.5523827075958252,0.3630356192588806,-0.1962243616580963,0.9999134540557861,0.49098482728004456,0.5616355538368225,0.07982856780290604,0.9997262954711914,0.5047718286514282,0.5821168422698975,-0.07982905954122543,0.9996689558029175,0.5140687227249146,0.6998688578605652,0.16314631700515747,0.5514281392097473,0.5752406716346741,0.6797646284103394,-0.020765136927366257,0.9487766623497009,0.4705802798271179,0.8283764123916626,0.258980393409729,0.5939229130744934,0.5345631837844849,0.8163664937019348,0.12302163988351822,0.8750823736190796,0.5427873730659485,0.5706379413604736,0.07591153681278229,0.12539377808570862,0.571175217628479,0.6390944123268127,-0.059032827615737915,0.8739300966262817,168.01179053015014,0.4978783279657364,0.57187619805336,156.0183969035363,134.29712942135248,0.610297040500317,0.06765756766135798,-0.15344590292073354,0.2327186416055465,-0.47301844495035456,55.08677168240653,1.1100485478421642,22,1762115159.9145148
0.5941237211227417,0.26089778542518616,-0.05747254937887192,0.9997705221176147,0.5383249521255493,0.338381290435791,0.07768025994300842,0.9997118711471558,0.5523821115493774,0.35778936743736267,-0.20306333899497986,0.9999117255210876,0.49333319067955017,0.5614898800849915,0.08190266788005829,0.9997255206108093,0.504278302192688,0.5815934538841248,-0.08194909989833832,0.9996546506881714,0.5262123942375183,0.671532154083252,0.15992394089698792,0.527113139629364,0.5752707719802856,0.6810964345932007,-0.02096887305378914,0.943407416343689,0.4780832827091217,0.8133812546730042,0.2574441730976105,0.5761772990226746,0.533727765083313,0.8164553046226501,0.11835043132305145,0.8650462031364441,0.5457234978675842,0.5746276378631592,0.07634036242961884,0.11589867621660233,0.5712507367134094,0.6299924850463867,-0.08536436408758163,0.8596315979957581,168.23309173708137,0.4988057464361191,0.5715416669845581,150.66547264827895,134.4878545229847,0.6123132551313133,0.012221934206805542,-0.004408599616677664,-0.730555500490034,1.9640800496352617,54.08440024959129,1.038154290640357,23,1762115159.9903963
0.5943815112113953,0.2327907532453537,-0.058740418404340744,0.9997219443321228,0.5379494428634644,0.31688904762268066,0.0745481476187706,0.9996916651725769,0.5527541637420654,0.3319469094276428,-0.20986831188201904,0.9999131560325623,0.49729427695274353,0.5495920181274414,0.08161094039678574,0.9997248649597168,0.5115584135055542,0.5668127536773682,-0.0816720649600029,0.9996429681777954,0.5195539593696594,0.6812654137611389,0.16308064758777618,0.5089064836502075,0.5724388957023621,0.6875756978988647,-0.0074469903483986855,0.93764328956604,0.4777490198612213,0.8141757249832153,0.26665082573890686,0.5621424913406372,0.5318921208381653,0.8200835585594177,0.14654895663261414,0.849141538143158,0.539836585521698,0.57346510887146,0.07377597689628601,0.1060987040400505,0.570236086845398,0.6181880235671997,-0.09487252682447433,0.8527480363845825,170.07061874570914,0.5044263452291489,0.5582023859024048,157.0452653346623,141.36024617238266,0.6479803844756118,0.07104583495318259,-0.16861199261047372,0.743549450445066,-2.075573722119609,45.485676656571975,0.9938946502992231,24,1762115160.0695086
0.5946357846260071,0.2279747873544693,-0.0727514922618866,0.9995473623275757,0.5397264361381531,0.31168660521507263,0.06587444245815277,0.999599277973175,0.5525000095367432,0.3277466893196106,-0.21649868786334991,0.999904990196228,0.50429368019104,0.5449791550636292,0.08126752078533173,0.9996557235717773,0.5125316977500916,0.5600190758705139,-0.08131033182144165,0.9995405077934265,0.5427521467208862,0.6772174835205078,0.14463277161121368,0.49713999032974243,0.5713942050933838,0.6895145177841187,-0.022931650280952454,0.9371260404586792,0.5019196271896362,0.8042078614234924,0.24797801673412323,0.5470702052116394,0.5308845043182373,0.8203044533729553,0.11156058311462402,0.8444249033927917,0.5414637327194214,0.572935938835144,0.058594487607479095,0.09761244803667068,0.56971675157547,0.6071192622184753,-0.12409530580043793,0.8502753376960754,170.80047944910757,0.5084126889705658,0.5524991154670715,148.32561227732955,139.38992838944577,0.6413049076961266,0.05925273761428875,-0.08477301722304911,-0.17529178304951373,1.2461767305385802,51.50260976281465,0.9269382317484147,25,1762115160.1367855
0.5950981378555298,0.21464413404464722,-0.09559507668018341,0.9994051456451416,0.5428587198257446,0.3003139793872833,0.05198613554239273,0.9995101690292358,0.551297128200531,0.3161950707435608,-0.2327372282743454,0.9999021291732788,0.5125197768211365,0.5358462929725647,0.08151349425315857,0.9996169209480286,0.5129023790359497,0.5519927740097046,-0.08155877888202667,0.9995102882385254,0.5446401834487915,0.6685234308242798,0.1604306697845459,0.4891785979270935,0.5693930983543396,0.6889133453369141,-0.015254179015755653,0.9387634992599487,0.5069197416305542,0.8066931962966919,0.2809293270111084,0.5454093813896179,0.5308901071548462,0.8205854892730713,0.1337522715330124,0.8494236469268799,0.5422508120536804,0.5609815120697021,0.04559113457798958,0.09021256864070892,0.5689355134963989,0.5984042882919312,-0.1533185988664627,0.8523609042167664,171.7030853885396,0.5127110779285431,0.5439195334911346,154.45758410486485,141.52674299518563,0.6755522265602435,0.0581617609105221,-0.11609084251684001,-0.01476207174915243,-0.42376338781405126,62.01608411357746,0.9017159948858721,26,1762115160.2106895
0.5951917171478271,0.19712267816066742,-0.10053185373544693,0.999292254447937,0.5442513823509216,0.2870475649833679,0.051634691655635834,0.9993646144866943,0.5506811738014221,0.3014169931411743,-0.24100954830646515,0.9998988509178162,0.5181287527084351,0.5278835892677307,0.0839018002152443,0.999420702457428,0.514467716217041,0.5431215763092041,-0.08390603959560394,0.9993929266929626,0.5537154674530029,0.6680986881256104,0.15905192494392395,0.4719303250312805,0.5646191835403442,0.6888629794120789,-0.020548272877931595,0.9386653900146484,0.5234871506690979,0.8009806871414185,0.27540868520736694,0.527266263961792,0.5265080332756042,0.8208690285682678,0.11762453615665436,0.8494894504547119,0.5423702597618103,0.5532225966453552,0.04911515861749649,0.08404301106929779,0.5665192604064941,0.5851585865020752,-0.16096161305904388,0.8521109223365784,172.6391202381875,0.516298234462738,0.5355025827884674,154.20041141428922,143.43552622638134,0.6855057412007876,0.042616372277990526,-0.09999560966214226,-0.18468334538924372,0.19121564077233189,65.89323701623033,0.9121268523910563,27,1762115160.2948627
0.5945553183555603,0.18229249119758606,-0.10857269912958145,0.9992136359214783,0.5437942147254944,0.273315966129303,0.03762107342481613,0.9992273449897766,0.5499159693717957,0.2869672477245331,-0.24121816456317902,0.9998967051506042,0.518277645111084,0.5202797651290894,0.08288074284791946,0.9992358684539795,0.5181642770767212,0.5357823967933655,-0.0828886330127716,0.9992983937263489,0.5481690764427185,0.6628736257553101,0.1596568375825882,0.4543848931789398,0.5646775960922241,0.6885788440704346,-0.015990564599633217,0.9357401728630066,0.5173290967941284,0.8030490279197693,0.27695420384407043,0.5067487359046936,0.5255421996116638,0.8207162618637085,0.1206171065568924,0.842301070690155,0.5426520109176636,0.5443603992462158,0.04378938674926758,0.07840640097856522,0.5653725862503052,0.5799902677536011,-0.15546506643295288,0.8522562384605408,173.41087052675525,0.5182209610939026,0.5280310809612274,156.8633345855772,144.94952459472577,0.7044142288230313,0.025368678670743522,-0.09857986360147472,-0.22756807433861356,0.018679518091811335,65.8467188245415,0.8183825270011617,28,1762115160.370654
0.5943375825881958,0.17953455448150635,-0.12173642963171005,0.9991698861122131,0.5436682105064392,0.2693803012371063,0.023630516603589058,0.9990783333778381,0.5490979552268982,0.2859916388988495,-0.24732689559459686,0.999894380569458,0.5207709670066833,0.5197828412055969,0.08033882081508636,0.999082088470459,0.5192758440971375,0.5349093079566956,-0.08039815723896027,0.9992310404777527,0.5458729267120361,0.6648125648498535,0.16025611758232117,0.44583767652511597,0.5647985339164734,0.6868531703948975,-0.011560945771634579,0.9359679818153381,0.5135617256164551,0.8030710220336914,0.278047651052475,0.5004521012306213,0.5242024660110474,0.8219543695449829,0.1259882152080536,0.8424525260925293,0.5441243052482605,0.5381350517272949,0.043981608003377914,0.07312382012605667,0.5642843842506409,0.5799306035041809,-0.16522060334682465,0.8529818058013916,173.97291197442115,0.5200234055519104,0.5273460745811462,158.02556867710706,145.71135922512184,0.7149627579568719,0.022594750008218988,-0.008586976338275687,-0.03477290209521865,1.1281161986412809,71.8989944868847,0.7230816513712186,29,1762115160.4504268
0.5939525365829468,0.16749057173728943,-0.114598348736763,0.9991416335105896,0.5430402755737305,0.25958725810050964,0.029983777552843094,0.9989906549453735,0.5486319661140442,0.27452361583709717,-0.24240370094776154,0.9998950958251953,0.5221166610717773,0.5167025327682495,0.07962525635957718,0.9990147352218628,0.5231738090515137,0.5314055681228638,-0.079717256128788,0.9992009997367859,0.5470312237739563,0.667712926864624,0.1599908173084259,0.44040971994400024,0.5651967525482178,0.6866174340248108,-0.00928980391472578,0.9346798658370972,0.5132080316543579,0.8047814965248108,0.27630487084388733,0.49602076411247253,0.5248395204544067,0.8237131834030151,0.1306450515985489,0.8416581153869629,0.544901430606842,0.5329527258872986,0.04644034430384636,0.0683615505695343,0.5641753673553467,0.5698197484016418,-0.15852585434913635,0.8539674282073975,174.84374320072044,0.5226452350616455,0.5240540504455566,157.44455112528235,146.97030564888686,0.7246235346087783,0.03362611992783537,-0.04222166162125799,0.1414821850574157,-0.43137967471227046,69.47572084131939,0.6252393616990956,30,1762115160.5283968
0.5937002897262573,0.15646788477897644,-0.10932743549346924,0.9991338849067688,0.5429477095603943,0.25163543224334717,0.03191595897078514,0.9988809823989868,0.5474938154220581,0.2644875645637512,-0.23596496880054474,0.9998936057090759,0.5251988768577576,0.5183775424957275,0.07709807902574539,0.9989166855812073,0.527199387550354,0.5323559045791626,-0.0772075355052948,0.9991614818572998,0.5522300601005554,0.6693168878555298,0.15972758829593658,0.43476954102516174,0.5642174482345581,0.6899029016494751,-0.00463023129850626,0.9329535365104675,0.5192078351974487,0.8051610589027405,0.2754667103290558,0.4950728118419647,0.5252317786216736,0.8313618898391724,0.12960605323314667,0.8406544327735901,0.5468970537185669,0.5321390628814697,0.046998631209135056,0.06455328315496445,0.5641491413116455,0.5639714002609253,-0.14853104948997498,0.8532344698905945,175.92965278945533,0.5261991322040558,0.5253667235374451,157.34399208487906,150.12193240528126,0.7350777204988685,0.05352807992157229,0.019771216599095785,0.2997592959086545,0.9337241926188274,70.5200978631437,0.5283060172500679,31,1762115160.59479
0.593073844909668,0.14764252305030823,-0.105330690741539,0.9991358518600464,0.5412286520004272,0.24556013941764832,0.036684729158878326,0.9987735152244568,0.5458091497421265,0.2563701272010803,-0.23309381306171417,0.9998944997787476,0.5270355343818665,0.5171612501144409,0.07695622742176056,0.9988349080085754,0.5310551524162292,0.5306481122970581,-0.07705891132354736,0.999141275882721,0.5554108023643494,0.6699814796447754,0.162751242518425,0.4369736611843109,0.5629593133926392,0.6951037049293518,-0.0011923406273126602,0.9320968985557556,0.5233575105667114,0.8037687540054321,0.2824551463127136,0.5006615519523621,0.5255075097084045,0.8329062461853027,0.12904711067676544,0.8431410789489746,0.5469409823417664,0.5268571376800537,0.048181917518377304,0.06131559610366821,0.5641735196113586,0.55709308385849,-0.1514875441789627,0.8536589741706848,176.964537521813,0.5290453433990479,0.5239046812057495,157.01182354260192,151.87974727691068,0.742506083027016,0.04391459408555674,-0.022558057408136312,-0.14832782928360627,-0.6531043406879324,67.03625190754835,0.4164627329595064,32,1762115160.6596024
0.5917325019836426,0.13869760930538177,-0.11098811775445938,0.9990618228912354,0.5393622517585754,0.2414218634366989,0.03386523574590683,0.9984915256500244,0.5425311923027039,0.25040939450263977,-0.23298585414886475,0.9998903274536133,0.529111921787262,0.5146124362945557,0.07701131701469421,0.9987496733665466,0.533379316329956,0.5265175104141235,-0.07710683345794678,0.9991363286972046,0.5527396202087402,0.6702514886856079,0.17723394930362701,0.43127378821372986,0.559626579284668,0.6946537494659424,0.015630409121513367,0.9320422410964966,0.5201616287231445,0.8026405572891235,0.3034934997558594,0.5099233388900757,0.5240728259086609,0.8367167711257935,0.14804773032665253,0.8514218330383301,0.5482162833213806,0.5227635502815247,0.04174857586622238,0.05711466446518898,0.5641255378723145,0.5491923689842224,-0.15782110393047333,0.8483600616455078,177.97705225270994,0.531245619058609,0.5205649733543396,159.53145223897076,157.04050144249663,0.7628813326571742,0.0345680226242649,-0.05246937858186313,-0.14684182517279917,-0.4699298574530737,70.57770639514906,0.2847664690011119,33,1762115160.723253
0.5904804468154907,0.13818660378456116,-0.11929942667484283,0.9990039467811584,0.5368940830230713,0.24129115045070648,0.027933429926633835,0.9983298778533936,0.5410977602005005,0.25280311703681946,-0.24074189364910126,0.9998893141746521,0.528910756111145,0.5121459364891052,0.07716221362352371,0.9987254738807678,0.5334532260894775,0.5243264436721802,-0.07726738601922989,0.9991535544395447,0.5511507987976074,0.6686123013496399,0.1857338845729828,0.42930302023887634,0.5575971603393555,0.6939976811408997,0.02798135206103325,0.9322612881660461,0.5214935541152954,0.8009430766105652,0.318342924118042,0.5196282267570496,0.5243315100669861,0.8372935652732849,0.16520121693611145,0.8596810102462769,0.5482199788093567,0.5203635692596436,0.03848377242684364,0.05379171296954155,0.5644883513450623,0.5518377423286438,-0.16083262860774994,0.8489444851875305,178.3495594953395,0.5311819911003113,0.5182361900806427,161.2716155457282,159.7211690427127,0.7736963568627612,-0.0008521239638811193,-0.031187737078048967,-0.4743568160825038,0.2850098793249223,69.93997158601287,0.24835736371438405,34,1762115160.7979228
0.5879520773887634,0.13283132016658783,-0.11334166675806046,0.99891197681427,0.5344384908676147,0.23901201784610748,0.029683804139494896,0.998092770576477,0.5391994714736938,0.2473250776529312,-0.22877895832061768,0.9998872876167297,0.5293446779251099,0.5109589099884033,0.07642349600791931,0.9986538887023926,0.5356153249740601,0.5222326517105103,-0.076534703373909,0.9991512298583984,0.5504113435745239,0.6674953103065491,0.17893187701702118,0.41667866706848145,0.5555443167686462,0.6938443779945374,0.02709759771823883,0.9292731881141663,0.5239928364753723,0.8015791773796082,0.3025842308998108,0.5192743539810181,0.5252413749694824,0.8384919166564941,0.15757551789283752,0.8643322587013245,0.5466331243515015,0.5174837112426758,0.04283622279763222,0.05022094026207924,0.5651341080665588,0.5473139882087708,-0.15512463450431824,0.8483197689056396,179.0908573452971,0.532480001449585,0.5165957808494568,162.555951544734,161.84553925231805,0.7708432544735315,0.01795342349205093,-0.022689311871997044,0.2601088332347511,0.11754592467243895,60.19975936845064,0.15298716158277162,35,1762115160.8702216
0.585651695728302,0.13017036020755768,-0.09883372485637665,0.9988490343093872,0.5339334011077881,0.23576927185058594,0.03763822093605995,0.9979565143585205,0.5366166830062866,0.24099549651145935,-0.21603024005889893,0.9998852610588074,0.5326992869377136,0.5102183818817139,0.0742696225643158,0.9986265301704407,0.5380116105079651,0.5208041071891785,-0.07436041533946991,0.9991427063941956,0.5498921275138855,0.6657987833023071,0.17598237097263336,0.41067156195640564,0.5500198602676392,0.6938790678977966,0.029585715383291245,0.92616868019104,0.5262418985366821,0.8001401424407959,0.2970323860645294,0.520626962184906,0.5250627994537354,0.8384033441543579,0.15998253226280212,0.8652539253234863,0.5451847910881042,0.516121506690979,0.04981445521116257,0.04739060997962952,0.5652337670326233,0.5469310283660889,-0.15315723419189453,0.8535597920417786,-179.98337609998467,0.5353554487228394,0.5155112445354462,164.49902982177227,164.60815532822068,0.7652534799271538,0.0442700877289579,-0.016697408508607715,0.4051686307510768,0.09225072218433107,62.82283715959237,0.003308283916409408,36,1762115160.935174
0.5836993455886841,0.12458045780658722,-0.0911707878112793,0.9988420009613037,0.5339436531066895,0.2329430729150772,0.04191645607352257,0.997797966003418,0.5360363721847534,0.2371477335691452,-0.20503363013267517,0.9998798370361328,0.534363329410553,0.509149968624115,0.0711667537689209,0.9985774755477905,0.5383073091506958,0.5179091691970825,-0.07124580442905426,0.9991272687911987,0.5494813323020935,0.6661150455474854,0.1654873788356781,0.40765711665153503,0.5484261512756348,0.6937090754508972,0.02555931732058525,0.9241691827774048,0.5271026492118835,0.8006231784820557,0.2797352373600006,0.526090145111084,0.5250648260116577,0.8374587297439575,0.15425172448158264,0.8688510656356812,0.5452194213867188,0.5145426988601685,0.05733255669474602,0.04480382800102234,0.5653331875801086,0.5465317964553833,-0.14504513144493103,0.857807457447052,-179.72321660532953,0.5363353192806244,0.5135295689105988,164.8400364837042,163.74227959453367,0.7619449820924603,0.012861244543192877,-0.026010389447825882,-0.4122552819058596,-0.12223708971941141,63.539820517681015,0.05882149399676767,37,1762115161.0113618
0.5831449627876282,0.12602387368679047,-0.08873571455478668,0.9988473057746887,0.5337163209915161,0.2338985800743103,0.04369538649916649,0.9976246953010559,0.5342332124710083,0.2391689121723175,-0.20270204544067383,0.9998740553855896,0.5343027114868164,0.5112431645393372,0.07071880996227264,0.9985036253929138,0.5381205081939697,0.5208272933959961,-0.07079748809337616,0.9991088509559631,0.5491862893104553,0.6663951277732849,0.1655472218990326,0.3997843861579895,0.5489632487297058,0.6944096684455872,0.028680864721536636,0.9220878481864929,0.5268905162811279,0.800707221031189,0.28037595748901367,0.5265821218490601,0.525123655796051,0.8365753889083862,0.1542961299419403,0.8721223473548889,0.5452945828437805,0.5157596468925476,0.05647330358624458,0.04242580756545067,0.5657055974006653,0.546174943447113,-0.14012780785560608,0.8606563210487366,-179.54147315342226,0.5362116098403931,0.5160352289676666,165.05025459614927,164.48748463167266,0.7593836739666558,-0.001648614385481073,0.033391689490172655,-0.19336569720453736,0.791622059573999,84.39859050033553,0.09696449125099887,38,1762115161.0864003
0.5820487141609192,0.12947851419448853,-0.09248648583889008,0.9988074898719788,0.533819317817688,0.23470747470855713,0.03852338343858719,0.997448205947876,0.5327780246734619,0.23994268476963043,-0.20674315094947815,0.9998694062232971,0.5363206267356873,0.5122696161270142,0.0705898106098175,0.9984209537506104,0.5391309857368469,0.5220641493797302,-0.07066719233989716,0.9990976452827454,0.5490745306015015,0.6668074727058411,0.16914525628089905,0.3897959291934967,0.5497003197669983,0.6942927837371826,0.034554049372673035,0.9204217195510864,0.5250263214111328,0.798732578754425,0.28910917043685913,0.5274060368537903,0.5251321196556091,0.8335012793540955,0.16615158319473267,0.8764995336532593,0.5471168756484985,0.5169833898544312,0.05177994817495346,0.040048748254776,0.5659905076026917,0.5446163415908813,-0.15073314309120178,0.8650176525115967,-179.09364866384539,0.5377258062362671,0.5171668827533722,164.80498577751698,164.21981512042586,0.7597319538634651,0.018035850192541433,0.013479320254904411,0.23446499755051547,-0.23717960859269402,101.24942220583897,0.18211764038656336,39,1762115161.170355
0.580557644367218,0.13367345929145813,-0.09262450039386749,0.9987182021141052,0.5331366062164307,0.2365996539592743,0.03803159296512604,0.997138500213623,0.5310887098312378,0.2418966144323349,-0.2007274627685547,0.9998643398284912,0.5360211133956909,0.5130290985107422,0.07069256156682968,0.9982770085334778,0.5403546690940857,0.522925853729248,-0.07077674567699432,0.9990830421447754,0.5489231944084167,0.6668664813041687,0.16870573163032532,0.3769032061100006,0.5502963662147522,0.6940825581550598,0.03285995125770569,0.9203594923019409,0.5241009593009949,0.7957073450088501,0.2890644371509552,0.526883602142334,0.525000810623169,0.8317358493804932,0.16125601530075073,0.882601261138916,0.5470945835113525,0.5175119042396545,0.05298937112092972,0.03756605461239815,0.56590336561203,0.5452091097831726,-0.15818095207214355,0.867949366569519,-178.75136892857597,0.5381878912448883,0.5179774761199951,163.9889121962499,164.21200080361268,0.7527213026329621,0.00557698505418362,0.009783193581989053,-0.1503682295948882,-0.044609201399380696,111.13736254493041,0.24242851521623252,40,1762115161.2532108
0.5792111754417419,0.13542330265045166,-0.09087185561656952,0.9986170530319214,0.5327932834625244,0.23743890225887299,0.03916361182928085,0.9968517422676086,0.5290195941925049,0.2425394207239151,-0.19779692590236664,0.9998577833175659,0.5367594957351685,0.5136824250221252,0.07081548124551773,0.9981105923652649,0.5395929217338562,0.5236176252365112,-0.0708983987569809,0.9990435838699341,0.5488399863243103,0.667506992816925,0.16912519931793213,0.3650684058666229,0.5505229234695435,0.694043755531311,0.03423430770635605,0.9194453358650208,0.5234190821647644,0.7945350408554077,0.2886987328529358,0.5248627662658691,0.5234940052032471,0.8311460614204407,0.1609354466199875,0.8867436051368713,0.5478392839431763,0.5186491012573242,0.05262601375579834,0.03538208454847336,0.5662573575973511,0.5447181463241577,-0.15779313445091248,0.8699917197227478,-178.50559324595497,0.5381762087345123,0.5186500251293182,163.88704816089356,164.14977101314034,0.7494412703667233,-0.00020776709732404458,0.011960918584978863,-0.10287867286891254,0.03872965553461939,126.49640050132257,0.27719799125286315,41,1762115161.3094397
0.5768944621086121,0.136215478181839,-0.09085522592067719,0.9984701871871948,0.5321866273880005,0.23721402883529663,0.03951319307088852,0.9965451955795288,0.5255196690559387,0.24336203932762146,-0.20032143592834473,0.9998515248298645,0.5392820835113525,0.5151882767677307,0.07077115029096603,0.9979462027549744,0.5387929677963257,0.5237999558448792,-0.07084760069847107,0.9989995360374451,0.5508065819740295,0.6675326228141785,0.17424815893173218,0.352694571018219,0.5501190423965454,0.6936640739440918,0.04000985249876976,0.9145838022232056,0.5232806205749512,0.7884607911109924,0.2983815371990204,0.5165157914161682,0.5228110551834106,0.8257420659065247,0.17449016869068146,0.8857981562614441,0.548688530921936,0.5186911821365356,0.045458436012268066,0.033689603209495544,0.5664734244346619,0.5417909026145935,-0.16035360097885132,0.8709547519683838,-177.9109937325062,0.5390375256538391,0.5194941163063049,162.91253583396903,163.15813509162908,0.74840302176195,0.011128712779786953,0.010906146225456069,0.14647387698457331,-0.013628268960932697,137.31895092687148,0.3714489377722273,42,1762115161.3868356
0.5760934948921204,0.13730013370513916,-0.09541062265634537,0.9981238842010498,0.5308485627174377,0.2376662939786911,0.037973977625370026,0.9960115551948547,0.523945152759552,0.24384547770023346,-0.20237553119659424,0.9998389482498169,0.539574921131134,0.5160620212554932,0.07081425935029984,0.9976158738136292,0.5386280417442322,0.5239113569259644,-0.07089550793170929,0.998918890953064,0.5522312521934509,0.6675461530685425,0.1797834187746048,0.34142953157424927,0.5486882925033569,0.693970799446106,0.04286951944231987,0.912129819393158,0.525178074836731,0.7896804213523865,0.3103574216365814,0.5114525556564331,0.5228679180145264,0.8258518576622009,0.18003661930561066,0.8886664509773254,0.5490723252296448,0.5192103981971741,0.03465300053358078,0.03180024400353432,0.5670976638793945,0.5394910573959351,-0.18028125166893005,0.8697500824928284,-177.5997161969009,0.5391014814376831,0.5199866890907288,163.2545142113684,163.7836175367707,0.7538233004515542,0.0007693256319511761,0.005925169638811295,-0.12461331227799596,-0.05991628481329843,138.16854579239052,0.44272346257027945,43,1762115161.4699678
