nose_x,nose_y,nose_z,nose_visibility,left_shoulder_x,left_shoulder_y,left_shoulder_z,left_shoulder_visibility,right_shoulder_x,right_shoulder_y,right_shoulder_z,right_shoulder_visibility,left_hip_x,left_hip_y,left_hip_z,left_hip_visibility,right_hip_x,right_hip_y,right_hip_z,right_hip_visibility,left_knee_x,left_knee_y,left_knee_z,left_knee_visibility,right_knee_x,right_knee_y,right_knee_z,right_knee_visibility,left_ankle_x,left_ankle_y,left_ankle_z,left_ankle_visibility,right_ankle_x,right_ankle_y,right_ankle_z,right_ankle_visibility,left_wrist_x,left_wrist_y,left_wrist_z,left_wrist_visibility,right_wrist_x,right_wrist_y,right_wrist_z,right_wrist_visibility,trunk_lateral_inclination,center_mass_x,center_mass_y,left_knee_angle,right_knee_angle,person_height,center_mass_velocity_x,center_mass_velocity_y,center_mass_acceleration_x,center_mass_acceleration_y,body_orientation,torso_leg_ratio,frame,timestamp
0.4123009145259857,0.38301920890808105,-0.10624923557043076,0.9996960163116455,0.4701652526855469,0.4658810496330261,-0.2127445489168167,0.9998220801353455,0.45959433913230896,0.4501906633377075,0.05041152238845825,0.9997127652168274,0.5013760924339294,0.6959230899810791,-0.07786060869693756,0.9999223947525024,0.49207907915115356,0.668481171131134,0.07779605686664581,0.9998966455459595,0.3902873396873474,0.7332579493522644,-0.012622934766113758,0.9620519280433655,0.43079179525375366,0.7443857192993164,0.1791006177663803,0.7872467637062073,0.43782129883766174,0.8306893110275269,0.15360327064990997,0.936834454536438,0.5008150935173035,0.8377962112426758,0.26102277636528015,0.7732925415039062,0.4098443388938904,0.6747049689292908,-0.1740228831768036,0.9912633895874023,0.42729097604751587,0.6207495331764221,0.13720542192459106,0.32710912823677063,-171.91397837872006,0.4967275857925415,0.6822021305561066,110.22231923958115,123.59057091115415,0.5524264247928511,0.0,0.0,0.0,0.0,-123.96890327632752,0.5418167923857211,0,1762115149.4897268
0.40863722562789917,0.3869064748287201,-0.07886700332164764,0.999679446220398,0.4645043909549713,0.46637868881225586,-0.18581309914588928,0.9998084902763367,0.4613956809043884,0.45019227266311646,0.054017432034015656,0.99970942735672,0.4959180951118469,0.6970040798187256,-0.07406219840049744,0.9998952746391296,0.4936339855194092,0.6703402400016785,0.07402758300304413,0.9998599886894226,0.38792458176612854,0.726667046546936,-0.0305013507604599,0.9625483155250549,0.43100565671920776,0.7492549419403076,0.17909733951091766,0.7839613556861877,0.43473872542381287,0.8256796002388,0.12680530548095703,0.9337369799613953,0.4938446581363678,0.8380503058433533,0.2600088119506836,0.773701012134552,0.4082919657230377,0.6747561693191528,-0.10722385346889496,0.9886888861656189,0.42754411697387695,0.623174786567688,0.11329088360071182,0.3146669268608093,-171.96261724625512,0.49477604031562805,0.683672159910202,101.85938852573652,125.90202187920667,0.5246128399058915,-0.023452250997785248,0.017665741226222914,-0.28183205739740547,0.21229400093435583,-100.87165977457953,0.5804744385541702,1,1762115149.5729403
0.40152034163475037,0.39102962613105774,-0.059449851512908936,0.9996404647827148,0.4568714201450348,0.4663483798503876,-0.1719924807548523,0.9997959136962891,0.4611850678920746,0.45044970512390137,0.06480777263641357,0.9996863603591919,0.4928070604801178,0.6986176371574402,-0.07304053008556366,0.9998688101768494,0.4943048357963562,0.6730014085769653,0.07299108803272247,0.9998251795768738,0.38644108176231384,0.725426971912384,-0.03593621402978897,0.9622575044631958,0.4302126467227936,0.7490651607513428,0.17887941002845764,0.7775753736495972,0.4320616126060486,0.8189773559570312,0.11146614700555801,0.9286794066429138,0.49130359292030334,0.8379996418952942,0.2465217113494873,0.7714372277259827,0.4069579541683197,0.6747562885284424,-0.09758256375789642,0.9860633611679077,0.42653465270996094,0.6273609399795532,0.09580450505018234,0.3003194034099579,-171.36672515584124,0.493555948138237,0.6858095228672028,98.6002741239483,122.76060297125287,0.5018418073468923,-0.015235411189939594,0.026689461759916162,0.10260448798391816,0.11268008707989118,-74.81989187729238,0.6471104695864691,2,1762115149.653023
0.39350053668022156,0.39845919609069824,-0.05841387063264847,0.9996070265769958,0.4489313066005707,0.4666535556316376,-0.17503833770751953,0.9997941255569458,0.45937108993530273,0.4512996971607208,0.06574570387601852,0.9996773600578308,0.4889732897281647,0.7019482254981995,-0.07265092432498932,0.9998626708984375,0.4965978264808655,0.6796084642410278,0.07255162298679352,0.9998172521591187,0.38300126791000366,0.7254605889320374,-0.008032496087253094,0.9613927602767944,0.43404680490493774,0.7481309771537781,0.21249620616436005,0.76111900806427,0.4298286437988281,0.8165130019187927,0.12202803790569305,0.923485517501831,0.4904114603996277,0.8402647376060486,0.2490992248058319,0.7687525153160095,0.4063378870487213,0.6753539443016052,-0.09988424181938171,0.9830331802368164,0.4265260100364685,0.6293532252311707,0.10088886320590973,0.28329965472221375,-170.53749980359063,0.4927855581045151,0.6907783448696136,105.48416939851492,114.39784300665553,0.49880126865781127,-0.011444251222786146,0.07381254272225311,0.056318209206655555,0.7000199292808272,-55.786442481832395,0.7487712093153158,3,1762115149.7203398
0.3837297856807709,0.4019014537334442,-0.06634001433849335,0.9996034502983093,0.4397713541984558,0.46711310744285583,-0.17931325733661652,0.9997846484184265,0.45192575454711914,0.45142656564712524,0.06330506503582001,0.9996564388275146,0.48689088225364685,0.7024821639060974,-0.07267451286315918,0.9998376965522766,0.4963899254798889,0.6798069477081299,0.0725739523768425,0.9997832775115967,0.3805970549583435,0.7256968021392822,-0.010016964748501778,0.9614312052726746,0.4319540858268738,0.74542236328125,0.2033756971359253,0.7481014728546143,0.4300662875175476,0.8175666928291321,0.11246158182621002,0.9221592545509338,0.48719295859336853,0.841359555721283,0.2468886375427246,0.7659778594970703,0.403997004032135,0.6755951046943665,-0.08680152148008347,0.9788271188735962,0.42562779784202576,0.6310215592384338,0.10548875480890274,0.2644751965999603,-168.8286741411161,0.4916404038667679,0.6911445558071136,103.01216041963414,116.29949619066116,0.4989412881324321,-0.013759224140894455,0.004400087085056892,-0.027814795780709944,-0.8340025332840081,-52.23040795554103,0.8746405010585311,4,1762115149.803568
0.3833218216896057,0.4034670889377594,-0.06823264807462692,0.9995812177658081,0.43908587098121643,0.4683021903038025,-0.1840558499097824,0.9997830986976624,0.44920769333839417,0.45146068930625916,0.06432449072599411,0.999644935131073,0.48791590332984924,0.702641487121582,-0.07450626790523529,0.9998270869255066,0.4962148666381836,0.6792396306991577,0.07438584417104721,0.9997671246528625,0.3801742196083069,0.7259149551391602,-0.014735991135239601,0.9615704417228699,0.4287448525428772,0.735835075378418,0.21105356514453888,0.7323033213615417,0.4305093288421631,0.8207685947418213,0.10547854006290436,0.9207545518875122,0.48426875472068787,0.8412931561470032,0.24735300242900848,0.7634006142616272,0.4020872116088867,0.6755936145782471,-0.09245109558105469,0.9753129482269287,0.4256535470485687,0.6331506967544556,0.09415470063686371,0.24639096856117249,-168.28369934216656,0.4920653849840164,0.6909405589103699,101.32623270203916,110.76939707607619,0.4981461569661023,0.0063533646991730825,-0.0030497041631023666,0.3006783284226213,-0.11137257353621104,-58.993932216022394,0.9053116380660244,5,1762115149.8704586
0.3750816285610199,0.40252116322517395,-0.07020838558673859,0.9995800852775574,0.4331217408180237,0.46828702092170715,-0.18981948494911194,0.9997802972793579,0.4427817761898041,0.4505697786808014,0.06315355002880096,0.9996364712715149,0.4889152944087982,0.7004908919334412,-0.07592038810253143,0.9998129606246948,0.49612313508987427,0.6779423356056213,0.0757683515548706,0.999748170375824,0.3809460699558258,0.7258672118186951,0.007562188897281885,0.9620600938796997,0.4361611008644104,0.7449551224708557,0.2329365760087967,0.721907377243042,0.43076053261756897,0.822595477104187,0.12134668976068497,0.9221302270889282,0.4919610917568207,0.8525645732879639,0.274264395236969,0.7682341933250427,0.40135374665260315,0.6750690340995789,-0.0892152190208435,0.9720970988273621,0.4261799454689026,0.6400988101959229,0.09326906502246857,0.2280087023973465,-166.6414914907583,0.49251921474933624,0.6892166137695312,107.50861016227442,116.53598728862457,0.5182198148994979,0.005383612436469979,-0.02045051516942753,-0.011503807684593213,-0.20641930013624815,-61.399298716535306,1.0333135493409389,6,1762115149.954757
0.3672739863395691,0.40182578563690186,-0.07276911288499832,0.9996007680892944,0.4253671169281006,0.4681132137775421,-0.1903466284275055,0.9997818470001221,0.4368312358856201,0.44901198148727417,0.06595106422901154,0.9996341466903687,0.4884513318538666,0.6977482438087463,-0.07770757377147675,0.9998149275779724,0.4964781403541565,0.6739721894264221,0.07749968767166138,0.9997495412826538,0.3813227117061615,0.7261289954185486,0.0012197836767882109,0.9619737863540649,0.4357434809207916,0.7361108660697937,0.23454387485980988,0.7021669149398804,0.4308386743068695,0.8238509297370911,0.08569042384624481,0.9230930209159851,0.48839014768600464,0.8508015871047974,0.23486652970314026,0.7689406275749207,0.40089645981788635,0.6742595434188843,-0.05049784108996391,0.9664667248725891,0.43038931488990784,0.6396903395652771,0.08935205638408661,0.20927269756793976,-164.89155202151957,0.49246473610401154,0.6858602166175842,102.69322859708116,100.11986309749196,0.5024923828946333,-0.0006673227944032499,-0.041113363102452304,-0.0741194459398227,-0.2531044841664234,-59.028790116480444,1.2013073424337375,7,1762115150.0363946
0.3622592091560364,0.401789128780365,-0.05659331753849983,0.999569833278656,0.41752728819847107,0.46726325154304504,-0.17830213904380798,0.9997773170471191,0.4298759400844574,0.4471069276332855,0.07420265674591064,0.9996116757392883,0.4859064221382141,0.6959813237190247,-0.07764215022325516,0.9998185634613037,0.496445894241333,0.6715502142906189,0.07744071632623672,0.9997501969337463,0.3807699978351593,0.7262340188026428,0.005605017300695181,0.9606911540031433,0.4353176951408386,0.7264806032180786,0.24004647135734558,0.6732028126716614,0.43154603242874146,0.8238927125930786,0.09062958508729935,0.9217388033866882,0.48833292722702026,0.8442171812057495,0.2313811480998993,0.7633735537528992,0.39815253019332886,0.675931990146637,-0.05961157754063606,0.9584675431251526,0.4323352873325348,0.6459152698516846,0.07527430355548859,0.19145672023296356,-163.41674314297364,0.49117615818977356,0.6837657690048218,104.21062753792103,94.42092792260739,0.4937047297005333,-0.015827430039007134,-0.025725819676931907,-0.18620956804130026,0.1890031362082076,-58.50652924489855,1.3001718937412459,8,1762115150.1178088
0.35763341188430786,0.3996131420135498,-0.06351190060377121,0.9995143413543701,0.41069746017456055,0.46552640199661255,-0.18004947900772095,0.9997665882110596,0.42320719361305237,0.4414113759994507,0.07197512686252594,0.9995948672294617,0.48264646530151367,0.6877493262290955,-0.07740643620491028,0.9998133182525635,0.49495619535446167,0.6605612635612488,0.07720574736595154,0.9997374415397644,0.37984925508499146,0.7270927429199219,0.034046806395053864,0.9604032635688782,0.4462547302246094,0.7273194789886475,0.2539336085319519,0.6532115340232849,0.4316100478172302,0.8270964026451111,0.15541936457157135,0.9203739762306213,0.4953608512878418,0.8450793623924255,0.3042265772819519,0.7612451910972595,0.3961511254310608,0.6769591569900513,-0.03961564972996712,0.946732223033905,0.43853408098220825,0.6494477987289429,0.08102487027645111,0.17498910427093506,-161.96627418434403,0.48880133032798767,0.6741552948951721,117.91269483884889,122.45368295948523,0.5364328474594449,-0.031944831965517576,-0.12927462469252207,-0.21680211208062078,-1.3928795554746622,-62.58185368268319,1.424601509635907,9,1762115150.1921504
0.35716089606285095,0.399384081363678,-0.07932814210653305,0.999494731426239,0.409044086933136,0.4654843211174011,-0.17309340834617615,0.9997581243515015,0.422534316778183,0.4389920234680176,0.06965519487857819,0.9995778203010559,0.48074230551719666,0.6861940622329712,-0.07410544902086258,0.9998117089271545,0.4955975413322449,0.6591072678565979,0.07387704402208328,0.9997259378433228,0.3798462152481079,0.7258746027946472,0.04774582386016846,0.9570177793502808,0.44895854592323303,0.7286382913589478,0.25300687551498413,0.6227626204490662,0.4308149814605713,0.826955258846283,0.15543924272060394,0.9179438352584839,0.49542099237442017,0.8422074913978577,0.29857316613197327,0.7518105506896973,0.3946496248245239,0.6794459819793701,-0.049753714352846146,0.9376689195632935,0.4412768483161926,0.6470741629600525,0.0982065349817276,0.16000896692276,-161.82046298866325,0.48816992342472076,0.6726506650447845,118.06728232194949,122.46123890418073,0.5426456684271043,-0.00787892784253524,-0.01877532532443191,0.3003032134575763,1.3788509467782262,-63.014201241776675,1.4857504867242135,10,1762115150.272289
0.3546983599662781,0.3979373574256897,-0.038817886263132095,0.9994567632675171,0.403423547744751,0.46305766701698303,-0.16437529027462006,0.99976646900177,0.41902098059654236,0.4332834780216217,0.0661526471376419,0.9995781183242798,0.47614002227783203,0.6812872886657715,-0.07187946885824203,0.9998197555541992,0.49560245871543884,0.6571929454803467,0.07162900269031525,0.9997304677963257,0.3791561722755432,0.7265228033065796,0.06968159973621368,0.9562991857528687,0.46097618341445923,0.7474481463432312,0.26680058240890503,0.6014899611473083,0.4305744171142578,0.8285524249076843,0.1621740162372589,0.9191781878471375,0.5034130215644836,0.8500984907150269,0.30946362018585205,0.753450334072113,0.391339510679245,0.6818978190422058,-0.04908594861626625,0.9330463409423828,0.45209503173828125,0.639858603477478,0.09891818463802338,0.14697223901748657,-161.3416189787501,0.48587124049663544,0.6692401170730591,119.1874497691522,128.46740526852363,0.5318449232093088,-0.03120054819700142,-0.04629214628510775,-0.3165496776485744,-0.3734920932861935,-62.351866709595924,1.590694574109983,11,1762115150.3459635
0.35174280405044556,0.38816893100738525,-0.04285294935107231,0.9994024038314819,0.39926257729530334,0.45668941736221313,-0.167402982711792,0.9997653961181641,0.4155690670013428,0.4264031648635864,0.0667724683880806,0.999565064907074,0.4739845395088196,0.6776641011238098,-0.07214199006557465,0.9998207688331604,0.49354371428489685,0.6504584550857544,0.07191036641597748,0.999723494052887,0.37881261110305786,0.7274846434593201,0.06367224454879761,0.9558988213539124,0.45762085914611816,0.7466344237327576,0.2712264060974121,0.5822908878326416,0.42986947298049927,0.8294633030891418,0.1868302971124649,0.9182173013687134,0.504059910774231,0.8489389419555664,0.33569157123565674,0.7504634261131287,0.39091843366622925,0.6826428771018982,-0.05151490494608879,0.9278682470321655,0.4478122591972351,0.6437264084815979,0.07432886213064194,0.1355810910463333,-161.06211926432664,0.4837641268968582,0.6640612781047821,125.66708888780009,136.36617719802646,0.5560497957646716,-0.02813677953798742,-0.06915424509079796,0.04091121775455601,-0.30528293962859965,-61.70143302342215,1.5661525873409752,12,1762115150.4208517
0.350159227848053,0.379733145236969,-0.02484923042356968,0.9992421865463257,0.39375975728034973,0.4455123543739319,-0.16250066459178925,0.9997586011886597,0.4129803776741028,0.4173317849636078,0.07978671789169312,0.9994780421257019,0.4754292964935303,0.6697805523872375,-0.07358550280332565,0.9998064041137695,0.4910275936126709,0.6418628096580505,0.07344642281532288,0.9996801018714905,0.379006564617157,0.7291721701622009,0.01326122134923935,0.9558137655258179,0.43832993507385254,0.7362378239631653,0.22690382599830627,0.5654500126838684,0.4299415946006775,0.8321505188941956,0.16139736771583557,0.9149070382118225,0.48931652307510376,0.8398557305335999,0.3086404800415039,0.7371231317520142,0.38891535997390747,0.6824042201042175,-0.03207240626215935,0.9262970089912415,0.4478418231010437,0.6362478733062744,0.08180215954780579,0.1252283900976181,-160.4105895479921,0.4832284450531006,0.655821681022644,121.7277412987635,137.6750066219739,0.5363743055826529,-0.008017801575859657,-0.12332591675350071,0.3011301859288305,-0.8108128350541731,-55.70396942377033,1.5670239961027652,13,1762115150.4876633
0.3490370512008667,0.37221720814704895,-0.01897266134619713,0.9990826845169067,0.38879698514938354,0.43511098623275757,-0.16020700335502625,0.9997619986534119,0.4101714491844177,0.4091750681400299,0.08105810731649399,0.999390721321106,0.4706137180328369,0.6627845168113708,-0.07383758574724197,0.9998100399971008,0.48738986253738403,0.6349180340766907,0.07369808107614517,0.9996681809425354,0.37919992208480835,0.7292026877403259,0.020127417519688606,0.9540897607803345,0.4345061779022217,0.7066523432731628,0.23320047557353973,0.5431202054023743,0.4300750195980072,0.8322030901908875,0.15567508339881897,0.912776529788971,0.48268938064575195,0.8249923586845398,0.3108968734741211,0.7215783596038818,0.38942575454711914,0.6823499798774719,-0.03613094240427017,0.9271180629730225,0.4467051923274994,0.6349846720695496,0.08516021072864532,0.1168866828083992,-160.67175810928953,0.4790017902851105,0.6488512754440308,124.86441097051906,132.14230863434295,0.5323913767066569,-0.042431486357108666,-0.06997606510292005,-0.3454797887332021,0.5355804121049236,-50.50717840259862,1.60543775684363,14,1762115150.5872746
0.34891870617866516,0.3689730763435364,-0.005988496355712414,0.9989299774169922,0.38750213384628296,0.4312557280063629,-0.15637393295764923,0.9997698068618774,0.40883421897888184,0.4060640037059784,0.07918958365917206,0.9993245601654053,0.46655693650245667,0.6561487913131714,-0.07379379868507385,0.9998196363449097,0.4862757623195648,0.6265576481819153,0.07363656908273697,0.9996770620346069,0.3792532682418823,0.7287670373916626,0.038034453988075256,0.9542938470840454,0.43499502539634705,0.7086987495422363,0.23769967257976532,0.5235628485679626,0.4301779866218567,0.8321758508682251,0.1353541910648346,0.91561359167099,0.4848955571651459,0.8252272009849548,0.28805971145629883,0.7204375267028809,0.38814133405685425,0.6822554469108582,-0.04504512995481491,0.9290919303894043,0.45184555649757385,0.61902916431427,0.08531017601490021,0.10991130769252777,-160.63996102870402,0.47641634941101074,0.6413532197475433,125.45341774314979,126.00163087594439,0.5201340591314155,-0.03291534503953499,-0.09545802916938581,0.12115035313734662,-0.3244118432314993,-49.74242740923165,1.5521235158743525,15,1762115150.6658227
0.3462572991847992,0.3565140664577484,-0.022463520988821983,0.9989022612571716,0.38740286231040955,0.4166000783443451,-0.1626715064048767,0.9997760653495789,0.4046090245246887,0.3956105411052704,0.09531191736459732,0.9992564916610718,0.4639153480529785,0.6389592289924622,-0.08150315284729004,0.9998204112052917,0.4754323959350586,0.6155600547790527,0.08144251257181168,0.9996749758720398,0.3790253698825836,0.728758692741394,-0.023437103256583214,0.9553565979003906,0.42083343863487244,0.7078831791877747,0.19859002530574799,0.5177329778671265,0.4314807951450348,0.8321412205696106,0.10218507051467896,0.9177964925765991,0.4819119870662689,0.8266499638557434,0.25971996784210205,0.7184566855430603,0.3884362578392029,0.6770404577255249,-0.0976179912686348,0.932049572467804,0.4460623860359192,0.6208531856536865,0.0790555477142334,0.10304500162601471,-161.57675286362365,0.46967387199401855,0.6272596418857574,121.29822311608893,129.3459570538297,0.5264900909057271,-0.0850805226374962,-0.17784100652544743,-0.6582507139478478,-1.0395565808233036,-50.65683118407774,1.2977019737394717,16,1762115150.745071
0.34494641423225403,0.3417271375656128,-0.02873549424111843,0.9988419413566589,0.3854139447212219,0.40886375308036804,-0.16287687420845032,0.9997854232788086,0.4018619656562805,0.382247656583786,0.08711586892604828,0.9992455244064331,0.4570305347442627,0.6318073868751526,-0.07789067178964615,0.999832272529602,0.47354012727737427,0.6013928651809692,0.07776223123073578,0.99969083070755,0.38013190031051636,0.7312148809432983,0.022158946841955185,0.9556853175163269,0.42975053191185,0.6886385679244995,0.23543281853199005,0.49441400170326233,0.43163952231407166,0.830676257610321,0.11657043546438217,0.9191957116127014,0.4836374819278717,0.8154780268669128,0.26716113090515137,0.7107918858528137,0.38821345567703247,0.6732304096221924,-0.09609879553318024,0.932397186756134,0.44740551710128784,0.6040260791778564,0.07537920027971268,0.0982857495546341,-162.0408770485367,0.4652853310108185,0.6166001260280609,130.78457851894203,121.51576792434507,0.5413522487931051,-0.06352893973907642,-0.1543081728446193,0.3119827788954707,0.34066355504532375,-58.28506679143051,1.3595769662937238,17,1762115150.8141503
0.3431663513183594,0.324393093585968,-0.03514886647462845,0.9987741708755493,0.3820318877696991,0.3965258002281189,-0.16733767092227936,0.9997944831848145,0.4004889130592346,0.3679845929145813,0.08613868802785873,0.9992451071739197,0.44810739159584045,0.620625913143158,-0.07774925231933594,0.9998441934585571,0.471235454082489,0.5866476893424988,0.07757025212049484,0.99970942735672,0.38012105226516724,0.7340322732925415,0.025838743895292282,0.9564944505691528,0.4364062249660492,0.6831764578819275,0.251304566860199,0.47684913873672485,0.4316673278808594,0.8299912214279175,0.09496398270130157,0.9214057922363281,0.4864526391029358,0.8097326755523682,0.24485602974891663,0.7089382410049438,0.38861626386642456,0.6657628417015076,-0.11157325655221939,0.933305561542511,0.446789026260376,0.5989712476730347,0.07231958955526352,0.0928976759314537,-162.8278807993316,0.45967142283916473,0.6036368012428284,132.13532390854292,109.8891231556192,0.5486072014030774,-0.07474490038854183,-0.17259677040479454,-0.14933195126687288,-0.24349871089514832,-57.11006285070853,1.346744058991753,18,1762115150.889258
0.3429028391838074,0.2987501919269562,-0.07037138193845749,0.9986236095428467,0.38194239139556885,0.3792499601840973,-0.1972454935312271,0.9997978806495667,0.3971078097820282,0.35501864552497864,0.0733921006321907,0.9991954565048218,0.44294777512550354,0.6097336411476135,-0.07867565751075745,0.9998473525047302,0.46137532591819763,0.5791783928871155,0.07853703200817108,0.9997081160545349,0.3800559341907501,0.734652042388916,0.0037538979668170214,0.9556402564048767,0.43162235617637634,0.6903026700019836,0.24656851589679718,0.46089258790016174,0.43228450417518616,0.8308585286140442,0.10042516887187958,0.9183926582336426,0.4855715334415436,0.8101816177368164,0.25747841596603394,0.6950921416282654,0.38883307576179504,0.6595897078514099,-0.12007884681224823,0.9360863566398621,0.4288754463195801,0.598818838596344,0.07572172582149506,0.08898433297872543,-164.59493564705915,0.4521615505218506,0.5944560170173645,134.78279346978184,120.2909925250708,0.5898030998194357,-0.10087585507859037,-0.12332026696386252,-0.351002292316108,0.6619033200373895,-57.95918398954603,1.1798191567702399,19,1762115150.9637046
0.3434814512729645,0.2959004044532776,-0.0669795498251915,0.9983620047569275,0.38299039006233215,0.375058114528656,-0.20080769062042236,0.9998022317886353,0.3973110020160675,0.3535075783729553,0.07319632172584534,0.9991639852523804,0.4416327476501465,0.6086567044258118,-0.08088816702365875,0.9998512268066406,0.45848360657691956,0.5778580904006958,0.08079960197210312,0.999710202217102,0.3822362720966339,0.7400227189064026,-0.0018409125041216612,0.9536848664283752,0.4310545325279236,0.68812096118927,0.24712145328521729,0.4357418119907379,0.4346599578857422,0.833027720451355,0.101865753531456,0.9091158509254456,0.48425108194351196,0.8021374344825745,0.26137226819992065,0.6686205267906189,0.3890148997306824,0.6505991816520691,-0.14409467577934265,0.937818169593811,0.4299888014793396,0.5742165446281433,0.0887456163764,0.08767104893922806,-165.3381364241258,0.450058177113533,0.5932573974132538,134.98881780091165,121.91214674827673,0.5894094660040342,-0.02866207764782326,-0.016333252111760885,0.9840368275925153,1.4578819504295948,-56.395444456283265,1.134372529765765,20,1762115151.0370898
0.3430100083351135,0.27619415521621704,-0.0848529264330864,0.9979307055473328,0.3843466341495514,0.3675483167171478,-0.21704475581645966,0.9998047351837158,0.3957917094230652,0.3440244793891907,0.06740216910839081,0.9991002082824707,0.43910589814186096,0.6024029850959778,-0.08248002082109451,0.9998407363891602,0.4535207748413086,0.57673180103302,0.08244359493255615,0.9996779561042786,0.384462833404541,0.7419499754905701,9.249920549336821e-05,0.9492199420928955,0.4308132231235504,0.6935692429542542,0.23865123093128204,0.41446101665496826,0.4355253577232361,0.8344210386276245,0.12696512043476105,0.896286129951477,0.4789169728755951,0.8103093504905701,0.29845163226127625,0.6356890201568604,0.38946065306663513,0.6457765102386475,-0.16041871905326843,0.9397376775741577,0.42264407873153687,0.5748011469841003,0.08844736963510513,0.08559658378362656,-166.47258672400326,0.4463133364915848,0.5895673930644989,136.79209142994057,142.91635542933355,0.6323683432184085,-0.05607880380451858,-0.05525763331524378,-0.4105641233681265,-0.5828906907089669,-64.0556438285376,1.134317708608215,21,1762115151.103868
0.3411455750465393,0.25488078594207764,-0.13284021615982056,0.9979690909385681,0.3848826289176941,0.35727259516716003,-0.25247177481651306,0.9998112916946411,0.39352723956108093,0.3331140875816345,0.03796079009771347,0.9990319609642029,0.435037761926651,0.5917177796363831,-0.0827464684844017,0.9997915625572205,0.44572123885154724,0.5688678026199341,0.08276873081922531,0.9995237588882446,0.3901901841163635,0.7412282228469849,0.0013560462975874543,0.9433746933937073,0.42240142822265625,0.7021607756614685,0.2160375416278839,0.4009617865085602,0.435079962015152,0.8399773240089417,0.17455829679965973,0.8790005445480347,0.4507593512535095,0.8216795921325684,0.33849406242370605,0.5980367660522461,0.3918692469596863,0.6373478770256042,-0.16992823779582977,0.942200243473053,0.4204162061214447,0.5843525528907776,0.042154185473918915,0.08349449187517166,-167.7198705407241,0.4403795003890991,0.5802927911281586,138.92641823382652,163.5167095713462,0.702623565552403,-0.06998569399921264,-0.10938782970586582,-0.16402262294349612,-0.638430063669005,-70.31132595563892,1.3972634836793705,22,1762115151.1886544
0.3412623405456543,0.2328510880470276,-0.15705662965774536,0.9981120824813843,0.3858404755592346,0.3366096317768097,-0.25913098454475403,0.9998205900192261,0.3903132975101471,0.3160240948200226,0.020684394985437393,0.9989786148071289,0.43370532989501953,0.5769793391227722,-0.08152185380458832,0.9997356534004211,0.43875598907470703,0.5565812587738037,0.08163595199584961,0.9992614984512329,0.39623695611953735,0.735433042049408,0.03004329837858677,0.9334898591041565,0.41938671469688416,0.7011746168136597,0.2108341008424759,0.38434919714927673,0.4367775022983551,0.8403128981590271,0.19116419553756714,0.8692579865455627,0.447200208902359,0.823838472366333,0.354311466217041,0.5615630745887756,0.39538711309432983,0.6189340353012085,-0.17378053069114685,0.9454277753829956,0.4174667298793793,0.5837718844413757,0.024634264409542084,0.08178997784852982,-168.6760729601225,0.4362306594848633,0.566780298948288,148.52420812946946,163.95627984343943,0.744270936588243,-0.05456982924878875,-0.17773021622214905,0.20276533291362703,-0.8989094662175794,-77.74132525228336,1.4089105419054548,23,1762115151.2646825
0.34192711114883423,0.2100054919719696,-0.16386453807353973,0.9982035160064697,0.38775306940078735,0.31979799270629883,-0.2631826400756836,0.9998215436935425,0.39103639125823975,0.3020649552345276,0.017556985840201378,0.9988465309143066,0.4328416883945465,0.5691488981246948,-0.08012948930263519,0.9996634721755981,0.4335916042327881,0.5525787472724915,0.08027467131614685,0.9989134073257446,0.3987485468387604,0.7340088486671448,0.04265827685594559,0.9241669774055481,0.41485661268234253,0.6975806951522827,0.21380245685577393,0.3725718855857849,0.4367481768131256,0.8400337100028992,0.20551209151744843,0.8618424534797668,0.45532169938087463,0.8237560987472534,0.36356982588768005,0.5306434631347656,0.39627698063850403,0.6093637943267822,-0.17315374314785004,0.948059618473053,0.4146006107330322,0.5691461563110352,0.018897078931331635,0.0808478370308876,-170.05512567616123,0.4332166463136673,0.5608638226985931,151.26961172891518,161.4349306367923,0.7737262890906416,-0.04016957783087815,-0.0788524600582127,0.19192086671818986,1.317803704352679,-79.51031601903763,1.1169555154660875,24,1762115151.3397148
0.3418028950691223,0.21387392282485962,-0.14927910268306732,0.9983358383178711,0.38836395740509033,0.3130861818790436,-0.2536481022834778,0.999825656414032,0.39108091592788696,0.29922282695770264,0.019541557878255844,0.9988307952880859,0.4311172366142273,0.5690863132476807,-0.07523751258850098,0.9995957612991333,0.431239515542984,0.5530115962028503,0.07535503804683685,0.9987357258796692,0.4012821614742279,0.7368789911270142,0.04917345196008682,0.9224917888641357,0.4226382374763489,0.6980384588241577,0.2045077085494995,0.37608838081359863,0.4378700256347656,0.8408907651901245,0.208706334233284,0.8576854467391968,0.45982569456100464,0.8281881809234619,0.3524032235145569,0.5162685513496399,0.39676183462142944,0.611331582069397,-0.17169776558876038,0.9517499804496765,0.4089769423007965,0.5749952793121338,0.02621404267847538,0.08243267238140106,-170.76231946830964,0.43117837607860565,0.5610489547252655,152.2330932196433,165.0623963927417,0.7625231245785694,-0.02551726247862151,0.0023176821387743893,0.18343346742330288,1.0161752785468647,-78.91163545381043,1.123812540559483,25,1762115151.4195929
0.3422635793685913,0.19646096229553223,-0.14000937342643738,0.9984679222106934,0.39069271087646484,0.30139997601509094,-0.2443373203277588,0.9998335838317871,0.39014169573783875,0.2876651883125305,0.02860611118376255,0.9988111257553101,0.4275994896888733,0.5634068846702576,-0.07432800531387329,0.9995571970939636,0.4266330301761627,0.5485628843307495,0.07439924776554108,0.9985526204109192,0.40185481309890747,0.7368172407150269,0.042260825634002686,0.9145164489746094,0.4192422032356262,0.6979111433029175,0.19684520363807678,0.3734321594238281,0.440441370010376,0.8429041504859924,0.19039078056812286,0.8508723378181458,0.44836631417274475,0.8283748030662537,0.3400666117668152,0.4939483106136322,0.39694303274154663,0.5893741846084595,-0.1706351786851883,0.955031156539917,0.40716299414634705,0.5531368255615234,0.03548248112201691,0.08573049306869507,-172.00981431214115,0.427116259932518,0.5559848845005035,152.1597140410588,166.4217769757782,0.7636751270605372,-0.05290635208486008,-0.06595613533890621,-0.3567246149244335,-0.8892209123883841,-92.29737229727893,1.0839642799905427,26,1762115151.4963722
0.34258919954299927,0.19159293174743652,-0.1285942643880844,0.9986047744750977,0.3949766755104065,0.2916210889816284,-0.23797884583473206,0.9998447895050049,0.38889792561531067,0.27949342131614685,0.03346255049109459,0.9988395571708679,0.4233016073703766,0.558522641658783,-0.07391628623008728,0.9995510578155518,0.41940227150917053,0.5498759746551514,0.07394607365131378,0.9985253810882568,0.4036425054073334,0.7316854596138,0.037891026586294174,0.9177089929580688,0.41682371497154236,0.6951888799667358,0.19443780183792114,0.3813879191875458,0.43996843695640564,0.842861533164978,0.18014729022979736,0.8568827509880066,0.4428744316101074,0.8160020709037781,0.33691149950027466,0.4893701672554016,0.399206280708313,0.5722396373748779,-0.1841353327035904,0.9586769938468933,0.4046226441860199,0.5429034233093262,0.04042484983801842,0.08965983986854553,-173.75135953911897,0.42135193943977356,0.5541993081569672,154.5835543184485,166.71765644211501,0.7526426526753591,-0.07753860524037073,-0.024018633141977486,-0.33134010435576455,0.564121205909326,-116.62139882283711,0.9430995935799902,27,1762115151.5707135
0.3427765667438507,0.1849728673696518,-0.1251353919506073,0.9987286925315857,0.39729809761047363,0.27878543734550476,-0.2348216474056244,0.9998575448989868,0.3897792398929596,0.2698383033275604,0.040440868586301804,0.9988348484039307,0.4198150634765625,0.5544183254241943,-0.07404167205095291,0.9995351433753967,0.41679221391677856,0.5478308200836182,0.07407382130622864,0.998423159122467,0.40237075090408325,0.7285993695259094,0.03688695654273033,0.9135918617248535,0.4137960374355316,0.6895790696144104,0.19299034774303436,0.3751959204673767,0.43958908319473267,0.8427885174751282,0.17593878507614136,0.8553454279899597,0.4391616880893707,0.814652681350708,0.3333119750022888,0.4672505557537079,0.40073996782302856,0.5685819983482361,-0.1911461502313614,0.9623193144798279,0.40314632654190063,0.5428455471992493,0.05187449976801872,0.09178476780653,-174.88765995189928,0.41830363869667053,0.5511245727539062,155.55367322486674,168.0505448958655,0.7536316860812596,-0.03894266499348189,-0.03928037317706112,0.4930710247483731,-0.19497184808572057,-130.04251631120434,0.7913903011452114,28,1762115151.6489902
0.3428536355495453,0.17890122532844543,-0.12329459190368652,0.9988356232643127,0.39890918135643005,0.27274781465530396,-0.23901160061359406,0.9998687505722046,0.3929019868373871,0.2606460154056549,0.047475673258304596,0.9987398386001587,0.41882020235061646,0.5551968216896057,-0.07631055265665054,0.9994916319847107,0.4167707860469818,0.5474656820297241,0.07627654075622559,0.9982340335845947,0.4043157696723938,0.7276946902275085,0.03951974958181381,0.9092398881912231,0.41279348731040955,0.6898637413978577,0.1989981085062027,0.367981880903244,0.4406941831111908,0.8426170945167542,0.19166713953018188,0.8536432385444641,0.439475953578949,0.8166078925132751,0.34831875562667847,0.4480789601802826,0.4019796848297119,0.5638565421104431,-0.20304417610168457,0.965751588344574,0.40440359711647034,0.5329813361167908,0.05853523686528206,0.09053830057382584,-175.60230298770267,0.41779549419879913,0.5513312518596649,155.94244495858175,167.3599147294358,0.7665208377991699,-0.0072594860179161416,0.002952672093736163,0.4526342324668119,0.603352398622181,-116.39927524956224,0.6942248816888075,29,1762115151.7189875
0.3435474932193756,0.17730531096458435,-0.10962209850549698,0.9989176988601685,0.39935702085494995,0.2672223746776581,-0.2383885383605957,0.9998779892921448,0.39574486017227173,0.25822991132736206,0.06077886372804642,0.9985835552215576,0.4162593483924866,0.5551690459251404,-0.07894810289144516,0.9994207620620728,0.4154421389102936,0.5474092960357666,0.07887288182973862,0.9980107545852661,0.40403228998184204,0.7243638038635254,0.033187441527843475,0.9023112058639526,0.4094619154930115,0.6907603144645691,0.1939174085855484,0.36139726638793945,0.4414452910423279,0.8424612283706665,0.1811644732952118,0.851603627204895,0.44015759229660034,0.8242455124855042,0.34747305512428284,0.43382635712623596,0.4027262330055237,0.559492290019989,-0.21078617870807648,0.9687028527259827,0.4053269028663635,0.5298753976821899,0.06989984214305878,0.08723514527082443,-176.37133251915404,0.4158507436513901,0.5512891709804535,156.97237369730806,165.38300527539397,0.7613732039040899,-0.02608380393837259,-0.0005644062701859183,-0.2524795884824096,-0.04717251917098421,-111.88471457171775,0.5373548968136626,30,1762115151.7935452
0.34426742792129517,0.1699044555425644,-0.12088088691234589,0.9989913702011108,0.4009581506252289,0.2633662819862366,-0.25691697001457214,0.9998872876167297,0.3968270421028137,0.25416943430900574,0.0576697513461113,0.998461127281189,0.4117651581764221,0.5505255460739136,-0.08299028873443604,0.9993574023246765,0.41079750657081604,0.544940173625946,0.08286891877651215,0.9977763891220093,0.40354427695274353,0.7219964861869812,0.03231579437851906,0.9001782536506653,0.4069635272026062,0.6873749494552612,0.19716152548789978,0.3635484278202057,0.4416275918483734,0.8423405289649963,0.17902323603630066,0.8550172448158264,0.43648403882980347,0.8242250084877014,0.34912464022636414,0.42756763100624084,0.40229782462120056,0.560135543346405,-0.23072481155395508,0.9714118838310242,0.40323251485824585,0.5264935493469238,0.06765799224376678,0.08478088676929474,-177.5450734199768,0.4112813323736191,0.5477328598499298,158.49942270564335,166.8122560665519,0.7728168231322594,-0.05856674876696757,-0.04558171017167723,-0.4163382005560265,-0.5769927387781538,-114.1890176259668,0.36649906218999373,31,1762115151.8715658
0.34462279081344604,0.16249585151672363,-0.1264140009880066,0.9990598559379578,0.40328726172447205,0.25673121213912964,-0.26231110095977783,0.999896228313446,0.39738303422927856,0.24826990067958832,0.056400150060653687,0.9984185695648193,0.41116419434547424,0.5407816767692566,-0.0855032354593277,0.9993176460266113,0.41051673889160156,0.5330492854118347,0.08537930250167847,0.9976305961608887,0.4044211506843567,0.7153881788253784,0.013195231556892395,0.895179271697998,0.40912356972694397,0.677489161491394,0.19306838512420654,0.3571294844150543,0.4429115355014801,0.8422603011131287,0.14696863293647766,0.854012668132782,0.43805116415023804,0.8185139894485474,0.3363739848136902,0.4120858311653137,0.4050939977169037,0.5507654547691345,-0.2428169995546341,0.9738945364952087,0.4033103585243225,0.5187116861343384,0.06950481235980988,0.08289750665426254,-177.88465069498076,0.4108404666185379,0.5369154810905457,158.20345499988326,167.72099607959427,0.7686055158264519,-0.005631138180433955,-0.13816939474685955,0.6761417380298144,-1.1826140716084523,-124.90699046374498,0.31163814525071176,32,1762115151.9498565
0.34493184089660645,0.16207240521907806,-0.1408926546573639,0.9991357922554016,0.40552645921707153,0.25616347789764404,-0.2706195116043091,0.9999052286148071,0.396645724773407,0.24905039370059967,0.045569684356451035,0.998370349407196,0.4121788442134857,0.5409144759178162,-0.08495449274778366,0.9992948174476624,0.40678349137306213,0.5321908593177795,0.08484465628862381,0.9974969029426575,0.40591177344322205,0.7105517983436584,0.03293607011437416,0.8923037648200989,0.4101954996585846,0.6749733090400696,0.20724782347679138,0.35757121443748474,0.4429534077644348,0.8385619521141052,0.18659630417823792,0.8544420003890991,0.4389193058013916,0.8123907446861267,0.3679075837135315,0.4032607078552246,0.4064331650733948,0.5498391389846802,-0.254909485578537,0.9762169718742371,0.3975137174129486,0.5165232419967651,0.0691121444106102,0.0806717500090599,-178.30649917289952,0.4094811677932739,0.5365526676177979,160.38450337827348,168.91627562468764,0.7900421281424085,-0.015563069149633124,-0.004153973401467505,-0.11371401607222864,1.5343876053968577,-141.3067818951265,0.2552958040879656,33,1762115152.0371978
0.34587615728378296,0.16215677559375763,-0.14095991849899292,0.9991890788078308,0.40716299414634705,0.2557212710380554,-0.27129462361335754,0.9999126195907593,0.3953269124031067,0.24707011878490448,0.04573562741279602,0.9982151389122009,0.4121190011501312,0.5376618504524231,-0.08634234964847565,0.9992280602455139,0.4038926959037781,0.5288733839988708,0.08625754714012146,0.9972200393676758,0.4064120650291443,0.7080825567245483,0.027106663212180138,0.8868515491485596,0.4105989933013916,0.6723102331161499,0.20642395317554474,0.3534630835056305,0.4430384635925293,0.8368576765060425,0.17008869349956512,0.8522635102272034,0.43934017419815063,0.8082624077796936,0.3553917407989502,0.3923332393169403,0.40928173065185547,0.5393397212028503,-0.2590652108192444,0.9782081246376038,0.39073002338409424,0.5023683905601501,0.07546239346265793,0.07780218869447708,-178.6259841010228,0.40800584852695465,0.533267617225647,161.11109655323753,170.25137129402083,0.7798659325599125,-0.017872435216100373,-0.03979603036149589,-0.02797631424970784,-0.4317779673385021,-143.83642546578443,0.20685142257492764,34,1762115152.119745
0.34716862440109253,0.16418661177158356,-0.14300833642482758,0.9992424249649048,0.40870729088783264,0.25833091139793396,-0.2697128653526306,0.999919056892395,0.3947865068912506,0.24805183708667755,0.0428609699010849,0.9981791377067566,0.41201096773147583,0.5381816625595093,-0.08597813546657562,0.9991967082023621,0.40175604820251465,0.5291239619255066,0.08589554578065872,0.997114896774292,0.4059351086616516,0.7085209488868713,0.024056313559412956,0.8841761946678162,0.41001397371292114,0.6729371547698975,0.2033296525478363,0.35555317997932434,0.44341951608657837,0.8361657857894897,0.16014021635055542,0.8538296222686768,0.4382041096687317,0.8073040246963501,0.35097068548202515,0.3884749710559845,0.4100189805030823,0.5399191379547119,-0.24850937724113464,0.9798375964164734,0.3893999457359314,0.5019179582595825,0.0729420930147171,0.07638084143400192,-178.95075371806854,0.40688350796699524,0.5336528122425079,160.91872056562082,169.93801887461476,0.7745914391308618,-0.013415745435166106,0.004604376312737076,0.05327243594108598,0.5307342302419341,-143.55792677278782,0.15642141967417128,35,1762115152.2034035
0.3479610085487366,0.16417700052261353,-0.162002831697464,0.999304473400116,0.4093201756477356,0.25952988862991333,-0.2810022532939911,0.9999260902404785,0.3947955369949341,0.25018110871315,0.02776106260716915,0.9981771111488342,0.41263213753700256,0.5407158136367798,-0.08576547354459763,0.9992157220840454,0.4019027650356293,0.5313793420791626,0.08567968010902405,0.9970934987068176,0.406282514333725,0.7099180817604065,0.04957672208547592,0.8843278884887695,0.4104016423225403,0.6731663346290588,0.227421835064888,0.3627193868160248,0.4438842236995697,0.8354566693305969,0.20643381774425507,0.8579322695732117,0.43749403953552246,0.8039133548736572,0.397662878036499,0.387736052274704,0.41081833839416504,0.5431867837905884,-0.25739505887031555,0.981484055519104,0.39078623056411743,0.5072426795959473,0.06977110356092453,0.07584960758686066,-178.9386128475845,0.4072674512863159,0.5360475778579712,162.3953641928921,171.14255155231675,0.8084755749740734,0.004931390021925795,0.030758506963583582,0.23565166046932956,0.33592515466066497,-147.23265223221708,0.16104817555392192,36,1762115152.2812605
0.34870511293411255,0.16569040715694427,-0.1637757122516632,0.999359130859375,0.411129891872406,0.2622591555118561,-0.2880200147628784,0.9999322891235352,0.3948051333427429,0.25201353430747986,0.028394028544425964,0.9982030391693115,0.412630558013916,0.5415761470794678,-0.08729769289493561,0.9992344975471497,0.4021769165992737,0.5316937565803528,0.08721593022346497,0.997115969657898,0.40778931975364685,0.7097115516662598,0.0466620959341526,0.8811612725257874,0.4105481505393982,0.6692203283309937,0.23291513323783875,0.36510270833969116,0.4438331723213196,0.8348402976989746,0.20125257968902588,0.8595216274261475,0.4363385736942291,0.80219966173172,0.4040658473968506,0.38498252630233765,0.4113699793815613,0.5437474250793457,-0.2526995539665222,0.9828418493270874,0.389474093914032,0.5089406967163086,0.06914442777633667,0.07490114867687225,-179.09067306662527,0.40740373730659485,0.5366349518299103,163.03635963429215,172.96423185360163,0.807526119775356,0.0017526659839458402,0.007553748934526255,-0.04087903867407688,-0.29841791535173595,-147.88710763630425,0.1434829199264321,37,1762115152.3590198
0.3495343327522278,0.16711023449897766,-0.16682639718055725,0.9994136095046997,0.41229048371315,0.26369401812553406,-0.28744152188301086,0.9999383687973022,0.39499396085739136,0.2521277666091919,0.02188730426132679,0.9982406497001648,0.41209179162979126,0.5417318940162659,-0.08696568757295609,0.9992702603340149,0.4024670124053955,0.5310829877853394,0.08688590675592422,0.997174859046936,0.4090370237827301,0.7102255821228027,0.053887397050857544,0.8797206282615662,0.41077542304992676,0.669292688369751,0.23389486968517303,0.36832499504089355,0.4437219202518463,0.8348119854927063,0.20914161205291748,0.8615566492080688,0.43586722016334534,0.8012239933013916,0.4067281186580658,0.38265731930732727,0.41225725412368774,0.5434466600418091,-0.25341475009918213,0.9842454195022583,0.3900372087955475,0.5086319446563721,0.06970767676830292,0.07390196621417999,-179.25175661241525,0.4072794020175934,0.5364074409008026,164.44086690653316,172.76751038595486,0.8106948083321924,-0.001625517032862562,-0.0029744000548592516,-0.04416520907338219,-0.13764141817018086,-146.2292006825744,0.12168816393757215,38,1762115152.4355094
0.35028767585754395,0.16877278685569763,-0.1692149043083191,0.9994615912437439,0.4132772982120514,0.26354461908340454,-0.2885354161262512,0.9999438524246216,0.39501917362213135,0.25310811400413513,0.02057797461748123,0.9983015656471252,0.4123181402683258,0.5413321256637573,-0.08681820333003998,0.9993035793304443,0.4017740786075592,0.5308298468589783,0.08673612773418427,0.9972577691078186,0.40888041257858276,0.7106313705444336,0.049479346722364426,0.8793848156929016,0.4106506407260895,0.6694788336753845,0.22891922295093536,0.3738248646259308,0.4433426260948181,0.8343537449836731,0.20836558938026428,0.865321695804596,0.43472766876220703,0.800568163394928,0.39249321818351746,0.3851338028907776,0.41278648376464844,0.5432384610176086,-0.26032525300979614,0.9854526519775391,0.39110666513442993,0.5102735161781311,0.06554241478443146,0.07436955720186234,-179.40224253182794,0.4070461094379425,0.5360809862613678,163.0575023105754,173.15038679046953,0.8057532055601146,-0.003156573802856885,-0.004417106468637496,-0.020716019764036895,-0.019520592029806782,-150.247333910773,0.09900280363065389,39,1762115152.5094163
0.3506304621696472,0.16971881687641144,-0.17786459624767303,0.9995032548904419,0.4137449860572815,0.2634974420070648,-0.29592347145080566,0.9999489188194275,0.39507171511650085,0.2534326910972595,0.018155623227357864,0.9983492493629456,0.41244417428970337,0.5413349866867065,-0.08727122843265533,0.9993335008621216,0.40163832902908325,0.5309679508209229,0.08718869090080261,0.997301459312439,0.4076507091522217,0.7109335064888,0.05158033221960068,0.8778195977210999,0.4104077219963074,0.6692988872528076,0.23903195559978485,0.3770122826099396,0.4431076645851135,0.8343898057937622,0.21007907390594482,0.8658755421638489,0.43438583612442017,0.8001813292503357,0.4140931963920593,0.3819199204444885,0.4131561815738678,0.5430015325546265,-0.26804643869400024,0.9865707159042358,0.39163583517074585,0.5113868117332458,0.06553453207015991,0.07478799670934677,-179.4567627446615,0.4070412516593933,0.5361514687538147,163.00781609024872,173.2676125971833,0.816797952973322,-6.727419807504994e-05,0.0009760949598005712,0.04278296168106209,0.07468913979529987,-151.67567048605966,0.08859457883601735,40,1762115152.581625
0.3509736955165863,0.17032107710838318,-0.18274728953838348,0.9995399117469788,0.4150331914424896,0.2628134489059448,-0.2949107885360718,0.9999533891677856,0.39430031180381775,0.25265151262283325,0.018160182982683182,0.9983716607093811,0.4126253128051758,0.5406129360198975,-0.08714596182107925,0.9993589520454407,0.39926251769065857,0.5299067497253418,0.08706004917621613,0.9973492622375488,0.4072743356227875,0.7107977867126465,0.05178210884332657,0.8760517835617065,0.4087868332862854,0.6697551012039185,0.2363392412662506,0.3872857689857483,0.4428701400756836,0.8329826593399048,0.20860645174980164,0.8663269281387329,0.4341164529323578,0.7997918128967285,0.4068521559238434,0.38627365231513977,0.41412824392318726,0.5388123989105225,-0.27213066816329956,0.9875999689102173,0.39122626185417175,0.5094219446182251,0.06363341957330704,0.07552146911621094,-179.73633025469263,0.4059439152479172,0.5352598428726196,162.7638657630213,172.91907345923522,0.8158605585661042,-0.01529954625536017,-0.0124314396835422,-0.21237502781956322,-0.18693373727590717,-153.8888503295504,0.041924097191074615,41,1762115152.6533484
0.35177263617515564,0.17075976729393005,-0.18234822154045105,0.9995694160461426,0.41593074798583984,0.26227566599845886,-0.29193058609962463,0.9999573230743408,0.3937280774116516,0.25213587284088135,0.019912566989660263,0.9983806014060974,0.4126952290534973,0.539429783821106,-0.08702348917722702,0.9993794560432434,0.39903807640075684,0.5288422107696533,0.0869378000497818,0.997383713722229,0.4071047902107239,0.7109078764915466,0.039853181689977646,0.874480664730072,0.4085117280483246,0.6700778007507324,0.22656676173210144,0.3928186893463135,0.4428555369377136,0.8321047425270081,0.18009021878242493,0.8666534423828125,0.4333975911140442,0.7983559370040894,0.386091411113739,0.38689863681793213,0.41576582193374634,0.5377085208892822,-0.27450236678123474,0.988489031791687,0.39151474833488464,0.5093968510627747,0.05838872119784355,0.07620659470558167,-179.785400104134,0.4058666527271271,0.5341359972953796,162.30468955846493,172.25116582577056,0.7996454316286173,-0.0011758734800956484,-0.017104026589935158,0.2149509501909812,-0.07111301793525819,-155.45417551544074,0.034210547765758846,42,1762115152.719055
0.3524464964866638,0.1712823361158371,-0.19175654649734497,0.9995938539505005,0.41629308462142944,0.262734591960907,-0.2927020490169525,0.9999607801437378,0.39376193284988403,0.2517644464969635,0.011405674740672112,0.9983853101730347,0.4127742648124695,0.5395774841308594,-0.08584970980882645,0.9993940591812134,0.3998090922832489,0.5288823843002319,0.08577553927898407,0.9973803758621216,0.4070255160331726,0.7109673023223877,0.04008703678846359,0.8747571110725403,0.40864020586013794,0.6698676347732544,0.22653047740459442,0.3944181799888611,0.44235116243362427,0.8305366635322571,0.18220330774784088,0.8645025491714478,0.4326239228248596,0.7966046929359436,0.3864949643611908,0.3821326792240143,0.41658076643943787,0.5391377806663513,-0.2763088643550873,0.9892754554748535,0.3917568027973175,0.5096522569656372,0.0539904348552227,0.07613970339298248,-179.7384974244732,0.4062916785478592,0.5342299342155457,161.68743678256632,172.15665334160892,0.804016737952777,0.006887696950027432,0.0015222817225738151,0.1306730714906266,0.3018460542781898,-154.0391090639125,0.04262824998370391,43,1762115152.780763
0.3526533544063568,0.17261721193790436,-0.2039289027452469,0.9996116757392883,0.41696181893348694,0.262969970703125,-0.29867374897003174,0.9999637007713318,0.39351311326026917,0.25207656621932983,0.006877545267343521,0.9983658790588379,0.41245025396347046,0.5397899746894836,-0.08584151417016983,0.9994012117385864,0.3998805582523346,0.5291532278060913,0.08576290309429169,0.997383713722229,0.40612491965293884,0.7110521197319031,0.031161686405539513,0.8768482208251953,0.40870314836502075,0.6699472665786743,0.22301968932151794,0.395499050617218,0.4421183168888092,0.8299403786659241,0.16961725056171417,0.8616662621498108,0.43264660239219666,0.7970428466796875,0.3825514018535614,0.38180088996887207,0.4170435070991516,0.5399895310401917,-0.29019057750701904,0.99003666639328,0.3916782736778259,0.5100551247596741,0.04728196933865547,0.07504447549581528,-179.80802611526696,0.4061654061079025,0.5344716012477875,160.26616130278097,171.72632727006706,0.8051780664926688,-0.0017090135236736894,0.003270802611156466,-0.11635076081292578,0.02366506773797363,-155.08215575178184,0.030962889393796985,44,1762115152.854649
0.35271814465522766,0.17363549768924713,-0.2038513422012329,0.9996305704116821,0.41740649938583374,0.2632974684238434,-0.2988854944705963,0.9999664425849915,0.39323195815086365,0.2523358166217804,0.0056077660992741585,0.9983653426170349,0.4123848080635071,0.5405281782150269,-0.08574593812227249,0.9994118213653564,0.3998052179813385,0.5293402075767517,0.08567576855421066,0.9973926544189453,0.40575551986694336,0.7110826373100281,0.03267642483115196,0.8783618807792664,0.40865617990493774,0.6699811220169067,0.22343020141124725,0.3995543122291565,0.44196265935897827,0.8298519849777222,0.17424429953098297,0.8600214123725891,0.43261027336120605,0.7970552444458008,0.3858468532562256,0.3829055428504944,0.41702157258987427,0.5410770177841187,-0.28609052300453186,0.9906837940216064,0.3914315402507782,0.5102603435516357,0.047775037586688995,0.07454822957515717,-179.83960219266248,0.4060950130224228,0.5349341928958893,160.08979525092394,171.44121911346616,0.8066444394724306,-0.0008565518601898485,0.005628872977928377,0.010372860041883073,0.028693294879061245,-155.6086619975441,0.025789314039712886,45,1762115152.936831
0.352672278881073,0.1744556576013565,-0.19761614501476288,0.9996465444564819,0.4182211756706238,0.2635567784309387,-0.2972906529903412,0.9999690055847168,0.3922552764415741,0.25472402572631836,0.007955734618008137,0.9983437061309814,0.41242948174476624,0.5415106415748596,-0.0852743610739708,0.9994255900382996,0.39893466234207153,0.5298457741737366,0.0852198451757431,0.99739009141922,0.4057158827781677,0.7111423015594482,0.029975200071930885,0.8782640695571899,0.4072898328304291,0.6700519323348999,0.2200133502483368,0.4040727913379669,0.44191986322402954,0.8301346898078918,0.1647699773311615,0.8590414524078369,0.4324151873588562,0.7969360947608948,0.37898582220077515,0.3820405900478363,0.4179018437862396,0.5416468977928162,-0.2847535312175751,0.9912228584289551,0.3902783691883087,0.5105240941047668,0.049508236348629,0.07472952455282211,-179.90803977084687,0.4056820720434189,0.5356782078742981,160.5031133181493,171.19803256725817,0.7974879384875115,-0.005446540880503145,0.009813286163522013,-0.06054028084231491,0.05519088352826455,-161.21336922347862,0.014473710298528916,46,1762115153.012648
0.35262247920036316,0.1751856952905655,-0.2069585621356964,0.9996570348739624,0.4190446436405182,0.26401472091674805,-0.2982413172721863,0.9999709129333496,0.3917325735092163,0.2564086318016052,0.004938497208058834,0.9982975721359253,0.41245824098587036,0.5426463484764099,-0.08467747271060944,0.9994125366210938,0.39884811639785767,0.5310654640197754,0.08464645594358444,0.9973387122154236,0.40580350160598755,0.7132068872451782,0.030974918976426125,0.8814876079559326,0.4068295359611511,0.672356367111206,0.21775737404823303,0.4122866988182068,0.4417695999145508,0.8301724791526794,0.16953152418136597,0.8564339876174927,0.43217119574546814,0.7972855567932129,0.37683922052383423,0.3874153792858124,0.4186607897281647,0.5453804731369019,-0.2892738878726959,0.9917369484901428,0.3903944790363312,0.5112829804420471,0.042049113661050797,0.07462507486343384,-179.94520490641062,0.405653178691864,0.5368559062480927,159.64347892405476,170.20822682936404,0.8033619011039234,-0.00042570923729766185,0.017351987550584532,0.07397599428262466,0.11107381612017295,-164.43810776956806,0.008630603845996548,47,1762115153.0805192
0.35251104831695557,0.17572863399982452,-0.21849922835826874,0.9996626973152161,0.4192954897880554,0.26442432403564453,-0.305976927280426,0.9999725818634033,0.39050614833831787,0.2570487856864929,-0.00012635938765015453,0.9982500076293945,0.41263502836227417,0.5424099564552307,-0.08504711836576462,0.9994096755981445,0.3983507752418518,0.5303508639335632,0.08502698689699173,0.9973260760307312,0.4057731032371521,0.713516891002655,0.027125483378767967,0.8864112496376038,0.40631961822509766,0.6730131506919861,0.21745185554027557,0.42494913935661316,0.4409258961677551,0.8300472497940063,0.16116495430469513,0.859539270401001,0.4303218424320221,0.7968790531158447,0.37615254521369934,0.39994704723358154,0.42138543725013733,0.5469836592674255,-0.29422006011009216,0.9920716881752014,0.390593558549881,0.5118467807769775,0.03340280055999756,0.07316245883703232,-179.87692890942355,0.405492901802063,0.536380410194397,159.56671305938997,169.83516862040122,0.8068060184511077,-0.002208159926947599,-0.006550983940953689,-0.02455710358200326,-0.32931499886297333,-165.63045295347473,0.020017329051594215,48,1762115153.153103
0.352475106716156,0.17768579721450806,-0.21520614624023438,0.9996702075004578,0.4198318421840668,0.26464465260505676,-0.30370911955833435,0.9999736547470093,0.39021626114845276,0.2573820650577545,-0.003647786332294345,0.9982622861862183,0.4132963716983795,0.5417724847793579,-0.08510106056928635,0.9993788599967957,0.39786297082901,0.529581606388092,0.08508910238742828,0.9973219037055969,0.4078628122806549,0.7180757522583008,-0.006705752108246088,0.8931273221969604,0.40602654218673706,0.6778410077095032,0.19118843972682953,0.43385422229766846,0.4405128061771393,0.8302953243255615,0.10698789358139038,0.8618283867835999,0.43017274141311646,0.8047624230384827,0.3268073499202728,0.41148194670677185,0.42458072304725647,0.5545490384101868,-0.2898431420326233,0.9924414753913879,0.39134377241134644,0.5116764307022095,0.034580159932374954,0.07295545935630798,-179.8840960197537,0.40557967126369476,0.535677045583725,154.98065494561504,167.73291895584498,0.7765177905641321,0.0011705294339003657,-0.009488464767124345,0.04557888536478244,-0.03962693445238082,-166.22134369858085,0.019564692708907185,49,1762115153.2272315
0.35244888067245483,0.17877909541130066,-0.22145219147205353,0.9996787905693054,0.4202635884284973,0.2648515999317169,-0.30433040857315063,0.9999745488166809,0.3901912271976471,0.2579266130924225,-0.008960718289017677,0.9982712864875793,0.4137786030769348,0.5416317582130432,-0.08508872240781784,0.9993476867675781,0.39773425459861755,0.5293922424316406,0.08507979661226273,0.9973053932189941,0.409126341342926,0.722012996673584,-0.009334398433566093,0.8986663222312927,0.4057445526123047,0.6814797520637512,0.18696214258670807,0.43960222601890564,0.4403769075870514,0.8313782811164856,0.10485006868839264,0.862438440322876,0.43003541231155396,0.8091119527816772,0.32238417863845825,0.4189310371875763,0.42575621604919434,0.5584152340888977,-0.2880662679672241,0.9927638173103333,0.3931281566619873,0.5132980346679688,0.03228066861629486,0.07276207208633423,-179.88942684086544,0.4057564288377762,0.5355120003223419,153.51823133649756,166.25214367148786,0.7794951783258633,0.002462622612115555,-0.002299444280205015,0.018001705975933254,0.10015890126379814,-167.03213804873354,0.019048915896664544,50,1762115153.2990077
0.3525713384151459,0.18150848150253296,-0.22226329147815704,0.9996820092201233,0.4219356179237366,0.26813703775405884,-0.3029315173625946,0.9999741911888123,0.3902151882648468,0.26039567589759827,-0.011750330217182636,0.998306393623352,0.41575536131858826,0.5435960292816162,-0.08486923575401306,0.9992794990539551,0.39779433608055115,0.5322103500366211,0.08487462252378464,0.9972782135009766,0.40913891792297363,0.7260145545005798,-0.030142327770590782,0.902868926525116,0.4056861996650696,0.6932353377342224,0.17164555191993713,0.4344956874847412,0.4432939887046814,0.841386079788208,0.08723560720682144,0.8560488224029541,0.4333578646183014,0.8230940103530884,0.3024306297302246,0.41479480266571045,0.4286782741546631,0.5646877288818359,-0.28139322996139526,0.9928789734840393,0.4001941680908203,0.5229869484901428,0.033283401280641556,0.07225079834461212,-179.85354605413707,0.4067748486995697,0.5379031896591187,148.2632735634864,162.1339592794995,0.7776727026323563,0.013071676663198481,0.030691520288879368,0.13616989363692183,0.42344737944785144,-166.2850747036413,0.022625259823411095,51,1762115153.376918
0.3526524007320404,0.18313980102539062,-0.23579171299934387,0.9996864795684814,0.42271900177001953,0.27139517664909363,-0.3092871904373169,0.9999749660491943,0.38943448662757874,0.2657180726528168,-0.01434808224439621,0.9983553290367126,0.4166754186153412,0.5484321117401123,-0.0852280706167221,0.9992607235908508,0.39790135622024536,0.5387627482414246,0.08523387461900711,0.9972894787788391,0.4098545014858246,0.734825074672699,-0.014172126539051533,0.9071338176727295,0.4051421284675598,0.7010363936424255,0.18527545034885406,0.4377255141735077,0.4441818296909332,0.8536354899406433,0.11572321504354477,0.8553434014320374,0.4338766932487488,0.8287720680236816,0.3164476752281189,0.4174477458000183,0.4315012991428375,0.5733552575111389,-0.2838539481163025,0.9928303956985474,0.4013691544532776,0.5314701795578003,0.028531020507216454,0.07229805737733841,-179.74759529388544,0.4072883874177933,0.5435974299907684,150.44683274922858,164.42571337131136,0.8029334512894146,0.006726871414339208,0.07458916174004292,-0.08311094673784568,0.5750175769730108,-170.32061075331848,0.038425893538079035,52,1762115153.4532595
0.3523396849632263,0.1874149739742279,-0.22593864798545837,0.999695360660553,0.42319345474243164,0.27704066038131714,-0.30464714765548706,0.9999755024909973,0.38792186975479126,0.2724975645542145,-0.011917773634195328,0.9984329342842102,0.41687098145484924,0.5547188520431519,-0.08481787145137787,0.9992468953132629,0.3978422284126282,0.5452489256858826,0.08484315127134323,0.9973700046539307,0.4075887203216553,0.746857762336731,-0.03583532199263573,0.9120069146156311,0.4053038954734802,0.7137669920921326,0.17572268843650818,0.43658944964408875,0.4440740942955017,0.8639666438102722,0.09240619838237762,0.8488094806671143,0.4354638159275055,0.8428131937980652,0.3080421984195709,0.4155275225639343,0.4357728958129883,0.5811821818351746,-0.2656655013561249,0.9929656386375427,0.40049466490745544,0.535215437412262,0.030932698398828506,0.07268554717302322,-179.62549120041615,0.4073566049337387,0.5499838888645172,143.84817844739146,161.33701610997784,0.7954755031175311,0.0009845567816993733,0.09217326822956991,-0.08287658581322856,0.25378454572042203,-172.66052565452205,0.05398396740843378,53,1762115153.522547
