nose_x,nose_y,nose_z,nose_visibility,left_shoulder_x,left_shoulder_y,left_shoulder_z,left_shoulder_visibility,right_shoulder_x,right_shoulder_y,right_shoulder_z,right_shoulder_visibility,left_hip_x,left_hip_y,left_hip_z,left_hip_visibility,right_hip_x,right_hip_y,right_hip_z,right_hip_visibility,left_knee_x,left_knee_y,left_knee_z,left_knee_visibility,right_knee_x,right_knee_y,right_knee_z,right_knee_visibility,left_ankle_x,left_ankle_y,left_ankle_z,left_ankle_visibility,right_ankle_x,right_ankle_y,right_ankle_z,right_ankle_visibility,left_wrist_x,left_wrist_y,left_wrist_z,left_wrist_visibility,right_wrist_x,right_wrist_y,right_wrist_z,right_wrist_visibility,trunk_lateral_inclination,center_mass_x,center_mass_y,left_knee_angle,right_knee_angle,person_height,center_mass_velocity_x,center_mass_velocity_y,center_mass_acceleration_x,center_mass_acceleration_y,body_orientation,torso_leg_ratio,frame,timestamp
0.5003616213798523,0.3691673278808594,-0.22212287783622742,0.9999959468841553,0.5389334559440613,0.45752808451652527,-0.11644516885280609,0.999990701675415,0.44823265075683594,0.45273882150650024,-0.12185170501470566,0.9999768733978271,0.5163052082061768,0.6733695864677429,0.0002455864450894296,0.9998849630355835,0.46563535928726196,0.6696959137916565,-0.0004412804846651852,0.9998219609260559,0.5165166258811951,0.8292489051818848,0.017730804160237312,0.9906734824180603,0.4647996425628662,0.8303948044776917,0.03620215505361557,0.985903263092041,0.5189884901046753,0.9453250169754028,0.1388050764799118,0.9797658324241638,0.462864488363266,0.9449359178543091,0.1522374004125595,0.9632997512817383,0.5586511492729187,0.68608558177948,-0.09028731286525726,0.9918043613433838,0.4188810884952545,0.6844003796577454,-0.11119602620601654,0.982119619846344,179.3082537723879,0.49097028374671936,0.6715327501296997,140.18445629066605,147.4695849963856,0.6833628289990475,0.0,0.0,0.0,0.0,-176.97742532428558,9.700096482003572,0,1762115232.9361055
0.5006139278411865,0.36928626894950867,-0.2154967486858368,0.9999961256980896,0.5388126969337463,0.45749685168266296,-0.11217860132455826,0.9999901056289673,0.4474768042564392,0.45347586274147034,-0.12228620052337646,0.9999769330024719,0.5169602036476135,0.6735823750495911,0.00020085822325199842,0.9998688101768494,0.465637743473053,0.6714509129524231,-0.00038202496943995357,0.9998137354850769,0.5165153741836548,0.8285173773765564,0.026439210399985313,0.9906560182571411,0.4652208685874939,0.8300857543945312,0.03570236265659332,0.9860745668411255,0.518965482711792,0.9459061622619629,0.13933707773685455,0.9798529744148254,0.4635477662086487,0.9511064887046814,0.12445423752069473,0.9638336896896362,0.5585992336273193,0.6860324144363403,-0.0918855220079422,0.991733193397522,0.4188973009586334,0.6885884404182434,-0.11959953606128693,0.9827795624732971,179.51272844940453,0.49129897356033325,0.6725166440010071,145.71162973884714,156.5501117674192,0.6754738462610181,0.0045792519074334265,0.013707446048781135,0.06379737723288674,0.1909698623598262,-177.47922724807532,4.738799652447096,1,1762115233.0078835
0.500948429107666,0.3694370687007904,-0.19801533222198486,0.9999963045120239,0.5382165908813477,0.457564115524292,-0.10482586920261383,0.9999897480010986,0.44637003540992737,0.4535670280456543,-0.11655445396900177,0.9999771118164062,0.5170401930809021,0.6735804080963135,-5.970878555672243e-05,0.9998534917831421,0.46555274724960327,0.6723233461380005,-9.986703662434593e-05,0.9998060464859009,0.5162814855575562,0.828460693359375,0.027782579883933067,0.9906270503997803,0.46522268652915955,0.8296133279800415,0.033263303339481354,0.9861745834350586,0.5189419984817505,0.9470162987709045,0.12734416127204895,0.9798775315284729,0.463541179895401,0.9533986449241638,0.10607720911502838,0.964042603969574,0.5583057999610901,0.6861842274665833,-0.09070533514022827,0.991797149181366,0.41855111718177795,0.6884810328483582,-0.11673180758953094,0.983458399772644,179.7372672800071,0.4912964701652527,0.672951877117157,150.13833747406647,161.4952732427023,0.6606367761112626,-4.4254501314990896e-05,0.007693961157191989,-0.08173339159855318,-0.1063051442053237,-177.50810657721712,2.032286622631136,2,1762115233.0644517
0.5012596845626831,0.36961692571640015,-0.19292020797729492,0.9999964833259583,0.537600040435791,0.45762425661087036,-0.1019088625907898,0.9999895691871643,0.4456687867641449,0.45377543568611145,-0.11332952976226807,0.9999773502349854,0.5171339511871338,0.6736060380935669,-0.00018309072765987366,0.9998419284820557,0.46552538871765137,0.6729971766471863,3.5947719879914075e-05,0.9998007416725159,0.5160307884216309,0.8284606337547302,0.03015429712831974,0.9906900525093079,0.46522149443626404,0.8291416764259338,0.033353742212057114,0.9863967299461365,0.518892765045166,0.9474862813949585,0.12709589302539825,0.980077862739563,0.4635380208492279,0.9535700678825378,0.10761485993862152,0.9644457101821899,0.5581799149513245,0.6863622665405273,-0.08972643315792084,0.9919465184211731,0.4183376431465149,0.6883662343025208,-0.1128791943192482,0.9841181039810181,179.91975931938077,0.4913296699523926,0.6733016073703766,151.8813849641044,161.200490326511,0.6586575022195847,0.0003915531373458743,0.004124664332813137,0.005139847658598905,-0.04209573283754274,-177.6026380646441,0.5162945594433133,3,1762115233.1492417
0.5015127658843994,0.36964088678359985,-0.19483819603919983,0.999996542930603,0.5366736650466919,0.4577341377735138,-0.10248863697052002,0.99998939037323,0.44496336579322815,0.454424113035202,-0.11437694728374481,0.9999769926071167,0.5171079635620117,0.6739159226417542,-0.00021934331743977964,0.9998307824134827,0.4653964936733246,0.6736748218536377,7.810570969013497e-05,0.9997923970222473,0.5156149864196777,0.8284735083580017,0.030802831053733826,0.9906869530677795,0.46521615982055664,0.8290711045265198,0.03344455361366272,0.986356258392334,0.5187690854072571,0.9483600854873657,0.12734773755073547,0.9801948666572571,0.46353602409362793,0.9536625146865845,0.1104368194937706,0.9644013047218323,0.5577731132507324,0.6862183809280396,-0.0897785946726799,0.9920916557312012,0.4179266095161438,0.689506471157074,-0.11385241895914078,0.9847131371498108,-179.88586105430318,0.49125222861766815,0.6737953722476959,152.44820881090445,160.3887580260884,0.6607009172899883,-0.0014618221668159337,0.009320557883319756,-0.03498525835968572,0.09808033907957404,-177.93296756926978,0.587701888347736,4,1762115233.2022176
0.5023325681686401,0.3706103563308716,-0.19765923917293549,0.999996542930603,0.5350743532180786,0.4577511250972748,-0.10397414118051529,0.9999890327453613,0.4439791738986969,0.4558764100074768,-0.12201176583766937,0.9999768137931824,0.5171183347702026,0.6749095320701599,-0.0002168700157199055,0.9998195767402649,0.4654185175895691,0.6759958863258362,7.707973418291658e-05,0.9997825622558594,0.5153734683990479,0.8295508623123169,0.032958563417196274,0.9908310174942017,0.4652155041694641,0.8292692303657532,0.035152893513441086,0.9863500595092773,0.5186142325401306,0.9496176838874817,0.13449975848197937,0.9805212616920471,0.46356087923049927,0.9534914493560791,0.11672443151473999,0.9645669460296631,0.5575159192085266,0.6861727237701416,-0.08978518843650818,0.9918414354324341,0.41783028841018677,0.6913667321205139,-0.11971370130777359,0.985141932964325,-179.54359545413618,0.49126842617988586,0.675452709197998,151.82564849332812,159.58475502221904,0.6649262976215251,0.00020344710899224992,0.020816738138303606,0.020916370951569084,0.14439608910856036,-178.8210341864682,2.1933374847437195,5,1762115233.2818332
0.5029301643371582,0.3720483183860779,-0.1858666092157364,0.9999966025352478,0.5335254073143005,0.45774468779563904,-0.09544648230075836,0.9999890923500061,0.44316840171813965,0.4566574990749359,-0.11756308376789093,0.999976634979248,0.5170943140983582,0.6756758093833923,-0.00021670009300578386,0.9998148679733276,0.46549129486083984,0.6780534982681274,7.748631469439715e-05,0.9997774362564087,0.5150095224380493,0.830582320690155,0.0335516631603241,0.9909770488739014,0.46521449089050293,0.8296207189559937,0.03724455088376999,0.9861104488372803,0.5186145901679993,0.950186014175415,0.12848246097564697,0.9806121587753296,0.4634888172149658,0.9532895684242249,0.11892397701740265,0.9638704061508179,0.5563234686851501,0.6814218163490295,-0.08087937533855438,0.9920260310173035,0.41757288575172424,0.6938140392303467,-0.1151442676782608,0.9858267903327942,-179.231654460481,0.491292804479599,0.6768646538257599,153.7705545901919,160.32005349568524,0.6572780700538333,0.00029169198467511646,0.016894243469380187,0.0010558703120495173,-0.04693355436266848,-179.3106420575137,3.1316139821631173,6,1762115233.3654087
0.503233015537262,0.3735448122024536,-0.18338817358016968,0.9999966025352478,0.5314388275146484,0.4572840929031372,-0.09113847464323044,0.9999890923500061,0.4423564374446869,0.45720764994621277,-0.11457852274179459,0.999976634979248,0.5164738893508911,0.6758313179016113,-0.0003144199145026505,0.99981290102005,0.46549123525619507,0.6785707473754883,0.0001821329933591187,0.9997746348381042,0.5137242078781128,0.8326598405838013,0.03296632319688797,0.9912595152854919,0.4650106430053711,0.8324154615402222,0.04082677513360977,0.9859271049499512,0.5187066197395325,0.951069712638855,0.12763848900794983,0.9809284210205078,0.4631496071815491,0.9515479803085327,0.13065147399902344,0.9636861681938171,0.5540286898612976,0.6726744174957275,-0.07363299280405045,0.9919963479042053,0.41714373230934143,0.6949427723884583,-0.10942256450653076,0.9865444898605347,-178.93604526280055,0.4909825623035431,0.6772010326385498,153.18316126483535,157.77132862918756,0.656992894131315,-0.0032394141794853284,0.0035123215988329395,-0.03687027831892219,-0.13972822137633417,-179.9508336302295,2.6157143902642925,7,1762115233.4611797
0.5033080577850342,0.3741099536418915,-0.17714577913284302,0.9999966621398926,0.5311817526817322,0.4571126401424408,-0.0890311747789383,0.9999889731407166,0.4418838918209076,0.45755961537361145,-0.11134333908557892,0.9999768137931824,0.5162047743797302,0.6758319735527039,-0.0003739981912076473,0.9998121857643127,0.46551504731178284,0.6784600019454956,0.00024533391115255654,0.9997732639312744,0.5130907297134399,0.8329938054084778,0.032107602804899216,0.9912477731704712,0.46490421891212463,0.8330654501914978,0.045932769775390625,0.9853797554969788,0.5189049243927002,0.9538084268569946,0.10310079902410507,0.9807537198066711,0.4628670811653137,0.9515220522880554,0.1290617138147354,0.9623110294342041,0.5529643893241882,0.6702172756195068,-0.0725201889872551,0.9919056296348572,0.417020708322525,0.695345938205719,-0.10599615424871445,0.9871726036071777,-178.8722439652763,0.49085991084575653,0.6771459877490997,160.91311522958384,161.3872154116512,0.6487392547916444,-0.0016534434048680459,-0.0007420507760396746,0.021380201792365168,-0.05735246911885252,179.7132117144849,2.290036203096896,8,1762115233.5353591
0.5042560696601868,0.375224232673645,-0.16949212551116943,0.9999967217445374,0.5300651788711548,0.4569578766822815,-0.08527268469333649,0.9999887347221375,0.4414912760257721,0.45888572931289673,-0.1104646772146225,0.999976396560669,0.515908420085907,0.6760464906692505,-0.00025937435566447675,0.9998112320899963,0.46552062034606934,0.6794256567955017,0.0001383893977617845,0.9997721910476685,0.5128413438796997,0.8352245092391968,0.03171158581972122,0.9913456439971924,0.4648054242134094,0.8363860845565796,0.04457660764455795,0.985020101070404,0.5191300511360168,0.9542997479438782,0.10973290354013443,0.9807655215263367,0.46263813972473145,0.9514802098274231,0.12822593748569489,0.9613820314407349,0.5521947741508484,0.6693060994148254,-0.06793476641178131,0.9917418956756592,0.41694507002830505,0.7002258896827698,-0.10211384296417236,0.9877530336380005,-178.71354479476955,0.49071452021598816,0.6777360737323761,157.82600886640165,159.78325440146114,0.645826878433378,-0.0022874201970036834,0.009283779830003676,-0.009974310731530616,0.1577356632716792,178.7531272975197,2.394269540472544,9,1762115233.59892
0.5047260522842407,0.3754851818084717,-0.15963467955589294,0.9999964833259583,0.5285989046096802,0.4569645822048187,-0.08401231467723846,0.9999874830245972,0.4414687752723694,0.4599671959877014,-0.10787858814001083,0.999975323677063,0.5155432820320129,0.6764740943908691,-0.00025854777777567506,0.9998052716255188,0.46568647027015686,0.6806918382644653,0.0001384088973281905,0.9997686743736267,0.5124915838241577,0.8373467326164246,0.03140687569975853,0.9912333488464355,0.46457070112228394,0.8393459916114807,0.044799670577049255,0.9843599200248718,0.5193319916725159,0.9563086628913879,0.08908239752054214,0.9804853796958923,0.4623796045780182,0.9548082947731018,0.11741483211517334,0.9596511721611023,0.5503955483436584,0.6642245650291443,-0.0702352300286293,0.9905197024345398,0.41694825887680054,0.7069462537765503,-0.10028008371591568,0.9880768060684204,-178.54758509761342,0.4906148761510849,0.6785829663276672,164.724642483271,163.53972890911007,0.6370125904024669,-0.0013101899746073545,0.011135537164174425,0.012849307598099664,0.02434820274535788,178.02629647682332,2.3997689447918495,10,1762115233.6749732
0.5061709880828857,0.3767702877521515,-0.16787537932395935,0.9999960064888,0.5269498229026794,0.45701566338539124,-0.08714263886213303,0.999986469745636,0.44121256470680237,0.46297726035118103,-0.11706565320491791,0.9999738335609436,0.5153547525405884,0.6775132417678833,0.00016758414858486503,0.9997918605804443,0.4659915864467621,0.6834349036216736,-0.0002528168843127787,0.9997570514678955,0.512450635433197,0.840660035610199,0.0312097929418087,0.9906468987464905,0.46442729234695435,0.8409661054611206,0.044385071843862534,0.9825884699821472,0.5197039842605591,0.9573233127593994,0.09414259344339371,0.9786204099655151,0.4624346196651459,0.957019031047821,0.11493271589279175,0.9546657800674438,0.549614667892456,0.6649240255355835,-0.07396437227725983,0.988991379737854,0.41697388887405396,0.7155325412750244,-0.10650863498449326,0.9881079792976379,-178.28744559885897,0.49067316949367523,0.6804740726947784,161.9477953223341,164.51455384951413,0.6413283935209932,0.000801108773861246,0.025988935197017057,0.02901497626456198,0.20412601091324428,176.0224358329538,2.5051800668007496,11,1762115233.747739
0.5085085034370422,0.3783186078071594,-0.16959361732006073,0.999994695186615,0.5237694978713989,0.45700275897979736,-0.08209645748138428,0.999983549118042,0.4412299692630768,0.4662688672542572,-0.12728342413902283,0.9999714493751526,0.5149121880531311,0.6794834733009338,0.002025874564424157,0.9997690320014954,0.466467946767807,0.6874417066574097,-0.002082563005387783,0.9997383952140808,0.5124987363815308,0.8433958888053894,0.034061335027217865,0.9904356598854065,0.4642181992530823,0.8412678241729736,0.03742615133523941,0.981562614440918,0.5195906162261963,0.9594212174415588,0.09600280970335007,0.9778562784194946,0.46251559257507324,0.9595491290092468,0.11529723554849625,0.9527111649513245,0.5483793020248413,0.6609179973602295,-0.05672485753893852,0.9869957566261292,0.41711539030075073,0.7246790528297424,-0.11582949012517929,0.988426685333252,-177.88547398016624,0.49069006741046906,0.6834625899791718,162.51692425744275,161.0392245318764,0.6432871279967228,0.00024946235802204066,0.044119199890183765,-0.008143904208355333,0.2676553942776165,173.59464139938075,3.038367224234197,12,1762115233.8154764
0.5096977949142456,0.37975549697875977,-0.17961591482162476,0.9999930262565613,0.5228474140167236,0.45666131377220154,-0.08363854140043259,0.9999817609786987,0.441133975982666,0.46853548288345337,-0.1429210603237152,0.9999681711196899,0.5145395994186401,0.6808146238327026,0.003421333385631442,0.9997618794441223,0.46667367219924927,0.6898707151412964,-0.003478315891698003,0.999718964099884,0.5125306248664856,0.8443809747695923,0.021954430267214775,0.990079939365387,0.46355265378952026,0.8434559106826782,0.03758087009191513,0.9794980883598328,0.5192428827285767,0.9614225625991821,0.10223841667175293,0.9763646721839905,0.4622710645198822,0.9592752456665039,0.14245973527431488,0.9486156105995178,0.5477729439735413,0.6597161889076233,-0.05513395741581917,0.985325038433075,0.41751304268836975,0.7284762859344482,-0.12947922945022583,0.9887224435806274,-177.78485409126768,0.4906066358089447,0.6853426694869995,151.81373056732778,152.79574405358608,0.6546986442689077,-0.0012524247695126839,0.028222617104735725,-0.022545421700765206,-0.23862989163995252,171.73195018144247,3.171900020265929,13,1762115233.8820925
0.5109575986862183,0.3814828097820282,-0.21113426983356476,0.9999887943267822,0.5212028622627258,0.4563857316970825,-0.08827013522386551,0.9999756813049316,0.44162851572036743,0.4702388644218445,-0.1766580045223236,0.9999659061431885,0.5141900181770325,0.683314323425293,0.012436587363481522,0.9997433423995972,0.46733736991882324,0.6936742067337036,-0.012453678995370865,0.9996946454048157,0.5128527879714966,0.8451130390167236,0.029888469725847244,0.9884266257286072,0.4631541669368744,0.8460313677787781,0.0439629852771759,0.9757668972015381,0.5192066431045532,0.9651409387588501,0.11860819160938263,0.9714905619621277,0.4622931480407715,0.9588104486465454,0.17991329729557037,0.9392783641815186,0.5475555062294006,0.6575422883033752,-0.02984185889363289,0.9811239242553711,0.41814517974853516,0.7332611083984375,-0.15179690718650818,0.9890312552452087,-177.6228385989354,0.49076369404792786,0.6884942650794983,149.55052156530869,149.97384912673846,0.6835677770857089,0.0023558421308614427,0.047273302720796495,0.054123280881851345,0.28575646898043855,170.12432786915554,3.4024690284723156,14,1762115233.94876
0.512585461139679,0.3835084140300751,-0.24144892394542694,0.9999732375144958,0.5174369812011719,0.45516830682754517,-0.08540661633014679,0.9999444484710693,0.44344210624694824,0.47355058789253235,-0.20769719779491425,0.9999643564224243,0.5140033960342407,0.6858069896697998,0.03090263530611992,0.9997099041938782,0.46891385316848755,0.6980388164520264,-0.030926445499062538,0.9996816515922546,0.5147266983985901,0.8445309400558472,0.11229754984378815,0.9814485311508179,0.4631746709346771,0.8462486267089844,0.05990969389677048,0.9734300971031189,0.5163397192955017,0.9649760723114014,0.22693142294883728,0.9650689959526062,0.4622887074947357,0.9586294293403625,0.219669371843338,0.9363533854484558,0.543756365776062,0.6419190764427185,-0.03864722326397896,0.9610718488693237,0.4207562506198883,0.74129319190979,-0.2107081413269043,0.9888991713523865,-177.22778825968848,0.49145862460136414,0.6919229030609131,163.5558883797378,156.57184042567437,0.7422653316901505,0.010390561780128975,0.05126479846284922,0.12013466739793527,0.05968061541954271,166.0486444897855,30.228292083031953,15,1762115234.015641
0.5148087739944458,0.3838110566139221,-0.22310535609722137,0.9999128580093384,0.51557856798172,0.4510689973831177,-0.06598195433616638,0.9998874664306641,0.4469844698905945,0.47696682810783386,-0.19687969982624054,0.999958336353302,0.5140119194984436,0.687131941318512,0.03832162916660309,0.999581515789032,0.47144097089767456,0.7006920576095581,-0.03832809999585152,0.9996026158332825,0.5186148881912231,0.8429778814315796,0.12979641556739807,0.9723709225654602,0.4632522165775299,0.8469557166099548,0.05486243963241577,0.9717197418212891,0.5125566124916077,0.9621401429176331,0.25101983547210693,0.958158552646637,0.4621482789516449,0.9606492519378662,0.20251794159412384,0.9345769882202148,0.5410095453262329,0.6208258867263794,-0.04551459476351738,0.9207602143287659,0.4257764220237732,0.7475521564483643,-0.20832574367523193,0.9869789481163025,-177.14997000228763,0.4927264451980591,0.693911999464035,164.5146694051056,159.9625361396825,0.7326278373633487,0.01640199441096093,0.025733252931777945,0.07777084917993189,-0.3303056191037623,159.31587660117575,3.195026653146825,16,1762115234.0929377
0.5171879529953003,0.38351690769195557,-0.21700406074523926,0.9998937249183655,0.5156229734420776,0.4507482349872589,-0.05291473865509033,0.9998460412025452,0.4525410532951355,0.4780397117137909,-0.18724104762077332,0.9999527931213379,0.5142702460289001,0.6904464960098267,0.04029906541109085,0.9995176196098328,0.4733184278011322,0.7035577297210693,-0.040346696972846985,0.9995624423027039,0.5226770043373108,0.8427481055259705,0.13215449452400208,0.9679274559020996,0.46369433403015137,0.84930819272995,0.05248139053583145,0.971468448638916,0.5090533494949341,0.95963454246521,0.2682898938655853,0.9545890688896179,0.4621782898902893,0.9625214338302612,0.20447619259357452,0.9354228973388672,0.5399872064590454,0.614956796169281,-0.05057181045413017,0.8949761390686035,0.4326396584510803,0.7545984983444214,-0.2019963264465332,0.9853443503379822,-177.60906001975144,0.4937943369150162,0.697002112865448,160.43849692695014,159.00339825821183,0.7349377302256322,0.015681674159034254,0.04537740175895583,-0.01057768994880357,0.28846851806020335,156.60497872299135,1.2828578296005189,17,1762115234.1610358
0.516865074634552,0.3833652436733246,-0.20524565875530243,0.9998751878738403,0.5149722695350647,0.4506095349788666,-0.04926861450076103,0.9997903108596802,0.45433473587036133,0.4779086709022522,-0.18428878486156464,0.9999499320983887,0.5146169662475586,0.691838800907135,0.04093823581933975,0.9994560480117798,0.47448477149009705,0.7047610282897949,-0.040992144495248795,0.9995332956314087,0.5236405730247498,0.8425911068916321,0.13111503422260284,0.9633986353874207,0.46418675780296326,0.8501554727554321,0.05132906511425972,0.971289873123169,0.5082738399505615,0.9580135941505432,0.2687149941921234,0.9507507681846619,0.46250882744789124,0.9641129970550537,0.20456700026988983,0.9360728859901428,0.5391749143600464,0.6091883778572083,-0.05244803428649902,0.8637179136276245,0.4343145489692688,0.7554909586906433,-0.20573969185352325,0.9843536019325256,-177.57845812934724,0.4945508688688278,0.698299914598465,159.34802382425974,158.85896448423784,0.7280037447090061,0.010758617065281516,0.018455997531684625,-0.07001063972955497,-0.3828484408114944,155.76263303449932,1.1612086092022182,18,1762115234.2313545
0.5183300375938416,0.38332486152648926,-0.18814882636070251,0.999847948551178,0.5152362585067749,0.44998812675476074,-0.04439184069633484,0.9997380375862122,0.4568464756011963,0.47764164209365845,-0.19151094555854797,0.9999464750289917,0.514795184135437,0.693712592124939,0.0440872386097908,0.9994035363197327,0.4756001830101013,0.7055477499961853,-0.044136013835668564,0.9995006918907166,0.5231691598892212,0.8423562049865723,0.13612613081932068,0.9585719108581543,0.4645065367221832,0.8504224419593811,0.0552595779299736,0.9710105657577515,0.5058372616767883,0.9580420851707458,0.2593182325363159,0.9473324418067932,0.46263638138771057,0.9660859704017639,0.2164606750011444,0.9363123178482056,0.5393638014793396,0.599625825881958,0.00415900070220232,0.8297378420829773,0.44126877188682556,0.7560535669326782,-0.21392159163951874,0.9826824069023132,-177.77641690269607,0.49519768357276917,0.6996301710605621,162.69171757798412,159.8879894996872,0.7194511700456925,0.009013560521489515,0.01853753023416527,-0.024317896106945767,0.001136183119851489,154.65767339757144,0.9535816484180748,19,1762115234.3031147
0.5207436680793762,0.38387608528137207,-0.18459884822368622,0.9998149275779724,0.5159342288970947,0.45115822553634644,-0.03941544145345688,0.999618411064148,0.4612523019313812,0.47776201367378235,-0.2035883665084839,0.9999431371688843,0.5149940252304077,0.6952233910560608,0.045642584562301636,0.9993388652801514,0.47684749960899353,0.705712080001831,-0.04569772258400917,0.9994673728942871,0.5228373408317566,0.8446686863899231,0.129509836435318,0.9508047103881836,0.46578675508499146,0.8512135744094849,0.05378575995564461,0.9692901968955994,0.5039690136909485,0.9614858031272888,0.2504335045814514,0.9406905174255371,0.462641179561615,0.9707765579223633,0.21389484405517578,0.9345377087593079,0.5382570028305054,0.5997940897941589,0.08533231168985367,0.779051661491394,0.4507977366447449,0.7573503851890564,-0.2148980349302292,0.9814155697822571,-178.22166828054952,0.4959207624197006,0.7004677355289459,161.0453747883365,160.9334966114236,0.717017475050473,0.008456685042202388,0.009795638389533474,-0.006512872774582969,-0.10223978521398583,154.05620517669877,0.6656549238276753,20,1762115234.3886185
0.5227420330047607,0.3840691149234772,-0.2012653350830078,0.999789834022522,0.5163446664810181,0.45496127009391785,-0.04624948650598526,0.9994460940361023,0.4660941958427429,0.479292631149292,-0.23402981460094452,0.9999374151229858,0.5150017142295837,0.6970252394676208,0.04681829363107681,0.9992998838424683,0.4771578907966614,0.7063068151473999,-0.046869318932294846,0.999448299407959,0.5222039818763733,0.8473592400550842,0.12037714570760727,0.9410278797149658,0.4712173044681549,0.8543733358383179,0.04839375615119934,0.9652407765388489,0.5028174519538879,0.9646272659301758,0.24877819418907166,0.9278623461723328,0.46261993050575256,0.970854640007019,0.20987248420715332,0.9290554523468018,0.5386038422584534,0.6040773391723633,0.13535691797733307,0.7342861294746399,0.46209993958473206,0.758746862411499,-0.24602362513542175,0.9806491732597351,-178.8128250710342,0.49607980251312256,0.7016660273075104,156.76558662629472,158.5660463388037,0.7264179314910065,0.002103647768197844,0.01584998959312263,-0.08403260080639535,0.08008183422985578,154.16365752032843,0.3473442466774605,21,1762115234.4642205
0.5252452492713928,0.38467156887054443,-0.20195738971233368,0.9997742176055908,0.5170233845710754,0.4649573564529419,-0.047448769211769104,0.9993463754653931,0.47100695967674255,0.4824531674385071,-0.2379421442747116,0.9999363422393799,0.515144944190979,0.7055485844612122,0.04797711223363876,0.999302327632904,0.4806342124938965,0.7121150493621826,-0.048002757132053375,0.9994596838951111,0.5198023915290833,0.8513643741607666,0.13687971234321594,0.9338040947914124,0.47933775186538696,0.8641271591186523,0.05096207186579704,0.9635541439056396,0.501848578453064,0.9633153080940247,0.2881237864494324,0.9204076528549194,0.4626319408416748,0.9700740575790405,0.22962825000286102,0.9267632365226746,0.5380476713180542,0.6520156264305115,0.05255600064992905,0.6881291270256042,0.47525614500045776,0.7634415626525879,-0.24492624402046204,0.9803120493888855,-179.05596781191267,0.49788957834243774,0.7088318169116974,156.81565752812935,153.42899737040008,0.7436180230437007,0.024903872021837126,0.09860663643939344,0.31374817680965433,1.1387934951014134,159.18279799008934,0.22355595383418667,22,1762115234.536891
0.5264765024185181,0.3846179246902466,-0.20157384872436523,0.9997665882110596,0.5182163119316101,0.4682600200176239,-0.04587789624929428,0.9992653131484985,0.4707704186439514,0.48372307419776917,-0.2335009127855301,0.9999377727508545,0.5152344107627869,0.7073007225990295,0.047932468354701996,0.9993118643760681,0.48106297850608826,0.7123466730117798,-0.04795723780989647,0.9994769096374512,0.5178952813148499,0.852514386177063,0.13540512323379517,0.9274511337280273,0.48034757375717163,0.8662582635879517,0.052700482308864594,0.9623403549194336,0.5014777779579163,0.9623754024505615,0.28882351517677307,0.9137836694717407,0.4625256061553955,0.9680187702178955,0.23542575538158417,0.925443172454834,0.5372331738471985,0.6585479974746704,0.033971723169088364,0.6475191712379456,0.4773862361907959,0.7626503705978394,-0.2463093101978302,0.9804810881614685,-179.10440935334438,0.49814869463443756,0.7098236978054047,155.9624819758391,151.9433205892212,0.7443564037201112,0.004107441155573025,0.015723026803126275,-0.3296593794618777,-1.313848491405138,161.94873321272345,0.21350305604946704,23,1762115234.5999756
0.5284901261329651,0.386255145072937,-0.1685219705104828,0.99977707862854,0.5183817148208618,0.4742225110530853,-0.023242631927132607,0.99925297498703,0.47616392374038696,0.4840368926525116,-0.2202635258436203,0.999940037727356,0.5153177976608276,0.7120369076728821,0.04927145317196846,0.9993519186973572,0.4834144115447998,0.7160794734954834,-0.04929519072175026,0.9995093941688538,0.514541506767273,0.8616389632225037,0.1331065595149994,0.9152889847755432,0.4865310788154602,0.8777327537536621,0.03603755682706833,0.9612683057785034,0.5018314719200134,0.9621736407279968,0.27757495641708374,0.9060043096542358,0.46253442764282227,0.9656723737716675,0.2295169085264206,0.9216184616088867,0.5374168753623962,0.688475489616394,0.03740590438246727,0.6201999187469482,0.4896407723426819,0.7653997540473938,-0.2430097758769989,0.9802908301353455,-179.48949043593737,0.4993661046028137,0.7140581905841827,153.83204071902796,141.6166147981535,0.7169280495987717,0.015474092604770548,0.05382322725716173,0.14447772048855537,0.4842789572952629,166.91288287027822,0.1140485018207785,24,1762115234.6786497
0.5311855673789978,0.3869324028491974,-0.1493179351091385,0.9997764825820923,0.5182934403419495,0.4756660461425781,-0.02167922630906105,0.9991575479507446,0.4818740487098694,0.48563405871391296,-0.21012382209300995,0.9999379515647888,0.5148175954818726,0.7107048630714417,0.04972027242183685,0.9993358254432678,0.48936977982521057,0.7157576084136963,-0.04972285032272339,0.9995242953300476,0.5098305940628052,0.8594159483909607,0.15092185139656067,0.879939615726471,0.500141441822052,0.8856783509254456,0.03674929216504097,0.959735095500946,0.49828672409057617,0.9508945941925049,0.2660810351371765,0.8878311514854431,0.4646013379096985,0.9623410701751709,0.1775117665529251,0.9198505282402039,0.5365356206893921,0.6992770433425903,0.0317147895693779,0.577850341796875,0.5027108788490295,0.7639474868774414,-0.19478508830070496,0.9763811230659485,-179.50486797804723,0.5020936876535416,0.713231235742569,162.47653191712007,142.32622407798175,0.6817195605146167,0.0396997355736698,-0.012036256250628968,0.35260213972615567,-0.9585790905908663,164.69298269068028,0.08537332720605623,25,1762115234.747355
0.5321499109268188,0.3878922462463379,-0.12986773252487183,0.9997337460517883,0.5153375864028931,0.4748997986316681,-0.0046430910006165504,0.9988910555839539,0.48871105909347534,0.48525628447532654,-0.19614697992801666,0.9999368786811829,0.5072462558746338,0.7092161774635315,0.05229255557060242,0.9991890788078308,0.4913480281829834,0.714642345905304,-0.05226042866706848,0.9995080828666687,0.50898677110672,0.858532726764679,0.146743506193161,0.8378387093544006,0.513229250907898,0.8898745775222778,0.010922079905867577,0.9567623734474182,0.49300819635391235,0.9515970945358276,0.25431329011917114,0.846390426158905,0.46867305040359497,0.9623380303382874,0.1400708258152008,0.9065203070640564,0.5286834836006165,0.6929672956466675,0.042581330984830856,0.5279091596603394,0.5142014026641846,0.7631585001945496,-0.17990127205848694,0.972937285900116,179.32608187612664,0.4992971420288086,0.7119292616844177,161.8150920520463,133.27331785154493,0.6583672721535954,-0.048382298348010805,-0.022525109823251593,-1.5238840398698232,-0.18146488953767143,158.74626986131784,0.09009996676541762,26,1762115234.805156
0.5357134342193604,0.38909703493118286,-0.10648180544376373,0.9996126890182495,0.5154004096984863,0.4737316071987152,0.017840217798948288,0.9986030459403992,0.49422797560691833,0.4850001037120819,-0.18258529901504517,0.9999321699142456,0.5079928636550903,0.7084662914276123,0.05579528957605362,0.9989827275276184,0.49331825971603394,0.7145076990127563,-0.05573304742574692,0.9994378685951233,0.5097640752792358,0.8600634932518005,0.14265556633472443,0.7794512510299683,0.5255526900291443,0.8871199488639832,-0.019953502342104912,0.9484639763832092,0.48802250623703003,0.9520777463912964,0.22251299023628235,0.7862032055854797,0.4731932282447815,0.9674568772315979,0.11274024099111557,0.8725370764732361,0.5277534127235413,0.6903291344642639,0.06497599929571152,0.47975659370422363,0.5233427882194519,0.7611156105995178,-0.1667170375585556,0.9673371315002441,178.97361130058758,0.5006555616855621,0.7114869952201843,164.58264761244607,125.23513023632086,0.6354814040719285,0.021348294609369437,-0.006950455058095313,1.0958537255694756,0.24476406588549565,151.9769804122001,0.1122391600115006,27,1762115234.8687873
0.5352904796600342,0.38899293541908264,-0.11440178006887436,0.9996413588523865,0.5138653516769409,0.4736354947090149,0.045817069709300995,0.9985904693603516,0.49692583084106445,0.4841601550579071,-0.1613987386226654,0.9999351501464844,0.5066537857055664,0.7083131074905396,0.057263899594545364,0.9988816976547241,0.4943321645259857,0.71404629945755,-0.05724472552537918,0.9993910193443298,0.5098043084144592,0.8593044877052307,0.13100871443748474,0.7335537672042847,0.5264327526092529,0.8859384059906006,-0.022601865231990814,0.9354956746101379,0.4870362877845764,0.9524893760681152,0.2157801389694214,0.7298716306686401,0.47589173913002014,0.968569278717041,0.10995219647884369,0.8358402252197266,0.5293745398521423,0.4560389518737793,0.24228279292583466,0.46264100074768066,0.5243592262268066,0.7594701051712036,-0.14583685994148254,0.9611079096794128,178.7908763478875,0.5004929751157761,0.7111797034740448,160.2442164182945,125.92888321643672,0.6375175689244187,-0.0016080814678743319,-0.003039304924434467,-0.22705272020894676,0.038683687442878915,148.14698373868427,0.1337483832496376,28,1762115234.9698932
0.5376673340797424,0.3889186382293701,-0.09401889890432358,0.9996656775474548,0.5139473080635071,0.4729077219963074,0.06304288655519485,0.9986223578453064,0.49982866644859314,0.48405659198760986,-0.15942874550819397,0.9999387860298157,0.5069718956947327,0.7139679789543152,0.060125816613435745,0.9988651871681213,0.4981920123100281,0.7202258706092834,-0.06009618192911148,0.9993652701377869,0.5103649497032166,0.8646254539489746,0.13008520007133484,0.6885246634483337,0.5271254777908325,0.8853683471679688,-0.0025222538970410824,0.9204955697059631,0.4895976185798645,0.9564433693885803,0.22530953586101532,0.6774042248725891,0.48507803678512573,0.9688279628753662,0.13619820773601532,0.8075684905052185,0.529924750328064,0.40711966156959534,0.271723210811615,0.4637056589126587,0.5341864824295044,0.7587409019470215,-0.1540885865688324,0.9569512605667114,178.9661547034599,0.5025819540023804,0.7170969247817993,156.642038029112,133.87997496588795,0.6381099927436505,0.0346095089310402,0.09803455889904487,0.6000410183223739,1.6745582327927362,141.70340243991723,0.13709820188859342,29,1762115235.0302517
0.5404423475265503,0.38446569442749023,-0.08394033461809158,0.9996809363365173,0.513931155204773,0.4726387858390808,0.07256989181041718,0.9985959529876709,0.5041489601135254,0.4802686870098114,-0.15409374237060547,0.9999416470527649,0.507248044013977,0.7148894667625427,0.06127633526921272,0.9984230995178223,0.5042955875396729,0.720490038394928,-0.061248719692230225,0.9991856217384338,0.5106489658355713,0.8702245354652405,0.1314448118209839,0.6432034373283386,0.5282050371170044,0.885045051574707,0.00023304202477447689,0.9025469422340393,0.492962509393692,0.9815360307693481,0.22048333287239075,0.6281227469444275,0.5002288222312927,1.0174424648284912,0.10453881323337555,0.783584713935852,0.5337346792221069,0.43182653188705444,0.26406386494636536,0.44919779896736145,0.5457015037536621,0.7557286024093628,-0.14708617329597473,0.9547950029373169,179.22380988614975,0.505771815776825,0.7176897525787354,163.4868786095749,155.34980577075234,0.6640141557541965,0.04029943131844962,0.007489548066844179,0.07188419206617208,-1.1439092673211204,142.04653751213007,0.1431409353142337,30,1762115235.1094058
0.5425317883491516,0.37975841760635376,-0.08818643540143967,0.999317467212677,0.5070815682411194,0.47042930126190186,0.037395525723695755,0.9982424974441528,0.5196355581283569,0.4781518280506134,-0.16083186864852905,0.9999186396598816,0.4982292652130127,0.7089439034461975,0.06083674356341362,0.9968974590301514,0.5147765278816223,0.719606339931488,-0.06082432344555855,0.998611569404602,0.509390115737915,0.85979163646698,0.13102394342422485,0.5990530848503113,0.533782958984375,0.8814954161643982,0.004460389260202646,0.9002292156219482,0.4951997399330139,0.9797923564910889,0.2186015546321869,0.587382972240448,0.509483277797699,1.0032628774642944,0.09296467900276184,0.7815530896186829,0.5233832597732544,0.6841284036636353,0.07305986434221268,0.40572530031204224,0.5550692677497864,0.7495504021644592,-0.09805610775947571,0.9502539038658142,178.363669858921,0.5065028965473175,0.7142751216888428,165.47010643498257,159.1930965194337,0.6598469173030445,0.011509552586142181,-0.05375722543352601,-0.4532448897471361,-0.9642203553775869,31.59755214511342,0.35621201739989183,31,1762115235.1729252
0.5449575781822205,0.3795921206474304,-0.09026795625686646,0.9991876482963562,0.502292275428772,0.4661370515823364,0.027559613808989525,0.99805748462677,0.528119683265686,0.47679421305656433,-0.16335968673229218,0.9999072551727295,0.49463415145874023,0.7034223675727844,0.06260917335748672,0.9957332611083984,0.5186124444007874,0.7191202640533447,-0.06266257166862488,0.9982945919036865,0.5082467794418335,0.8497375249862671,0.14531099796295166,0.5733024477958679,0.5347992181777954,0.8726557493209839,0.010065821930766106,0.90531325340271,0.4972958564758301,0.976694643497467,0.24935582280158997,0.5747835636138916,0.5159891843795776,1.0271553993225098,0.11334703862667084,0.7944988012313843,0.5187960863113403,0.703963041305542,0.05311695858836174,0.3664075434207916,0.565513014793396,0.7436397075653076,-0.09274227917194366,0.9439882636070251,177.9502503484799,0.5066232979297638,0.7112713158130646,167.0150001205072,165.97374230568036,0.6801054141828102,0.0014782030904689563,-0.036878605864221925,-0.12315782032397583,0.20722376357535005,22.42250908231472,0.5767358052129196,32,1762115235.2543764
0.5467196106910706,0.37526434659957886,-0.0830598771572113,0.9991607666015625,0.4983963072299957,0.46235930919647217,0.024424942210316658,0.9980027079582214,0.5307456254959106,0.476279616355896,-0.1602344810962677,0.9999006390571594,0.4931762218475342,0.7008265852928162,0.06270533055067062,0.994952917098999,0.519576370716095,0.7186971306800842,-0.06276945769786835,0.9980721473693848,0.5079296827316284,0.8438394069671631,0.1425490528345108,0.5483057498931885,0.5350989103317261,0.8678959608078003,0.010358685627579689,0.9100643396377563,0.49862271547317505,0.9748297929763794,0.24492081999778748,0.5617114901542664,0.51715087890625,1.03244149684906,0.10914306342601776,0.8062233328819275,0.5154482126235962,0.7020174860954285,0.058837927877902985,0.33114245533943176,0.566072404384613,0.7409398555755615,-0.07955530285835266,0.9408037662506104,178.04802166948656,0.5063762962818146,0.7097618579864502,167.840427834648,168.25780629379815,0.6811800277392295,-0.003787560277413199,-0.023146252472333626,-0.08074600444183425,0.2105739644020907,23.28280078187155,0.6012892450972702,33,1762115235.3195903
0.5478187203407288,0.3743054270744324,-0.07151900976896286,0.9991264939308167,0.4988749623298645,0.4581557810306549,0.03255655616521835,0.9980086088180542,0.5358246564865112,0.47043541073799133,-0.15360218286514282,0.9999012351036072,0.4935494065284729,0.6994920969009399,0.06261273473501205,0.9945271611213684,0.5219348669052124,0.7181789875030518,-0.06269965320825577,0.9979783892631531,0.506488025188446,0.8401265740394592,0.14464053511619568,0.5272431969642639,0.5328505039215088,0.8636191487312317,0.011106480844318867,0.9140768647193909,0.4995395243167877,0.9737294316291809,0.24653367698192596,0.5500448346138,0.52647465467453,1.0322108268737793,0.1084902286529541,0.8154932260513306,0.5177062749862671,0.7012092471122742,0.06435351073741913,0.2997228503227234,0.571481466293335,0.7382954359054565,-0.07748167216777802,0.9379884004592896,177.7500767243553,0.5077421367168427,0.7088355422019958,170.0993368016871,173.48980179542266,0.677087570209467,0.01716422829509739,-0.01164081483456725,0.2632967021816074,0.1445864049599386,18.38338766381086,1.4419060891862283,34,1762115235.3991652
0.5490734577178955,0.37483152747154236,-0.061408817768096924,0.999147891998291,0.49835944175720215,0.4557434022426605,0.034323371946811676,0.9980688691139221,0.5441092252731323,0.4690443277359009,-0.1470681130886078,0.9999038577079773,0.49355077743530273,0.6986150145530701,0.06179099157452583,0.9945895075798035,0.5253379940986633,0.7148633599281311,-0.06188230589032173,0.997988224029541,0.5068455934524536,0.8409263491630554,0.14752361178398132,0.5278464555740356,0.5364061594009399,0.8646724224090576,0.009353305213153362,0.9193822741508484,0.5015602111816406,0.9768339395523071,0.24650800228118896,0.5558953285217285,0.5356071591377258,1.0396170616149902,0.09051287174224854,0.8271110653877258,0.5168434977531433,0.6895853877067566,0.06866686046123505,0.27156221866607666,0.5772180557250977,0.7346201539039612,-0.05397079139947891,0.9337342977523804,177.23755407727955,0.509444385766983,0.7067391872406006,171.88533438578082,175.88414154698566,0.6745223607293512,0.026130628437999803,-0.032180410126156064,0.13764006538366946,-0.3152961270779596,16.210837719239706,3.8742053041425573,35,1762115235.464309
0.5511852502822876,0.3766849637031555,-0.03290750831365585,0.9991757869720459,0.49836888909339905,0.4559462368488312,0.03713073953986168,0.998160719871521,0.5513516664505005,0.46960097551345825,-0.13590601086616516,0.9999065399169922,0.4942518174648285,0.700580358505249,0.060928236693143845,0.9948095083236694,0.530312180519104,0.7164046168327332,-0.06109531968832016,0.9979923963546753,0.507959246635437,0.8421462178230286,0.14652150869369507,0.5302937030792236,0.5398357510566711,0.8655894994735718,0.020465459674596786,0.9237291216850281,0.5026670694351196,0.9775679111480713,0.2452477514743805,0.5568853616714478,0.5387433767318726,1.0369422435760498,0.09755651652812958,0.8344016075134277,0.5170825719833374,0.6954793334007263,0.07462185621261597,0.24673689901828766,0.5849231481552124,0.7320929765701294,-0.04545362666249275,0.9321790337562561,177.06960335166207,0.5122819989919662,0.7084924876689911,171.7908616694061,174.30341380608078,0.6635436159294205,0.03800589640340149,0.02348302927924332,0.15905275605640673,0.7455346249703001,14.451803268663788,3.938989212102262,36,1762115235.5389714
0.5511070489883423,0.3768872916698456,0.0028716837987303734,0.9991857409477234,0.4993782937526703,0.46057701110839844,0.03567753732204437,0.9982575178146362,0.560734748840332,0.46880438923835754,-0.12180638313293457,0.9999088644981384,0.4950048327445984,0.704483687877655,0.05734217166900635,0.9948671460151672,0.5343508124351501,0.7200721502304077,-0.05749037116765976,0.9979609251022339,0.5097706317901611,0.8462114930152893,0.14850308001041412,0.5318114161491394,0.5443896651268005,0.8755579590797424,0.021026037633419037,0.9263724088668823,0.5036113858222961,0.9807841777801514,0.2465960681438446,0.5531013011932373,0.5410069227218628,1.050923466682434,0.10280509293079376,0.8407142758369446,0.5186295509338379,0.6953940391540527,0.0745067149400711,0.2258015125989914,0.5914136171340942,0.7329049110412598,-0.03493153303861618,0.9260197281837463,176.44568100979083,0.5146778225898743,0.7122779190540314,172.11710286960263,175.32127957394522,0.6622935268234338,0.037317198391271574,0.058961642299308156,-0.010727117126973525,0.5526126555698695,7.637319211704752,3.222698541932676,37,1762115235.603173
0.5498294234275818,0.37688398361206055,0.009587238542735577,0.9992249608039856,0.5001062750816345,0.4612776041030884,0.03227456659078598,0.9983636736869812,0.5623219609260559,0.46863284707069397,-0.11491535604000092,0.9999128580093384,0.49506139755249023,0.7068058252334595,0.05494041368365288,0.9949012994766235,0.535895824432373,0.721097469329834,-0.055072903633117676,0.9979605078697205,0.511080801486969,0.8468493223190308,0.1519097089767456,0.5265355110168457,0.5451520681381226,0.8800294399261475,0.02037457749247551,0.9282457828521729,0.5037209391593933,0.9813739061355591,0.2504872977733612,0.5435261130332947,0.540617048740387,1.0603021383285522,0.09685244411230087,0.8460291624069214,0.5186731219291687,0.6936439275741577,0.07332376390695572,0.20772884786128998,0.5931774973869324,0.7334877848625183,-0.03539031371474266,0.9197915196418762,176.38396089588184,0.5154786109924316,0.7139516472816467,171.93923792234557,175.02038382596186,0.6651052649537796,0.01254730338044059,0.02622512486598154,-0.38811174888398925,-0.5129382675164336,6.7423086003168,2.645316205495328,38,1762115235.6669946
0.5494202375411987,0.37710440158843994,0.04915155842900276,0.9992229342460632,0.499392569065094,0.46505558490753174,0.005681977141648531,0.9984585046768188,0.5737252831459045,0.47114235162734985,-0.10468977689743042,0.9999141097068787,0.495431125164032,0.7118205428123474,0.04914930835366249,0.9949854612350464,0.5402995944023132,0.7258882522583008,-0.049273137003183365,0.9979544281959534,0.5115935802459717,0.8493055701255798,0.14446191489696503,0.5149402618408203,0.5461574792861938,0.8841604590415955,0.03742411360144615,0.9237557649612427,0.5036236047744751,0.9830518364906311,0.23116526007652283,0.5283179879188538,0.5429774522781372,1.0584074258804321,0.1126241460442543,0.8411902785301208,0.5129387378692627,0.6847929954528809,0.08681175112724304,0.19131329655647278,0.5993623733520508,0.7302452921867371,-0.016948815435171127,0.898565411567688,175.736543430726,0.5178653597831726,0.7188543975353241,171.4188514579984,173.92068455769683,0.6557450380497994,0.029973651511295416,0.06157050466338308,0.218846360377373,0.4438800181617752,4.681245608870462,3.352503975245811,39,1762115235.7466228
0.5489209890365601,0.375541090965271,0.06054146960377693,0.9992316365242004,0.49631267786026,0.47140535712242126,-0.011904746294021606,0.9984839558601379,0.5795747637748718,0.47352081537246704,-0.10279035568237305,0.9999130368232727,0.4958818554878235,0.7172034382820129,0.04390416666865349,0.994864284992218,0.5451138615608215,0.7316434383392334,-0.04402368515729904,0.997972309589386,0.5118915438652039,0.8503291606903076,0.15111257135868073,0.49776947498321533,0.5469308495521545,0.891084611415863,0.049620430916547775,0.9171169996261597,0.5034840106964111,0.9827159643173218,0.25236254930496216,0.509233832359314,0.5439674854278564,1.0646568536758423,0.13523834943771362,0.8370434045791626,0.5130220651626587,0.6790881752967834,0.09710252285003662,0.17602737247943878,0.6120939254760742,0.7269690632820129,-0.018751466646790504,0.8746927976608276,176.03913294968572,0.5204978585243225,0.7244234383106232,171.62366152387793,175.5666424395254,0.6621820815624355,0.03238327912412784,0.06850670014048445,0.029641664154214653,0.08532454381967593,1.4554134390607467,3.067971484072399,40,1762115235.8279147
0.5486564636230469,0.3757004737854004,0.07058803737163544,0.9992136359214783,0.49525779485702515,0.47535523772239685,-0.018637802451848984,0.9984857439994812,0.5840002298355103,0.4749889075756073,-0.0964989960193634,0.9999105334281921,0.4975472390651703,0.7203074097633362,0.04033903777599335,0.9946526885032654,0.5487192273139954,0.7331836223602295,-0.04045300930738449,0.9979826807975769,0.5133277177810669,0.8502337336540222,0.16733500361442566,0.4764942526817322,0.5494613647460938,0.8919870257377625,0.05994068831205368,0.9103501439094543,0.5038700699806213,0.978531539440155,0.2822023630142212,0.4860766530036926,0.5450044870376587,1.063361644744873,0.15248461067676544,0.8327749371528625,0.5134618878364563,0.6609895825386047,0.12153913080692291,0.16205473244190216,0.6225740313529968,0.7235264182090759,-0.011421079747378826,0.85188889503479,176.248461439115,0.5231332331895828,0.7267455160617828,171.50185522952773,175.75811185093426,0.6621678669855956,0.04325739639181309,0.038114898446366376,0.17848923238884407,-0.4988551458257199,-0.23651652226673672,2.370674942701517,41,1762115235.8888378
0.5492861866950989,0.3757821321487427,0.07379027456045151,0.9991275668144226,0.49575552344322205,0.47614941000938416,-0.023348145186901093,0.9984880685806274,0.5880372524261475,0.477190226316452,-0.0937727838754654,0.9999010562896729,0.49933305382728577,0.7234220504760742,0.03401228412985802,0.994377076625824,0.5518380999565125,0.7339614033699036,-0.03413913771510124,0.9979243278503418,0.5119860172271729,0.8444386720657349,0.16429564356803894,0.4649244248867035,0.5506869554519653,0.8938153386116028,0.07107417285442352,0.8925368785858154,0.503768801689148,0.9736528396606445,0.2795989215373993,0.4614790380001068,0.5507662296295166,1.0623114109039307,0.16948333382606506,0.8086151480674744,0.5079270601272583,0.6644504070281982,0.10260780155658722,0.1506376415491104,0.6286258101463318,0.7194139361381531,0.011526757851243019,0.8191521167755127,176.2969922546923,0.5255855768918991,0.7286917269229889,171.33697608983977,176.8842452977951,0.6600238425782059,0.03210072559881408,0.025475540298041662,-0.14603875769293576,-0.16544686100944353,0.6461934970590681,4.007599151018105,42,1762115235.965233
0.549328625202179,0.37586134672164917,0.06173548102378845,0.9991163015365601,0.4958726763725281,0.476068913936615,-0.027872884646058083,0.9985061883926392,0.5880504846572876,0.4775422513484955,-0.1002625823020935,0.9998946785926819,0.5003916025161743,0.725085437297821,0.033009402453899384,0.9942322373390198,0.5532368421554565,0.7342079281806946,-0.03314300253987312,0.9978573322296143,0.5114623308181763,0.8423773050308228,0.1660574972629547,0.45597848296165466,0.5507131814956665,0.8934566974639893,0.08731437474489212,0.8727377653121948,0.5029628276824951,0.9738273024559021,0.285701721906662,0.4417952001094818,0.5494059324264526,1.0593870878219604,0.19771388173103333,0.7816333174705505,0.5073676109313965,0.6635113954544067,0.10061784088611603,0.14029642939567566,0.6279596090316772,0.7140370011329651,0.0054292092099785805,0.7888390421867371,176.57158729762952,0.5268142223358154,0.7296466827392578,171.0794224676308,176.4921821879801,0.6659436422099091,0.02253149101943021,0.017512439007327865,-0.17548522566522703,-0.14603118101071216,0.9157174529376678,3.0885392683349013,43,1762115236.0197632
0.5492755770683289,0.37592628598213196,0.07189036905765533,0.9989993572235107,0.4962230622768402,0.47576650977134705,-0.031203191727399826,0.9985062479972839,0.589136004447937,0.4774891436100006,-0.0955013558268547,0.999880313873291,0.5024147629737854,0.7244597673416138,0.028407558798789978,0.994267463684082,0.5560214519500732,0.7333890199661255,-0.028577078133821487,0.9977632164955139,0.5113308429718018,0.8428612351417542,0.1517113745212555,0.45636287331581116,0.5509758591651917,0.8925624489784241,0.08938603103160858,0.8496760129928589,0.5027903914451599,0.9763442873954773,0.27382463216781616,0.4294540286064148,0.5521179437637329,1.0581488609313965,0.19286657869815826,0.7484614849090576,0.4922920763492584,0.668549656867981,0.058599453419446945,0.13548387587070465,0.6311404705047607,0.7103385329246521,0.007544244639575481,0.7688992023468018,176.94584731384683,0.5292181074619293,0.7289243936538696,173.19452661283933,175.10201946002988,0.6616915288085202,0.030159958720330237,-0.00906208402506693,0.0957093450344918,-0.3334129859046847,1.062159259318634,3.6380428244290757,44,1762115236.0994678
0.5492796897888184,0.37597033381462097,0.08893592655658722,0.9988910555839539,0.49624794721603394,0.47542238235473633,-0.03778551518917084,0.9984449148178101,0.5892888307571411,0.4770740568637848,-0.07135392725467682,0.9998580813407898,0.5042314529418945,0.7235080003738403,0.014862457290291786,0.9943678975105286,0.5593161582946777,0.7322338819503784,-0.015081946738064289,0.9976621866226196,0.5112355351448059,0.8444287776947021,0.11437632143497467,0.4607756733894348,0.551202654838562,0.8918969035148621,0.09285369515419006,0.8114219903945923,0.5038928985595703,0.9826579689979553,0.21707062423229218,0.41323691606521606,0.5499768853187561,1.0350464582443237,0.1811058223247528,0.7006251215934753,0.4767550528049469,0.6780755519866943,0.04762051999568939,0.14236776530742645,0.6287004947662354,0.6969610452651978,0.042963188141584396,0.7532753944396973,177.49806862649743,0.5317738056182861,0.7278709411621094,174.2252841544622,176.84449561170732,0.6427847946641954,0.03888170494609927,-0.01602694311042758,0.13269030324321332,-0.10596149442553471,1.0170157015196595,2.5657088435596713,45,1762115236.1651978
0.5481194853782654,0.3762134611606598,0.09230633080005646,0.9987685680389404,0.49582284688949585,0.475102961063385,-0.05473551154136658,0.9983378648757935,0.5880354642868042,0.47514235973358154,-0.06273316591978073,0.9998424649238586,0.5052200555801392,0.7231580018997192,0.007372273597866297,0.9942507147789001,0.5605372190475464,0.7296419143676758,-0.007521422114223242,0.9976426959037781,0.5108412504196167,0.8434069156646729,0.12596049904823303,0.47529831528663635,0.5502855777740479,0.8914031982421875,0.07934434711933136,0.7971287369728088,0.5053084492683411,0.9803370833396912,0.23089107871055603,0.40550416707992554,0.5490316152572632,1.0494470596313477,0.14905358850955963,0.6744459271430969,0.4704858660697937,0.6860202550888062,0.045215316116809845,0.15745148062705994,0.6258112192153931,0.6916601657867432,0.05256706476211548,0.7377205491065979,177.93720945952543,0.5328786373138428,0.7263999581336975,171.92693154597714,174.7486619282054,0.6464424916241305,0.014339246648038642,-0.019091404187901687,-0.3185284820307297,-0.03977263089929406,0.02448013565867519,2.6663229762697513,46,1762115236.2422473
0.5454835295677185,0.3759006857872009,0.08986510336399078,0.9986392855644226,0.49564307928085327,0.47409963607788086,-0.07165023684501648,0.9983293414115906,0.5864955186843872,0.4722164273262024,-0.05872779339551926,0.9997990727424622,0.5060387253761292,0.7210462093353271,-0.003161550033837557,0.9943731427192688,0.5613785982131958,0.7270568609237671,0.0030245170928537846,0.9975742101669312,0.5102087259292603,0.8436470627784729,0.11631254106760025,0.4936245381832123,0.5499244928359985,0.8891961574554443,0.09715772420167923,0.7712876200675964,0.5066405534744263,0.9810760617256165,0.23751814663410187,0.4039061963558197,0.5483546257019043,1.0488812923431396,0.17465397715568542,0.6428284645080566,0.4679074287414551,0.6918680667877197,0.016398867592215538,0.18620611727237701,0.6217107176780701,0.6835468411445618,0.05074889212846756,0.723712682723999,178.31955588046142,0.5337086617946625,0.7240515351295471,176.174973371109,174.78717207117495,0.6498088058308512,0.01309068108579658,-0.03703801190480667,-0.019691676532091952,-0.28304384222726464,-1.1874690951680185,2.8640391034391115,47,1762115236.305653
0.5446653962135315,0.3754027783870697,0.08304648101329803,0.9985809326171875,0.49552884697914124,0.47373849153518677,-0.07705164700746536,0.9983160495758057,0.585157573223114,0.47078293561935425,-0.06587549299001694,0.9997762441635132,0.5063011646270752,0.7190216779708862,-0.0036880120169371367,0.9944886565208435,0.5611792206764221,0.7235732078552246,0.0035789262037724257,0.9975494742393494,0.5088110566139221,0.8436827659606934,0.1139209046959877,0.508648693561554,0.5504889488220215,0.8873955011367798,0.09690051525831223,0.7507931590080261,0.5075655579566956,0.9815471172332764,0.240107461810112,0.4036014974117279,0.5479555130004883,1.0495579242706299,0.1747170090675354,0.6208081245422363,0.46842288970947266,0.6910409331321716,0.010863046161830425,0.20794866979122162,0.6219666600227356,0.6837533712387085,0.03003709949553013,0.7245486974716187,178.48120228868686,0.5337401926517487,0.7212974429130554,178.43683486997728,175.26902629357443,0.652337571997907,0.0003819461492030394,-0.03336144379976491,-0.15394609658109543,0.04453577098032094,-1.8886750659339762,3.4927965488282733,48,1762115236.3882062
0.5408729314804077,0.37552011013031006,0.10045772790908813,0.9984741806983948,0.49496760964393616,0.47370198369026184,-0.06663568317890167,0.9983354210853577,0.584060788154602,0.4708858132362366,-0.04725049063563347,0.9997273683547974,0.5072504878044128,0.712434709072113,-0.004682502243667841,0.9945429563522339,0.5628336668014526,0.7194082736968994,0.004587254486978054,0.9974939227104187,0.5078797936439514,0.8437236547470093,0.1114637479186058,0.5210034847259521,0.5504795908927917,0.8846493363380432,0.09609007835388184,0.7352861166000366,0.5074285268783569,0.9829469323158264,0.23405566811561584,0.397400826215744,0.547886848449707,1.0558067560195923,0.14534196257591248,0.5988203287124634,0.4654161334037781,0.6952098608016968,0.011287777684628963,0.23982614278793335,0.6201171278953552,0.6778199672698975,0.05654395371675491,0.7074387073516846,178.94837478880288,0.5350420773029327,0.7159214913845062,179.4181218013621,166.75897812679452,0.6501462207237023,0.01877789775579964,-0.07754071610831036,0.26533633227423725,-0.6372253160684931,-1.8104750254845203,2.936380877374663,49,1762115236.457537
0.5375462770462036,0.37510135769844055,0.08554627001285553,0.9982659220695496,0.49218839406967163,0.47349199652671814,-0.08893682062625885,0.9983787536621094,0.5806530117988586,0.4705830514431,-0.056132107973098755,0.9996418356895447,0.5056477785110474,0.7094064354896545,-0.009219526313245296,0.994720995426178,0.5611249804496765,0.7168211340904236,0.009148845449090004,0.9974337220191956,0.505983829498291,0.8475879430770874,0.10651572793722153,0.5409142374992371,0.5493466258049011,0.8821339011192322,0.08881641924381256,0.7161556482315063,0.5072492361068726,0.9869941473007202,0.23426291346549988,0.40429237484931946,0.5475484728813171,1.0380313396453857,0.14729759097099304,0.5812878608703613,0.46143054962158203,0.6981530785560608,-0.016081230714917183,0.2678714990615845,0.608043909072876,0.6687910556793213,0.05134819820523262,0.6811996698379517,179.27888068642952,0.5333863794803619,0.7131137847900391,177.3949502093287,173.98309362366217,0.6461195213815841,-0.02587186451033645,-0.04387310510805867,-0.6976953064868868,0.526088672891262,-1.8833545863816674,11.34864652181603,50,1762115236.521533
0.5306426882743835,0.3754672706127167,0.08085891604423523,0.9980847239494324,0.48897743225097656,0.4746776521205902,-0.0900116115808487,0.9984404444694519,0.5752812623977661,0.4706292450428009,-0.03710993379354477,0.99952632188797,0.5050250291824341,0.7084382176399231,-0.01525686401873827,0.9948046803474426,0.5600265860557556,0.7156022191047668,0.015140893869102001,0.9973165988922119,0.5044864416122437,0.850409209728241,0.10427655279636383,0.565083920955658,0.5471890568733215,0.8790628910064697,0.08642974495887756,0.7056583166122437,0.5071682333946228,0.9917886257171631,0.23408767580986023,0.41690653562545776,0.547653317451477,1.0354512929916382,0.14679959416389465,0.566042423248291,0.45933741331100464,0.704629123210907,-0.02422497607767582,0.3016110360622406,0.5916784405708313,0.6597099900245667,0.11273715645074844,0.6332614421844482,-179.90510177799393,0.5325258076190948,0.712020218372345,177.32095000490614,175.04799817578018,0.6475014363186055,-0.01357138560105879,-0.01724575506459521,0.19398094438006247,0.41991848820403876,-2.6857061632770627,0.2518765568792354,51,1762115236.5849438
0.5270165205001831,0.3752734661102295,0.10518896579742432,0.9976084232330322,0.48558640480041504,0.4744943082332611,-0.07665068656206131,0.9984966516494751,0.571537971496582,0.469610333442688,-0.013269156217575073,0.9992566108703613,0.5035125613212585,0.7075533270835876,-0.015359667129814625,0.9948707818984985,0.5592536926269531,0.7145694494247437,0.015265029855072498,0.9969865679740906,0.5036826729774475,0.8529390692710876,0.09500584751367569,0.5920992493629456,0.5456635355949402,0.8771323561668396,0.08557301759719849,0.7073239684104919,0.5070816278457642,0.9947385787963867,0.20937497913837433,0.43354442715644836,0.5476197600364685,1.0489016771316528,0.14334025979042053,0.5587689280509949,0.4550454616546631,0.709215521812439,-0.013800909742712975,0.3407932221889496,0.5780556797981262,0.6447545289993286,0.16295984387397766,0.5814064741134644,-179.3237897361148,0.5313831269741058,0.7110613882541656,177.98308098769638,173.05254970927277,0.6504519005206593,-0.013943437834566867,-0.01170002152865056,-0.004539927417061924,0.06767121780229363,-3.252186830285488,1.0531433287749832,52,1762115236.666895
0.5248506665229797,0.37507757544517517,0.10931743681430817,0.996715784072876,0.48410481214523315,0.4743669331073761,-0.07666077464818954,0.9984907507896423,0.5691131949424744,0.4682905077934265,-0.006796377710998058,0.9989023208618164,0.5022580623626709,0.7063232064247131,-0.02019527181982994,0.994723916053772,0.5580943822860718,0.7135382890701294,0.02013220824301243,0.9964994192123413,0.5019205808639526,0.8577359318733215,0.09156586974859238,0.6159234046936035,0.5443755388259888,0.8772708177566528,0.08827624469995499,0.7061254978179932,0.5070081949234009,0.9967201352119446,0.20954570174217224,0.4465903341770172,0.547979474067688,1.0527756214141846,0.15815238654613495,0.5521687865257263,0.45516037940979004,0.7089357376098633,-0.016910454258322716,0.3670102655887604,0.5764387249946594,0.6388174891471863,0.1740204393863678,0.5300983786582947,-179.14346346048055,0.5301762223243713,0.7099307477474213,175.72757196371842,174.39553294009352,0.6539368847653086,-0.019868612135960438,-0.01861311719915221,-0.09754290867820184,-0.11380651865596889,-4.088565961578209,0.8206587797337829,53,1762115236.7276392
0.5206356644630432,0.3750876188278198,0.11976784467697144,0.9952355623245239,0.48248091340065,0.4742831289768219,-0.07279358059167862,0.998445451259613,0.5663109421730042,0.4682132601737976,0.00929736066609621,0.9981898665428162,0.49826502799987793,0.7052564024925232,-0.021112116053700447,0.9945114254951477,0.55376797914505,0.7118638753890991,0.021066319197416306,0.9959338903427124,0.49980035424232483,0.857562780380249,0.08907856047153473,0.6358741521835327,0.540901243686676,0.871954083442688,0.08611010015010834,0.7091155648231506,0.5056021213531494,0.997001051902771,0.20764276385307312,0.4598218500614166,0.5487794280052185,1.0526105165481567,0.15753915905952454,0.5512563586235046,0.4528246521949768,0.7084890604019165,-0.020900290459394455,0.39601296186447144,0.555289626121521,0.6326201558113098,0.17419403791427612,0.48028767108917236,-179.60873983885847,0.526016503572464,0.7085601389408112,175.29331857743554,173.38264927357193,0.6527812864348174,-0.065380788745906,-0.021542678768165364,-0.7153421136793944,-0.04604567219212807,-4.141379924129014,0.23689249212776523,54,1762115236.7912621
0.513649582862854,0.37510067224502563,0.05546654388308525,0.9947792887687683,0.48039406538009644,0.4753492474555969,-0.11958514153957367,0.9984227418899536,0.5602548122406006,0.46824708580970764,-0.013641538098454475,0.9977977871894836,0.4938424527645111,0.7055371403694153,-0.03290558233857155,0.9944542050361633,0.5476745963096619,0.7113080620765686,0.032779768109321594,0.9955975413322449,0.49785470962524414,0.8584263324737549,0.08420717716217041,0.6617274880409241,0.5374028086662292,0.8639941811561584,0.10339371114969254,0.7086439728736877,0.5041035413742065,0.9982032775878906,0.20865345001220703,0.49664047360420227,0.549773633480072,1.0246565341949463,0.18249838054180145,0.5574629306793213,0.45086973905563354,0.7138180136680603,-0.06545517593622208,0.43042615056037903,0.5471936464309692,0.6353380680084229,0.1440167874097824,0.43561026453971863,-179.89489144588225,0.5207585245370865,0.7084226012229919,175.6924298044762,172.41064531872902,0.6517070869552627,-0.06427679880385774,-0.001681346417839541,0.013495858182215775,0.24279725249356898,-5.082048397051731,0.04662160160391071,55,1762115236.8730643
0.508034348487854,0.3762158751487732,0.024718360975384712,0.9946807622909546,0.4812353551387787,0.4756266176700592,-0.14320889115333557,0.9984511733055115,0.5551121830940247,0.4685387909412384,-0.019285324960947037,0.9975365400314331,0.49223771691322327,0.7088084816932678,-0.04637680947780609,0.9947053790092468,0.5438042283058167,0.7104334235191345,0.04618111252784729,0.9953392148017883,0.497518390417099,0.8599706292152405,0.056647561490535736,0.687767505645752,0.5360044240951538,0.8510574102401733,0.137136772274971,0.6903119683265686,0.5041640400886536,0.9981182813644409,0.15908245742321014,0.5341547131538391,0.5529183745384216,0.9992973208427429,0.23420929908752441,0.5499985218048096,0.4495890140533447,0.7189933061599731,-0.07986441999673843,0.4570988118648529,0.5339139103889465,0.6406489014625549,0.13943591713905334,0.3957120478153229,179.9631444879979,0.51802097260952,0.7096209526062012,177.60949925695382,171.8610671171272,0.6461236726323334,-0.04299906003774828,0.018822650468857664,0.3342120225952244,0.3220587650838163,-5.480248512331901,0.012969960116213923,56,1762115236.9367297
0.5054365992546082,0.3792136311531067,7.052566070342436e-05,0.9949901700019836,0.48195719718933105,0.47893375158309937,-0.1615077704191208,0.998528778553009,0.5487524271011353,0.4687750041484833,-0.01641385816037655,0.9975085258483887,0.49221357703208923,0.7118526101112366,-0.052083611488342285,0.9950315356254578,0.5403217077255249,0.7066080570220947,0.05189593508839607,0.9953078031539917,0.49702969193458557,0.8607548475265503,0.035349778831005096,0.7126193642616272,0.5350971221923828,0.840732991695404,0.13642196357250214,0.6735764741897583,0.5041710734367371,1.0003662109375,0.11864037811756134,0.5713488459587097,0.5560389757156372,0.9835365414619446,0.22454571723937988,0.5511360168457031,0.45002198219299316,0.7205995321273804,-0.10040171444416046,0.4900646209716797,0.5331844687461853,0.6442679762840271,0.12869249284267426,0.3618992269039154,-179.7777977897803,0.5162676423788071,0.7092303335666656,178.8888826707268,170.9692578104118,0.6367700141903614,-0.020447884864561262,-0.004555521262574865,0.2629988495175784,-0.27264354172112126,-8.647726079147914,0.0650042794904987,57,1762115237.022476
0.5056878328323364,0.38021278381347656,-0.0035003970842808485,0.9952460527420044,0.48238295316696167,0.4796101748943329,-0.15933136641979218,0.9986068606376648,0.5483477711677551,0.4691546857357025,-0.019886735826730728,0.9974474906921387,0.4915367662906647,0.7130729556083679,-0.04984290525317192,0.9953750371932983,0.5393277406692505,0.7054290175437927,0.04963655024766922,0.9953441023826599,0.4969174265861511,0.8626524209976196,0.038455285131931305,0.7345802187919617,0.5349649786949158,0.8386601805686951,0.13717535138130188,0.6610227823257446,0.5033801794052124,1.003353238105774,0.12464704364538193,0.6057446002960205,0.5571913123130798,0.9826948642730713,0.22673192620277405,0.5533454418182373,0.45030754804611206,0.7201840877532959,-0.10341130197048187,0.5197086334228516,0.5366109609603882,0.6441336870193481,0.12198851257562637,0.3317033052444458,-179.98368198001722,0.5154322534799576,0.7092509865760803,178.8484366228086,170.840807381091,0.6389457884377652,-0.013180291300847873,0.0003258514455955041,0.11466396112975874,0.07701552454228382,-9.006514439405747,0.004662863690821675,58,1762115237.0858576
0.4991641938686371,0.38257837295532227,0.008846231736242771,0.9956274628639221,0.48380208015441895,0.4793702960014343,-0.14752095937728882,0.9987314939498901,0.5427103042602539,0.46666309237480164,0.009448517113924026,0.9975263476371765,0.49208125472068787,0.7186005711555481,-0.05180429667234421,0.9957776665687561,0.5363205075263977,0.7059040665626526,0.05160670354962349,0.9955282807350159,0.4965013861656189,0.8622838258743286,0.04640369489789009,0.7543880343437195,0.5314196944236755,0.8276899456977844,0.15486973524093628,0.6368095278739929,0.5028377175331116,1.0032916069030762,0.1336471438407898,0.6348808407783508,0.5564090013504028,0.955991804599762,0.24913732707500458,0.5404363870620728,0.451204776763916,0.7210275530815125,-0.09728533029556274,0.5615978837013245,0.5091850161552429,0.6731863021850586,0.05681539699435234,0.30608996748924255,-179.77375273185828,0.5142008811235428,0.7122523188591003,177.25133611221713,168.59471713824612,0.6250883358468142,-0.014936520330846203,0.03640609636184857,-0.02130302054901416,0.43765259868477036,-12.172859939266003,0.06031025430861523,59,1762115237.168298
0.4972703456878662,0.3845899701118469,0.013312490656971931,0.9958445429801941,0.4847562909126282,0.47750842571258545,-0.1336905062198639,0.9988441467285156,0.5399905443191528,0.46127617359161377,0.01522245816886425,0.9975762963294983,0.49228209257125854,0.7220489382743835,-0.04737554490566254,0.9961347579956055,0.5364043116569519,0.7063297033309937,0.047156162559986115,0.9956121444702148,0.49655166268348694,0.857507586479187,0.0547981858253479,0.7689701914787292,0.5261141657829285,0.8236552476882935,0.15793314576148987,0.6044361591339111,0.5028787851333618,1.0009324550628662,0.15404197573661804,0.6515581011772156,0.5491585731506348,0.9410964846611023,0.26431891322135925,0.5120958685874939,0.4513625204563141,0.7204922437667847,-0.08784487843513489,0.6007458567619324,0.5072123408317566,0.6872721910476685,0.03233017399907112,0.2810020446777344,-179.53897354615773,0.5143432021141052,0.7141893208026886,177.52618706404235,168.00817677910518,0.6189381357761149,0.002362817549220624,0.0321581670215882,0.2872041500792272,-0.07052425614345999,-16.377016735363632,0.1341196996375785,60,1762115237.2285316
0.4947233200073242,0.3845328986644745,0.007074180990457535,0.9961323142051697,0.4857533574104309,0.4704943895339966,-0.12916019558906555,0.9989463686943054,0.5379015207290649,0.4555855691432953,0.01571086421608925,0.9976838231086731,0.4927794337272644,0.7211989760398865,-0.04387607425451279,0.9964664578437805,0.5362678170204163,0.7054498791694641,0.043643005192279816,0.9957563877105713,0.4967321753501892,0.853431761264801,0.07079239189624786,0.782413125038147,0.5227378606796265,0.8203198909759521,0.15562471747398376,0.5783491730690002,0.5040789842605591,0.9893054366111755,0.16867269575595856,0.6709230542182922,0.5416966676712036,0.9285551309585571,0.2662924826145172,0.49397850036621094,0.4518367350101471,0.7195319533348083,-0.07746461778879166,0.6330780982971191,0.5099757313728333,0.6800272464752197,0.03401937335729599,0.2581685781478882,-179.38280575614425,0.5145236253738403,0.7133244276046753,174.67728629155442,168.10722249036638,0.6123702259810602,0.002277110935247902,-0.010915764197527149,-0.0010816979373218837,-0.543633453619938,-15.954888165989704,0.20497382310442377,61,1762115237.307765
0.49308475852012634,0.38475486636161804,0.0022744068410247564,0.9963977336883545,0.48691001534461975,0.46707502007484436,-0.12774071097373962,0.9990437030792236,0.5361733436584473,0.45431798696517944,0.023000705987215042,0.9977924227714539,0.4930895268917084,0.7207447290420532,-0.04308550804853439,0.9967778921127319,0.5356881618499756,0.7051839828491211,0.042820341885089874,0.9959169030189514,0.49673986434936523,0.852171003818512,0.07174881547689438,0.7961170673370361,0.5205260515213013,0.8213428854942322,0.15623173117637634,0.5578671097755432,0.5047533512115479,0.9872246384620667,0.16977223753929138,0.6905936002731323,0.5380643010139465,0.9299717545509338,0.2656876742839813,0.4805535078048706,0.45197024941444397,0.7197189927101135,-0.08182325959205627,0.6653515696525574,0.5096991062164307,0.6793914437294006,0.03506646677851677,0.2387007623910904,-179.35337141445027,0.514388844370842,0.7129643559455872,174.5818842435881,168.13087003043174,0.6136118593883908,-0.0020640355329022554,-0.005514135391603107,-0.06648029295274356,0.08272051359576188,-14.518171290623442,0.2228374614008691,62,1762115237.3730648
0.4901382327079773,0.384621262550354,-0.016550755128264427,0.996711790561676,0.48835092782974243,0.467120498418808,-0.12684252858161926,0.9991339445114136,0.5343213081359863,0.4505544900894165,0.016315046697854996,0.9979403614997864,0.4954487383365631,0.7195364832878113,-0.044994842261075974,0.9970747232437134,0.5361602306365967,0.7001068592071533,0.04468320310115814,0.9961764216423035,0.49529895186424255,0.8506943583488464,0.06788021326065063,0.8122841715812683,0.5139164328575134,0.8132147789001465,0.15538516640663147,0.546636164188385,0.504751980304718,0.9810296893119812,0.16575388610363007,0.7155229449272156,0.52717125415802,0.9319034814834595,0.2637842297554016,0.48307695984840393,0.4551944136619568,0.7232794165611267,-0.08822637051343918,0.694305419921875,0.5136899948120117,0.6775540709495544,0.03534848615527153,0.22212806344032288,-178.98004925668673,0.5158044844865799,0.7098216712474823,174.89216695295926,167.12368628972874,0.6174000132521362,0.01879096343790647,-0.04171545621125187,0.27682566974571077,-0.48053010674351493,-19.817268915985107,0.3935179276551468,63,1762115237.448401
0.48925846815109253,0.38285911083221436,-0.01084503810852766,0.99689120054245,0.4894610047340393,0.46257370710372925,-0.12826190888881683,0.9992098808288574,0.5319772958755493,0.4470921456813812,0.030873620882630348,0.9979663491249084,0.49803513288497925,0.715854287147522,-0.050017811357975006,0.9972975254058838,0.5338297486305237,0.6986439228057861,0.049748603254556656,0.9961854219436646,0.49604567885398865,0.852084755897522,0.053051549941301346,0.8215785622596741,0.511522114276886,0.8178695440292358,0.15031948685646057,0.5179651379585266,0.5046776533126831,0.9816321730613708,0.14295847713947296,0.725727379322052,0.5142182111740112,0.9444200396537781,0.25288787484169006,0.4596491754055023,0.46183881163597107,0.7240242958068848,-0.09303303062915802,0.7201604843139648,0.511147677898407,0.6759974956512451,0.047813087701797485,0.2065533697605133,-178.81680690648616,0.5159324407577515,0.707249104976654,175.50530444957258,170.8299840507846,0.6169161404724204,0.0017918252537393162,-0.03602472288995726,-0.2380460512900809,0.07968972199665882,-20.008206820368894,0.9202573027537627,64,1762115237.519812
0.48540687561035156,0.38282594084739685,-0.023997556418180466,0.9967378377914429,0.49186697602272034,0.46186113357543945,-0.1393200159072876,0.9992602467536926,0.5286043882369995,0.44778814911842346,0.04852067679166794,0.9978111982345581,0.5022616982460022,0.7135293483734131,-0.055399488657712936,0.9973680377006531,0.5274332165718079,0.6992901563644409,0.05521576851606369,0.9958719611167908,0.4969787001609802,0.8554370403289795,0.033168189227581024,0.8228374123573303,0.506656289100647,0.8356583714485168,0.1394433081150055,0.488436222076416,0.5046606659889221,0.98534095287323,0.12733174860477448,0.724712610244751,0.5064458250999451,0.9705429673194885,0.2276896983385086,0.4324744641780853,0.4687387943267822,0.7258932590484619,-0.09774138033390045,0.7437673807144165,0.5003718137741089,0.6720472574234009,0.07067404687404633,0.19215010106563568,-178.9498358299234,0.514847457408905,0.706409752368927,173.94331701253154,172.52216909652768,0.6286290952957929,-0.017090221497833093,-0.013221144818573071,-0.2974224089797398,0.35919279369350454,-20.960315593279557,1.23416716437688,65,1762115237.5832977
0.48252373933792114,0.3828743100166321,-0.0749090388417244,0.9968293309211731,0.49758797883987427,0.46329668164253235,-0.1604624092578888,0.9993105530738831,0.5251808166503906,0.44901248812675476,0.04082861170172691,0.9975203275680542,0.5073865652084351,0.7124649286270142,-0.055730849504470825,0.9974250197410583,0.5240963697433472,0.6992096304893494,0.05557387322187424,0.9953616857528687,0.4982476830482483,0.8554887771606445,0.02830476500093937,0.8234966993331909,0.5049586296081543,0.8356144428253174,0.13321806490421295,0.4624626040458679,0.5046850442886353,0.9858623147010803,0.12033794075250626,0.7266401052474976,0.5053070187568665,0.9704435467720032,0.21892540156841278,0.4076263904571533,0.4747883677482605,0.7277393937110901,-0.10334151983261108,0.7657267451286316,0.49820655584335327,0.6724355220794678,0.07044514268636703,0.17697221040725708,-179.00026563118644,0.5157414674758911,0.7058372795581818,172.7238011927203,172.37725454761784,0.6439423879902694,0.01037926997035483,-0.00664628964799473,0.3189150530014324,0.07633269394994206,-27.36958960589044,1.2838037585341857,66,1762115237.669432
0.4821082651615143,0.3830108940601349,-0.07347772270441055,0.9967942237854004,0.49911069869995117,0.46427878737449646,-0.16184023022651672,0.9993512630462646,0.5244685411453247,0.44977331161499023,0.04147910326719284,0.9972076416015625,0.5087306499481201,0.7119783163070679,-0.05624784901738167,0.9974446296691895,0.5233558416366577,0.699369490146637,0.05609602853655815,0.9948404431343079,0.499054491519928,0.8556036353111267,0.027833366766572,0.8217030763626099,0.5052091479301453,0.8356202840805054,0.13183343410491943,0.43625885248184204,0.5047338604927063,0.9861958622932434,0.1230846494436264,0.7235894203186035,0.505669116973877,0.9706491231918335,0.21962590515613556,0.38293516635894775,0.475860059261322,0.728748083114624,-0.10246257483959198,0.7851704359054565,0.4993794858455658,0.6754618287086487,0.07061692327260971,0.16318844258785248,-179.01993507658818,0.5160432457923889,0.7056739032268524,172.1315747246781,172.11453793333655,0.644198313185911,0.005320669376568457,-0.002880496693891792,-0.08918845323284232,0.06639489371509782,-29.770901209782057,1.385244016309078,67,1762115237.72615
0.4786180555820465,0.3827459216117859,-0.08781129121780396,0.996926486492157,0.5024838447570801,0.46447786688804626,-0.18779315054416656,0.9993983507156372,0.5181043148040771,0.44982779026031494,0.03482983261346817,0.9970992803573608,0.512220561504364,0.7097060084342957,-0.05936569720506668,0.9974175691604614,0.5198867917060852,0.6983317732810974,0.05926092714071274,0.9943498969078064,0.5005205273628235,0.8555898070335388,0.023538369685411453,0.8214046955108643,0.5049511194229126,0.8351716995239258,0.13278524577617645,0.4093029797077179,0.5047581195831299,0.9890044927597046,0.1169942170381546,0.7184550166130066,0.5054372549057007,0.9705755710601807,0.22358843684196472,0.35739409923553467,0.4802342355251312,0.728431761264801,-0.12648487091064453,0.8039117455482483,0.5014808177947998,0.6749032139778137,0.06897413730621338,0.15087321400642395,-178.66348282157642,0.5160536766052246,0.7040188908576965,172.29285731391488,172.02774734460925,0.6509837187170169,0.00016421932945963395,-0.02605597720823386,-0.0811814747773701,-0.3648672380494385,-43.16387811896883,2.4375491718977034,68,1762115237.7896676
0.47557324171066284,0.38017475605010986,-0.09919901192188263,0.9970958828926086,0.5073242783546448,0.4642511010169983,-0.2052009552717209,0.9994418025016785,0.5113378167152405,0.45017123222351074,0.03199707716703415,0.9970406889915466,0.5143437385559082,0.7053367495536804,-0.06492339819669724,0.9973041415214539,0.5132149457931519,0.6966785192489624,0.06486465036869049,0.993816077709198,0.5032686591148376,0.8567649722099304,-0.004761834628880024,0.8149067163467407,0.5044697523117065,0.8353383541107178,0.12664838135242462,0.3807190954685211,0.505483090877533,0.9969010353088379,0.07140519469976425,0.7062984704971313,0.504895031452179,0.9709737300872803,0.21169082820415497,0.33200305700302124,0.489065557718277,0.7279006838798523,-0.15308450162410736,0.8208073973655701,0.5004029273986816,0.6781493425369263,0.06453459709882736,0.14164219796657562,-178.95470088744753,0.51377934217453,0.7010076344013214,171.6842290197889,171.2117401867187,0.6506654557928672,-0.02825992285678736,-0.03741660593564289,-0.35318643318800697,-0.1411623933174739,-74.08952845226578,3.3677376538465054,69,1762115237.8701468
0.4745625853538513,0.3798617422580719,-0.10606696456670761,0.9973015785217285,0.5121332406997681,0.46368300914764404,-0.20248863101005554,0.9994853734970093,0.5065838098526001,0.4525347948074341,0.02129872888326645,0.9968901872634888,0.5172259211540222,0.7048726677894592,-0.06258508563041687,0.9972375631332397,0.5118439197540283,0.6965934038162231,0.06252441555261612,0.9931996464729309,0.504420816898346,0.858808159828186,0.007419881410896778,0.8130604028701782,0.5062041282653809,0.8371617794036865,0.12759064137935638,0.3514092266559601,0.5073403120040894,0.9969620704650879,0.09370703995227814,0.6889175176620483,0.507797360420227,0.970800518989563,0.21558654308319092,0.30522438883781433,0.498696506023407,0.7275097370147705,-0.1625393182039261,0.8374865651130676,0.5009534955024719,0.6843445897102356,0.06394214928150177,0.13270322978496552,-178.7777777747518,0.5145349204540253,0.7007330358028412,170.7482105435241,171.05777577151804,0.658711389739495,0.009782971078245247,-0.003555409439314941,0.4925664768285872,0.4384232778894259,-116.46350303298952,2.293115344099513,70,1762115237.9473808
0.47379574179649353,0.379954069852829,-0.11307203769683838,0.9974594712257385,0.5163974165916443,0.46301889419555664,-0.20632512867450714,0.9995319247245789,0.5016211867332458,0.4539181590080261,0.012358029372990131,0.9967881441116333,0.5200412273406982,0.7044609189033508,-0.0611904039978981,0.9972545504570007,0.5081295371055603,0.6965541839599609,0.061139293015003204,0.9927390217781067,0.5061386823654175,0.859713077545166,0.003950905986130238,0.8148974776268005,0.5057176947593689,0.8372034430503845,0.12551924586296082,0.32604339718818665,0.5081630945205688,0.9987891912460327,0.08329026401042938,0.6736215949058533,0.5087302923202515,0.9672066569328308,0.21447241306304932,0.28037384152412415,0.5089497566223145,0.7271543145179749,-0.18256443738937378,0.8530291318893433,0.500551164150238,0.683869481086731,0.0631982684135437,0.12803815305233002,-178.7985600084282,0.5140853822231293,0.7005075514316559,171.16957703032307,170.00084513812567,0.6583936131989362,-0.005363558524089788,-0.0026903131658222845,-0.1807172168584204,0.010321690510285753,-148.37092915998787,2.0147135436283485,71,1762115238.0311942
0.4743775427341461,0.3800763487815857,-0.1113562360405922,0.9976086020469666,0.5170519948005676,0.4619932770729065,-0.20705676078796387,0.999573826789856,0.5020661950111389,0.45414209365844727,0.01424211822450161,0.9967296123504639,0.5204923748970032,0.7035698890686035,-0.0617179274559021,0.9972344636917114,0.5072848200798035,0.6962630152702332,0.06169480085372925,0.992304801940918,0.5067778825759888,0.8602905869483948,-0.0045914906077086926,0.8170680403709412,0.5059649348258972,0.837457537651062,0.12349496781826019,0.3030148148536682,0.5088063478469849,1.0002574920654297,0.06909696757793427,0.6587600708007812,0.5093092918395996,0.967749297618866,0.21068158745765686,0.25843751430511475,0.5106021761894226,0.7269119024276733,-0.18325038254261017,0.8670364022254944,0.49972110986709595,0.6830616593360901,0.06531509011983871,0.12300299108028412,-178.9744180429105,0.5138885974884033,0.6999164521694183,170.53717476695456,169.69377800246127,0.6550228291189716,-0.00234376996623665,-0.007040183781665564,0.03596666040248426,-0.05180836877731788,-152.34958828528522,1.611030971154397,72,1762115238.115155
0.4752155840396881,0.38038545846939087,-0.14249619841575623,0.997792661190033,0.5205567479133606,0.4619777202606201,-0.20965507626533508,0.9996119141578674,0.5001899003982544,0.4541608691215515,-0.0007641176343895495,0.9967204332351685,0.5205996036529541,0.7029225826263428,-0.06129138544201851,0.9972984194755554,0.5058824419975281,0.6953832507133484,0.06135232001543045,0.9920671582221985,0.5073121786117554,0.8602365255355835,0.0034691649489104748,0.8268330693244934,0.5057945251464844,0.8356292843818665,0.12385056912899017,0.2900506556034088,0.509990930557251,0.9937698245048523,0.07974661886692047,0.6535629034042358,0.5099014639854431,0.9565803408622742,0.21236193180084229,0.24313028156757355,0.5196681618690491,0.7261589169502258,-0.18817980587482452,0.8797590136528015,0.5006036162376404,0.6824173331260681,0.05611959844827652,0.12069379538297653,-179.3184967082743,0.5132410228252411,0.6991529166698456,170.82427686488234,167.70792663148845,0.661998707301928,-0.010159891223843974,-0.011979217320395903,-0.12262824086088557,-0.07748920141405567,-159.00306279908716,0.8449703324734243,73,1762115238.1788933
0.4760805666446686,0.38116011023521423,-0.15753909945487976,0.9979977607727051,0.5282816886901855,0.4607510566711426,-0.19889482855796814,0.999643862247467,0.4917593002319336,0.4543229341506958,-0.01290381234139204,0.9968926906585693,0.5218859910964966,0.6992413401603699,-0.05745892971754074,0.9974238276481628,0.4997623860836029,0.6925509572029114,0.05751907825469971,0.992219865322113,0.5079307556152344,0.8582550287246704,-0.00891264621168375,0.8392755389213562,0.5018259286880493,0.8322916626930237,0.1200944036245346,0.29536381363868713,0.5117573738098145,0.9874444603919983,0.04755309969186783,0.6664267182350159,0.5091757774353027,0.936606764793396,0.2068309485912323,0.2454729974269867,0.5242992639541626,0.7196487188339233,-0.16711857914924622,0.8898852467536926,0.4859459400177002,0.6700149178504944,0.03148186206817627,0.12590765953063965,-179.80681208808636,0.5108241885900497,0.6958961486816406,170.80580543315585,164.2071429051785,0.6478108845850955,-0.03797658339764579,-0.05117476379221207,-0.43709366360469065,-0.6158936834513102,-170.01789354113856,0.14379326488545327,74,1762115238.2425334
0.47624897956848145,0.3808842599391937,-0.2002216875553131,0.9981892704963684,0.5303878784179688,0.46062448620796204,-0.2062588930130005,0.9996738433837891,0.48866358399391174,0.4544706642627716,-0.019190065562725067,0.9971163868904114,0.5219408273696899,0.6972564458847046,-0.05707847326993942,0.9976146817207336,0.4959341585636139,0.690212070941925,0.05713195726275444,0.9927306175231934,0.5094072222709656,0.8555653095245361,-0.01800137758255005,0.853062093257904,0.4994807243347168,0.8262274265289307,0.13316673040390015,0.3223035931587219,0.5146504640579224,0.9773870706558228,0.053527604788541794,0.6876217722892761,0.5076230764389038,0.9199536442756653,0.25095680356025696,0.2776425778865814,0.5341860055923462,0.715372622013092,-0.1882641613483429,0.8991948366165161,0.48372727632522583,0.6659348607063293,0.01692654751241207,0.13958445191383362,179.85730144341997,0.5089374929666519,0.6937342584133148,162.2115499889214,157.6549505111526,0.6692002730544949,-0.03469941461489553,-0.03976069369231106,0.06027248748838905,0.2099233951296626,-171.61006039977008,0.08787811223904292,75,1762115238.296906
0.4778059422969818,0.3807784914970398,-0.19791781902313232,0.9983577728271484,0.5332047343254089,0.46033477783203125,-0.20091184973716736,0.9996964335441589,0.4872468113899231,0.45459675788879395,-0.014879060909152031,0.9973331093788147,0.5221537351608276,0.6953268051147461,-0.05699562281370163,0.9977016448974609,0.49445074796676636,0.6884760856628418,0.057041414082050323,0.993076741695404,0.5108861327171326,0.8513416051864624,-0.009479132480919361,0.8642584085464478,0.4990406930446625,0.8216243386268616,0.13241872191429138,0.3493436574935913,0.5190531611442566,0.9595327377319336,0.08456913381814957,0.7004356980323792,0.5081101059913635,0.917608916759491,0.2489844113588333,0.3115409314632416,0.5422447323799133,0.715776801109314,-0.2022610455751419,0.9065888524055481,0.47326135635375977,0.643251359462738,0.009290577843785286,0.16270385682582855,179.5299019628559,0.508302241563797,0.691901445388794,154.89173369636288,158.92982899903345,0.6673936882055707,-0.008537784065419963,-0.024633022084364065,0.3516125291922082,0.20331603050506455,-172.8832332593378,0.22316765792871707,76,1762115238.3713107
0.478900283575058,0.38066956400871277,-0.1974988579750061,0.998503565788269,0.5332920551300049,0.45924168825149536,-0.19831585884094238,0.9997146129608154,0.4871704578399658,0.45460155606269836,-0.01048657950013876,0.9974551200866699,0.5221661329269409,0.6933492422103882,-0.05673869699239731,0.9977717399597168,0.49319782853126526,0.6864699721336365,0.05676870793104172,0.9932996034622192,0.5113970041275024,0.848937451839447,-0.008577234111726284,0.8745606541633606,0.4985389709472656,0.8192691206932068,0.1279931515455246,0.3832705616950989,0.5199935436248779,0.9523081183433533,0.10398300737142563,0.717648983001709,0.5083184242248535,0.9147748351097107,0.2458897829055786,0.3524893522262573,0.5421447157859802,0.7134231328964233,-0.2001185119152069,0.9123851656913757,0.4737534523010254,0.632905125617981,0.012529654428362846,0.17155791819095612,179.37311396911323,0.5076819807291031,0.6899096071720123,148.9774417503158,157.17960639206555,0.6675465032798377,-0.008023224077420787,-0.02576490960789998,0.00665595803260682,-0.014641239175204558,-174.25500345598448,0.2774270059954731,77,1762115238.448619
0.48241543769836426,0.3802720308303833,-0.1889837682247162,0.99862140417099,0.5357531309127808,0.4593384563922882,-0.1855948269367218,0.999737024307251,0.48384803533554077,0.4526253640651703,-0.006625145673751831,0.9976159334182739,0.5219390392303467,0.6897888779640198,-0.05612530559301376,0.9978770613670349,0.4891614317893982,0.6785455346107483,0.05614985153079033,0.9936674237251282,0.5130729675292969,0.8425507545471191,-0.005655791610479355,0.8843445777893066,0.4977648854255676,0.8122518658638,0.126859650015831,0.4164639711380005,0.5220184326171875,0.9424137473106384,0.10369918495416641,0.7360131144523621,0.5071215629577637,0.9058730006217957,0.24753768742084503,0.3916601538658142,0.5491799712181091,0.7106300592422485,-0.19683656096458435,0.9197522401809692,0.46402591466903687,0.6149764657020569,0.021389108151197433,0.1974107325077057,178.93288995610087,0.5055502355098724,0.684167206287384,149.96056316505553,155.71213302706576,0.655564429389783,-0.02965577829445537,-0.07988542250554728,-0.3009413254529037,-0.7528976339180351,-172.63061729705714,0.464413734366784,78,1762115238.5205019
0.4862971305847168,0.380037397146225,-0.20341289043426514,0.9987433552742004,0.5381112694740295,0.4592720866203308,-0.18415263295173645,0.9997562766075134,0.47979968786239624,0.4501335620880127,-0.027805214747786522,0.9978313446044922,0.5215901732444763,0.680243194103241,-0.04952351003885269,0.9979919195175171,0.48534607887268066,0.6671204566955566,0.049557458609342575,0.9941502809524536,0.5142393112182617,0.8361131548881531,-0.024756688624620438,0.8955978751182556,0.49649176001548767,0.8048499226570129,0.11628124862909317,0.461731880903244,0.524344801902771,0.9414138197898865,0.06072383373975754,0.7586530447006226,0.5053327679634094,0.8984983563423157,0.24334128201007843,0.44346246123313904,0.5521112680435181,0.7058616876602173,-0.1939973533153534,0.926396369934082,0.457703173160553,0.6162496209144592,-0.0007666764431633055,0.23454241454601288,178.56453651010798,0.5034681260585785,0.6736818253993988,149.1875044923617,152.27763399831676,0.647045814113105,-0.03295907006585776,-0.1659799407468911,-0.05228996240997911,-1.362846346641033,-171.09311930903192,0.5791860047679557,79,1762115238.5836744
0.4901614785194397,0.3799002766609192,-0.2257852554321289,0.9988536834716797,0.5403876304626465,0.45930102467536926,-0.18453676998615265,0.9997755289077759,0.47589316964149475,0.44926148653030396,-0.0477648600935936,0.9980253577232361,0.5223137140274048,0.6708081364631653,-0.04193388670682907,0.9981092810630798,0.4844464361667633,0.6610562801361084,0.041934799402952194,0.9946125745773315,0.517539918422699,0.829188883304596,-0.016582675278186798,0.9051780104637146,0.4956706464290619,0.8047061562538147,0.10335545241832733,0.502470850944519,0.524424135684967,0.9294172525405884,0.11055277287960052,0.7758788466453552,0.504877507686615,0.8985130190849304,0.24328747391700745,0.4871094822883606,0.555206298828125,0.6972207427024841,-0.19197945296764374,0.9324180483818054,0.4558466970920563,0.6066266894340515,-0.050181835889816284,0.27714037895202637,178.71155528129492,0.503380075097084,0.6659322082996368,137.15214670945855,147.03724546305764,0.6693254991770123,-0.0013725619545988375,-0.12080310553466038,0.4923789425613069,0.7042285988597683,-171.15205613418635,0.5915990466489653,80,1762115238.6478252
0.495033323764801,0.37978896498680115,-0.23697224259376526,0.9989601373672485,0.5429924130439758,0.45891237258911133,-0.17533686757087708,0.9997950792312622,0.47478875517845154,0.4493350684642792,-0.04965908080339432,0.9982035160064697,0.5247570276260376,0.6678999662399292,-0.03638201579451561,0.9982336163520813,0.48560070991516113,0.6597924828529358,0.036409735679626465,0.9950563311576843,0.5186567902565002,0.8282866477966309,-0.015652868896722794,0.9143587350845337,0.4958432614803314,0.8069778680801392,0.09461744129657745,0.544852614402771,0.5246943235397339,0.9299436211585999,0.12102639675140381,0.7931563854217529,0.5047048330307007,0.9024046063423157,0.24434378743171692,0.53215491771698,0.5606054067611694,0.6879574060440063,-0.1852031648159027,0.938556432723999,0.4505060315132141,0.6120858788490295,-0.046847231686115265,0.3147871494293213,178.98607245450964,0.5051788687705994,0.6638462245464325,133.82275187325394,144.13682467426705,0.6813281646433408,0.028322919052034493,-0.032844872569740335,0.46757041518744286,1.3849470058213462,-172.00666865277876,0.4981798842518272,81,1762115238.7113354
0.4961410164833069,0.3795449435710907,-0.22484079003334045,0.999055802822113,0.5430799722671509,0.4574516713619232,-0.16662552952766418,0.9998137354850769,0.4741232395172119,0.4494551420211792,-0.04033149778842926,0.9983664155006409,0.5259151458740234,0.6665909290313721,-0.03755909949541092,0.9983578324317932,0.4858287274837494,0.6592563390731812,0.03759417682886124,0.9954611659049988,0.5194226503372192,0.829268753528595,-0.021233558654785156,0.9226953983306885,0.49587172269821167,0.8085582256317139,0.09727616608142853,0.5836565494537354,0.5248454809188843,0.930488646030426,0.11486971378326416,0.8097489476203918,0.5046129822731018,0.9038023948669434,0.24873478710651398,0.5732071995735168,0.5605965852737427,0.6822355389595032,-0.17617633938789368,0.9441791772842407,0.4482634663581848,0.6157008409500122,-0.020352698862552643,0.353910893201828,179.25340381143914,0.5058719366788864,0.6629236340522766,132.20107726865902,143.9989299241367,0.6743281577760017,0.008745351957593007,-0.011641541164507609,-0.2470359869027019,0.2675503996001578,-173.38527213309476,0.3853807484109317,82,1762115238.7905853
0.4989420473575592,0.3791697323322296,-0.23464486002922058,0.9991453289985657,0.5457085371017456,0.45753005146980286,-0.16292601823806763,0.9998306035995483,0.47401148080825806,0.4502493441104889,-0.04901716858148575,0.9985157251358032,0.527806282043457,0.6662240624427795,-0.03478393703699112,0.9984713792800903,0.48607054352760315,0.6594398021697998,0.03483324497938156,0.9958300590515137,0.5206466913223267,0.8269052505493164,-0.019710104912519455,0.9302576780319214,0.49585390090942383,0.8093138933181763,0.09292292594909668,0.6207374930381775,0.5246396064758301,0.9301703572273254,0.11771620810031891,0.8260602951049805,0.5043577551841736,0.9057340621948242,0.24765174090862274,0.6118417382240295,0.5646944046020508,0.6802597045898438,-0.17642909288406372,0.9491974115371704,0.44407448172569275,0.6194717884063721,-0.029293561354279518,0.39226970076560974,179.19889714014255,0.5069384127855301,0.6628319323062897,132.1347107769093,143.1589991768229,0.6816831543383854,0.016837274342412334,-0.0014477656322929371,0.12775337047117924,0.1609369344063648,-174.20159306186622,0.4675014106376811,83,1762115238.8539255
0.5030018091201782,0.37874239683151245,-0.2323140799999237,0.9992271661758423,0.5486305952072144,0.45804205536842346,-0.14500615000724792,0.9998461604118347,0.47349056601524353,0.4520898163318634,-0.05649667978286743,0.9986494779586792,0.5298892259597778,0.663300633430481,-0.029510771855711937,0.9985840320587158,0.4866692125797272,0.6585038304328918,0.02957257628440857,0.9961629509925842,0.5215685963630676,0.8211806416511536,-0.017844507470726967,0.9369626045227051,0.49604469537734985,0.8082749843597412,0.0883287638425827,0.6531562209129333,0.5243523120880127,0.9291821718215942,0.11216920614242554,0.8408018350601196,0.5038250684738159,0.906035840511322,0.24201364815235138,0.6451353430747986,0.5677729249000549,0.6752644181251526,-0.16887082159519196,0.9535531401634216,0.4403549134731293,0.6214436888694763,-0.04486190527677536,0.4304695427417755,179.22583834240072,0.5082792192697525,0.6609022319316864,133.78805757789337,143.9156094536422,0.6768404619055817,0.016939159088786945,-0.02437898535227728,0.0012871670504794265,-0.2897029388711621,-175.47075629743549,0.5264694227896868,84,1762115238.9330797
0.5066664218902588,0.3779262602329254,-0.2431352436542511,0.999301016330719,0.5529568791389465,0.45878341794013977,-0.1511499583721161,0.9998602271080017,0.47430500388145447,0.4527764320373535,-0.07233497500419617,0.9987631440162659,0.5319190621376038,0.6633642911911011,-0.025188589468598366,0.9986904263496399,0.4871211647987366,0.6583398580551147,0.025215914472937584,0.9964677691459656,0.5220990777015686,0.8199840784072876,-0.007490620948374271,0.9428344368934631,0.49586421251296997,0.8085126876831055,0.08488034456968307,0.6834716796875,0.5245554447174072,0.9262217879295349,0.13309238851070404,0.8539620637893677,0.503833532333374,0.9056165814399719,0.23874647915363312,0.6755342483520508,0.5707942247390747,0.6730003356933594,-0.1697586327791214,0.9575281143188477,0.43596452474594116,0.6243492960929871,-0.05766745284199715,0.4658273458480835,178.85161609298058,0.5095201134681702,0.6608520746231079,133.34440833100936,143.9612304530204,0.6881721985233558,0.015365162236924067,-0.0006210643781385339,-0.019489749424342704,0.29417843249259457,-175.63255071172304,0.7884448596485768,85,1762115239.01384
0.508941650390625,0.3757958710193634,-0.27615004777908325,0.9993688464164734,0.5547221302986145,0.45904433727264404,-0.1567922830581665,0.9998732209205627,0.4749251902103424,0.4529927670955658,-0.0978970006108284,0.9988640546798706,0.5337886810302734,0.6612806916236877,-0.018965641036629677,0.9987894296646118,0.48748892545700073,0.6564218997955322,0.018915725871920586,0.9967455863952637,0.5227223038673401,0.819031298160553,-0.007795763202011585,0.9475855827331543,0.4950293004512787,0.8086882829666138,0.050744347274303436,0.7118245959281921,0.5246466994285583,0.9251174926757812,0.1689254343509674,0.8653791546821594,0.5038124322891235,0.9062363505363464,0.2260584533214569,0.7017871141433716,0.5738571882247925,0.6691023707389832,-0.1701691895723343,0.9610375761985779,0.43254461884498596,0.6272523403167725,-0.08624942600727081,0.5033494234085083,178.81803782497437,0.5106388032436371,0.65885129570961,124.88029776820439,130.9523721451003,0.718217409322485,0.018789092845758953,-0.03360433034605928,0.05750705112146351,-0.5539745336181009,-175.66315446211024,0.7815203892577872,86,1762115239.0733793
0.5098787546157837,0.3754561245441437,-0.2871569097042084,0.9994294047355652,0.5558439493179321,0.45963913202285767,-0.15692415833473206,0.9998847246170044,0.47539496421813965,0.45304468274116516,-0.10327841341495514,0.9989546537399292,0.5346373319625854,0.6609135270118713,-0.01845688745379448,0.9988717436790466,0.48774656653404236,0.6559675931930542,0.018402202054858208,0.9969838261604309,0.5228054523468018,0.8179330825805664,-0.007048262748867273,0.951663613319397,0.49487248063087463,0.8089824914932251,0.05090288072824478,0.7371042370796204,0.5249016880989075,0.9251046180725098,0.17458434402942657,0.8756838440895081,0.5038744807243347,0.9067453145980835,0.2217523753643036,0.7262201905250549,0.5743955373764038,0.6688875555992126,-0.1782587319612503,0.9640084505081177,0.43252459168434143,0.6279371976852417,-0.0946909636259079,0.5372227430343628,178.74498459473114,0.5111919492483139,0.6584405601024628,124.53175690734557,131.8220915258308,0.7264072687697325,0.0070700848996806355,-0.005249853726321948,-0.14978754328563612,0.36241526702281496,-175.3139090259265,0.7977321529597299,87,1762115239.1516168
0.511831521987915,0.37426409125328064,-0.3000947833061218,0.999485433101654,0.5565345287322998,0.4597930610179901,-0.15965361893177032,0.9998952746391296,0.47546443343162537,0.4532511830329895,-0.12367711961269379,0.9990441203117371,0.5350856184959412,0.6601157784461975,-0.014415701851248741,0.9989625811576843,0.4879109859466553,0.6558815240859985,0.014310719445347786,0.9972341060638428,0.5237126350402832,0.8163411617279053,-0.010572932660579681,0.955203652381897,0.4930008351802826,0.8110107183456421,0.02569090761244297,0.7603684067726135,0.5254018902778625,0.9247412085533142,0.17859724164009094,0.8848737478256226,0.5038938522338867,0.9034538269042969,0.22261233627796173,0.742974042892456,0.5762120485305786,0.6691590547561646,-0.17248140275478363,0.9664329886436462,0.4321022927761078,0.6352587938308716,-0.11338319629430771,0.5721276998519897,178.72017024484995,0.5114983022212982,0.657998651266098,121.09177442231395,119.39203557108382,0.7362935025042713,0.004833299479783788,-0.006971950453449488,-0.035289534490428945,-0.027169343696198053,-175.38656510439623,0.715365776663604,88,1762115239.2150006
0.513809323310852,0.373536080121994,-0.2936561107635498,0.9995359778404236,0.5564478039741516,0.4598075747489929,-0.15839919447898865,0.9999046325683594,0.47525328397750854,0.4539949595928192,-0.13238129019737244,0.9991241097450256,0.535425066947937,0.6610548496246338,-0.010540989227592945,0.9990520477294922,0.48794060945510864,0.6563923358917236,0.01039914134889841,0.9974732398986816,0.5250202417373657,0.8146527409553528,-0.006031026132404804,0.9586871862411499,0.4911133646965027,0.8148351311683655,0.04159160703420639,0.7818639874458313,0.5262996554374695,0.9229918718338013,0.18067938089370728,0.8941167593002319,0.4999791979789734,0.8937148451805115,0.2527083158493042,0.7589924335479736,0.5773953199386597,0.6688308119773865,-0.15203678607940674,0.9687689542770386,0.4314040243625641,0.6419090628623962,-0.11416272073984146,0.6074998378753662,178.8169890729233,0.5116828382015228,0.6587235927581787,121.69659280220482,121.64148963473913,0.7392476248253513,0.0030073902535688473,0.011814400503563019,-0.029756915719831804,0.3061619132457333,-175.90525167858866,0.821445616030499,89,1762115239.2763615
0.5153858065605164,0.3736080229282379,-0.2747081518173218,0.9995813965797424,0.5563716888427734,0.45988786220550537,-0.1448947936296463,0.9999131560325623,0.47529441118240356,0.4542478024959564,-0.11736680567264557,0.9991965293884277,0.5357286334037781,0.6616775393486023,-0.008681604638695717,0.9991331100463867,0.487976610660553,0.6568740606307983,0.008532704785466194,0.9976898431777954,0.5259766578674316,0.8136663436889648,-0.014207184314727783,0.9617458581924438,0.4892916679382324,0.8210538029670715,0.029600059613585472,0.8010877370834351,0.5265969634056091,0.9221265316009521,0.1640211045742035,0.9014680981636047,0.494457483291626,0.8888524174690247,0.25090017914772034,0.7685033082962036,0.5780448913574219,0.6690188050270081,-0.12809525430202484,0.971181333065033,0.4332379698753357,0.645500123500824,-0.0879305899143219,0.6408407688140869,178.87228838675134,0.5118526220321655,0.6592757999897003,119.16103074895516,114.34860047603124,0.7179193756901274,0.002679034964298344,0.008713329621464634,-0.005181148860513097,-0.04893208786997218,-176.02068698642992,1.3753783153421948,90,1762115239.3397365
0.5151854157447815,0.37383612990379333,-0.3009655177593231,0.9996224641799927,0.5557921528816223,0.45973238348960876,-0.15000614523887634,0.9999211430549622,0.47506117820739746,0.45470890402793884,-0.13423427939414978,0.9992645382881165,0.5353372097015381,0.6621514558792114,-0.006964498199522495,0.9992064237594604,0.48762211203575134,0.6571766138076782,0.006853627506643534,0.9978818893432617,0.5261144042015076,0.8136596083641052,-0.02425970882177353,0.9643297791481018,0.48678478598594666,0.8249437212944031,0.007263827137649059,0.8181357383728027,0.526462197303772,0.9215673804283142,0.16397227346897125,0.906778872013092,0.48753753304481506,0.8855600953102112,0.2539578080177307,0.7684012651443481,0.5785465240478516,0.667841374874115,-0.14209631085395813,0.9735475182533264,0.43491506576538086,0.6500975489616394,-0.11680106073617935,0.6722446084022522,178.883055355936,0.5114796608686447,0.6596640348434448,113.26019070877828,103.94357727244645,0.7353281691692554,-0.004710621171879235,0.004903532862365319,-0.09333376783623974,-0.04811897599351152,-176.4393647681062,7.159838371438181,91,1762115239.418911
0.5149751305580139,0.3739723563194275,-0.2988107204437256,0.9996593594551086,0.5555611848831177,0.4595906138420105,-0.15039822459220886,0.99992835521698,0.474928617477417,0.4550500512123108,-0.13254763185977936,0.9993249773979187,0.5351377129554749,0.6624900698661804,-0.00648082047700882,0.9992716908454895,0.48744186758995056,0.6574156880378723,0.006377911660820246,0.998052716255188,0.5261763334274292,0.8138311505317688,-0.025606224313378334,0.9665899872779846,0.4858202338218689,0.8265692591667175,0.006895193364471197,0.8334296941757202,0.5264014005661011,0.9213373064994812,0.16427265107631683,0.9112597703933716,0.48581939935684204,0.8849971294403076,0.2538602948188782,0.7680633664131165,0.5788241624832153,0.6671550869941711,-0.14276663959026337,0.975684404373169,0.43565669655799866,0.6513575911521912,-0.11347325146198273,0.7003663778305054,178.88180652520253,0.5112897902727127,0.6599528789520264,112.2704120500865,103.48476476121262,0.7335291600290021,-0.0027002170006442208,0.004107754382395822,0.02859066984378566,-0.01131704764401716,-176.77697708993833,34.96498400368613,92,1762115239.4892278
0.5152090191841125,0.3740311861038208,-0.3003970682621002,0.9996920228004456,0.5553455948829651,0.4597621560096741,-0.1498902589082718,0.9999343752861023,0.474452406167984,0.45552754402160645,-0.13613274693489075,0.9993753433227539,0.5349241495132446,0.6629589796066284,-0.004506742116063833,0.9993290901184082,0.4869677424430847,0.6581529974937439,0.004418537020683289,0.9981984496116638,0.5264493823051453,0.8140062689781189,-0.031006893143057823,0.9685653448104858,0.4845675826072693,0.8306175470352173,-0.003304963232949376,0.8472011685371399,0.5258709788322449,0.9218341112136841,0.15887603163719177,0.9146296381950378,0.4792371392250061,0.88591468334198,0.2524031400680542,0.7602091431617737,0.5785497426986694,0.6679168939590454,-0.13364055752754211,0.9771950840950012,0.43598395586013794,0.6523987054824829,-0.11593779176473618,0.7231507301330566,178.88392182054534,0.5109459459781647,0.6605559885501862,109.61692518135006,99.65148600523212,0.7327803707464801,-0.004449616648411829,0.007804714376070222,-0.022638612653626867,0.047841581195898084,-177.0034048906093,1.337559454397497,93,1762115239.5665028
0.5150492787361145,0.37408557534217834,-0.3030649423599243,0.999722421169281,0.5549945831298828,0.4606226086616516,-0.15113915503025055,0.9999401569366455,0.47356730699539185,0.45681652426719666,-0.1466326266527176,0.9994291663169861,0.5347625017166138,0.6634813547134399,-0.0037082587368786335,0.9993862509727478,0.48680081963539124,0.6592080593109131,0.003571677953004837,0.9983540773391724,0.5265103578567505,0.8142372965812683,-0.00522603141143918,0.9710826277732849,0.48464569449424744,0.8292272090911865,0.010576547123491764,0.86128169298172,0.5254259705543518,0.9222615361213684,0.19332703948020935,0.9214448928833008,0.4723357558250427,0.890302300453186,0.2509956359863281,0.7762780785560608,0.5781410336494446,0.668505847454071,-0.13875116407871246,0.9787203073501587,0.43750277161598206,0.6537389755249023,-0.1420789211988449,0.7457916736602783,179.0106148841019,0.5107816606760025,0.6613447070121765,117.9421958484627,106.627701260334,0.7479017384696683,-0.002767297049822893,0.013285535859149726,0.028337763639006797,0.09232147320007991,-177.32382103942595,0.5224244907226605,94,1762115239.6258695
0.5145632028579712,0.3745918571949005,-0.33863478899002075,0.9997496604919434,0.5544567704200745,0.4619913399219513,-0.16050264239311218,0.9999448657035828,0.471616268157959,0.4570218324661255,-0.16925348341464996,0.9994813203811646,0.5342036485671997,0.6636375188827515,-0.001925377524457872,0.9994276762008667,0.4861815869808197,0.6593891382217407,0.0017952753696590662,0.9984841346740723,0.5264283418655396,0.8143140077590942,0.005826420616358519,0.9733681082725525,0.48314350843429565,0.8283010125160217,0.019165605306625366,0.8740648031234741,0.5249665975570679,0.9223933815956116,0.20829951763153076,0.9276664853096008,0.47032856941223145,0.9063857197761536,0.24505393207073212,0.7942354679107666,0.5773321986198425,0.6686977744102478,-0.14408017694950104,0.9789059162139893,0.43961089849472046,0.6599118709564209,-0.1736641824245453,0.7656424045562744,179.19342894916903,0.5101926177740097,0.6615133285522461,121.01274597361312,114.95801674773463,0.7818214602825523,-0.00925081719842289,0.0026481722088882733,-0.10182256588455342,-0.16705796176951526,-176.56700551087354,0.39834226296274133,95,1762115239.6895442
0.514154314994812,0.3746088147163391,-0.3128929138183594,0.9997742176055908,0.5526095032691956,0.46266523003578186,-0.15079189836978912,0.9999490976333618,0.4700147211551666,0.45701125264167786,-0.15597578883171082,0.9995291829109192,0.5330613255500793,0.6637500524520874,-0.0012940182350575924,0.9994687438011169,0.48542481660842896,0.659885823726654,0.0011534978402778506,0.998608410358429,0.526374876499176,0.8143740892410278,0.009157066233456135,0.975328266620636,0.48076024651527405,0.8279120326042175,0.02129250392317772,0.8853095769882202,0.5241401791572571,0.9228101372718811,0.19059988856315613,0.9331645369529724,0.4695822596549988,0.9123836159706116,0.22601774334907532,0.8102271556854248,0.5761035084724426,0.6692781448364258,-0.12217849493026733,0.9795123934745789,0.4418805241584778,0.662328839302063,-0.14916133880615234,0.7848857641220093,179.41309359251167,0.5092430710792542,0.6618179380893707,124.82314781604488,119.29356058406975,0.7528521300004348,-0.014783162649819789,0.004742360072306956,-0.08613116458063753,0.03260368339459789,-176.08396023715358,0.30847407240321195,96,1762115239.7537758
0.5138896107673645,0.3748564124107361,-0.30499526858329773,0.9997963905334473,0.5513606667518616,0.46303215622901917,-0.14681251347064972,0.999953031539917,0.4694320559501648,0.4569849371910095,-0.15241484344005585,0.9995724558830261,0.5323084592819214,0.6638551950454712,-0.0010992202442139387,0.999506950378418,0.4848826825618744,0.6601824164390564,0.0009543009218759835,0.9987226724624634,0.526310920715332,0.8143860101699829,0.009686592034995556,0.9771257638931274,0.47981661558151245,0.8277140855789185,0.02378241904079914,0.8955535888671875,0.5236209630966187,0.9228766560554504,0.1885034143924713,0.9381606578826904,0.4692845344543457,0.9140309691429138,0.22053711116313934,0.82476806640625,0.5753709077835083,0.670502781867981,-0.11813197284936905,0.9802467823028564,0.4428718090057373,0.6625126600265503,-0.14371301233768463,0.8026122450828552,179.48925881797965,0.5085955709218979,0.6620188057422638,125.3432912054965,121.4864336267831,0.7452571732938561,-0.010152987599490073,0.0031496622291010096,0.07260246864094647,-0.024973957562928095,-175.7786057682727,0.27235105155394695,97,1762115239.8334243
0.5137020349502563,0.3748418986797333,-0.3271915018558502,0.9998161196708679,0.5490460395812988,0.4631243050098419,-0.14741341769695282,0.9999558925628662,0.4676417410373688,0.45696738362312317,-0.16690561175346375,0.999611496925354,0.530132532119751,0.6638832688331604,8.02242720965296e-05,0.9995364546775818,0.4832330644130707,0.6602627038955688,-0.00021105406631249934,0.9988202452659607,0.5258092284202576,0.8144378662109375,0.006873908452689648,0.9787490367889404,0.4783461093902588,0.8274110555648804,0.018973492085933685,0.9047467708587646,0.5230793356895447,0.9230137467384338,0.19853147864341736,0.9425540566444397,0.4687623083591461,0.9163011908531189,0.22443631291389465,0.837479293346405,0.5722249746322632,0.6715449094772339,-0.12641675770282745,0.9791345596313477,0.4435191750526428,0.6688202619552612,-0.16736719012260437,0.8180838227272034,179.52891765986539,0.5066827982664108,0.6620729863643646,122.12106680961155,119.97957890037722,0.7663624214369328,-0.024150724724935655,0.0006840861542166498,-0.1767358473673743,-0.031130437222690797,-175.67473397654436,0.26975208624816427,98,1762115239.8967516
0.5136665105819702,0.37463676929473877,-0.317465603351593,0.9998334050178528,0.5461084842681885,0.46151551604270935,-0.14046074450016022,0.9999583959579468,0.46646374464035034,0.4555665850639343,-0.15792107582092285,0.9996457099914551,0.5277525782585144,0.6630750298500061,0.0006469153449870646,0.9995582103729248,0.48162055015563965,0.6596445441246033,-0.0007520818035118282,0.9989003539085388,0.5250190496444702,0.8144450783729553,0.004262987058609724,0.9802792072296143,0.4767369329929352,0.8266741633415222,0.014593961648643017,0.9130621552467346,0.5227606296539307,0.9230786561965942,0.19101563096046448,0.9465570449829102,0.4683520197868347,0.9184297323226929,0.21470999717712402,0.8491637706756592,0.5707110166549683,0.6694962978363037,-0.11427440494298935,0.9781548976898193,0.44352588057518005,0.6672372817993164,-0.1565321832895279,0.8315966129302979,179.54814047333684,0.504686564207077,0.6613597869873047,121.55889592657833,119.9159169614338,0.7545289143945674,-0.023767290786100948,-0.00849139754118138,0.0045651890763680515,-0.10924389756401172,-175.72831956978806,0.3005167086169268,99,1762115239.9807425
