nose_x,nose_y,nose_z,nose_visibility,left_shoulder_x,left_shoulder_y,left_shoulder_z,left_shoulder_visibility,right_shoulder_x,right_shoulder_y,right_shoulder_z,right_shoulder_visibility,left_hip_x,left_hip_y,left_hip_z,left_hip_visibility,right_hip_x,right_hip_y,right_hip_z,right_hip_visibility,left_knee_x,left_knee_y,left_knee_z,left_knee_visibility,right_knee_x,right_knee_y,right_knee_z,right_knee_visibility,left_ankle_x,left_ankle_y,left_ankle_z,left_ankle_visibility,right_ankle_x,right_ankle_y,right_ankle_z,right_ankle_visibility,left_wrist_x,left_wrist_y,left_wrist_z,left_wrist_visibility,right_wrist_x,right_wrist_y,right_wrist_z,right_wrist_visibility,trunk_lateral_inclination,center_mass_x,center_mass_y,left_knee_angle,right_knee_angle,person_height,center_mass_velocity_x,center_mass_velocity_y,center_mass_acceleration_x,center_mass_acceleration_y,body_orientation,torso_leg_ratio,frame,timestamp
0.46297749876976013,0.1718226820230484,-0.24996666610240936,0.9999904632568359,0.5070355534553528,0.2479032725095749,-0.13303877413272858,0.9999864101409912,0.4421955943107605,0.2601785659790039,-0.08812658488750458,0.9999102354049683,0.5046548247337341,0.43110519647598267,-0.019921712577342987,0.9999072551727295,0.4691010117530823,0.4372025430202484,0.019918547943234444,0.9998300075531006,0.513450026512146,0.5529805421829224,-0.018787529319524765,0.9930076599121094,0.4725612699985504,0.5565763115882874,0.06542295962572098,0.9865484833717346,0.5208233594894409,0.6526541709899902,0.14878422021865845,0.988272488117218,0.4843556880950928,0.6505701541900635,0.24649569392204285,0.9869014620780945,0.5267398357391357,0.4346500039100647,-0.13018831610679626,0.9294132590293884,0.43670254945755005,0.45157691836357117,-0.09917198866605759,0.7953717708587646,-176.105232409864,0.4868779182434082,0.43415386974811554,121.3436926275056,138.30145440327988,0.6573573969289734,0.0,0.0,0.0,0.0,169.2798183291808,1.279343097687597,0,1762115206.3210862
0.462897390127182,0.17182831466197968,-0.2430875599384308,0.9999873638153076,0.5081620812416077,0.24718891084194183,-0.12927408516407013,0.999984085559845,0.4420197010040283,0.26035869121551514,-0.08301801979541779,0.9999001026153564,0.5051625370979309,0.4396200478076935,-0.016684172675013542,0.9999081492424011,0.4690169394016266,0.4445282816886902,0.01665383018553257,0.9998344779014587,0.5151923894882202,0.5539060235023499,0.021426701918244362,0.9925209283828735,0.47218814492225647,0.5601015090942383,0.07331899553537369,0.9866771101951599,0.5207938551902771,0.6478044986724854,0.22124508023262024,0.9878271818161011,0.484077125787735,0.6503797173500061,0.2676761746406555,0.9868854284286499,0.5267608165740967,0.4349428713321686,-0.17166507244110107,0.93295818567276,0.4362003803253174,0.45285940170288086,-0.10363421589136124,0.7964071035385132,-176.3539366383166,0.48708973824977875,0.44207416474819183,133.57049641982258,141.02477571482407,0.683408534359257,0.003440449129274725,0.12864399592615972,0.0558808887505218,2.089477435839244,168.73896535561764,1.371888955685555,1,1762115206.3826537
0.4634227156639099,0.17106784880161285,-0.2476554811000824,0.9999856948852539,0.5093861222267151,0.24558573961257935,-0.1274479478597641,0.9999792575836182,0.4420083165168762,0.26016077399253845,-0.0952431708574295,0.9999003410339355,0.5054771900177002,0.4397977292537689,-0.011930285021662712,0.9999112486839294,0.4689159393310547,0.4451548159122467,0.011859925463795662,0.9998440146446228,0.5165307521820068,0.5526400804519653,0.046445928514003754,0.9919925332069397,0.4722791612148285,0.5595763921737671,0.08807210624217987,0.9867025017738342,0.5213735699653625,0.6410257816314697,0.24421338737010956,0.987442135810852,0.48408007621765137,0.6487603187561035,0.2858561873435974,0.9869036078453064,0.5270563364028931,0.4349481463432312,-0.16037121415138245,0.9339611530303955,0.4361289441585541,0.4536334276199341,-0.12597636878490448,0.8047631978988647,-176.5292857844528,0.48719656467437744,0.4424762725830078,141.32162936477926,147.91552621302748,0.6992184534932263,0.0014874826539894165,0.005599068129153913,-0.027193681401607685,-1.7133138776008812,167.7939582741534,1.3816568426630051,2,1762115206.4544706
0.46350327134132385,0.17042610049247742,-0.24659141898155212,0.9999843239784241,0.5101659297943115,0.24476408958435059,-0.12486300617456436,0.9999743103981018,0.44201189279556274,0.26004648208618164,-0.09450279921293259,0.9999000430107117,0.5057443976402283,0.43974828720092773,-0.011389809660613537,0.9999136924743652,0.4688945710659027,0.4454532265663147,0.011305378749966621,0.9998520612716675,0.5169359445571899,0.5506369471549988,0.048237018287181854,0.991398274898529,0.4724489748477936,0.5571274757385254,0.09272239357233047,0.9865818023681641,0.5218411684036255,0.6388745903968811,0.2405143678188324,0.9870988726615906,0.4840725064277649,0.6472519636154175,0.2883177399635315,0.986881673336029,0.5272294282913208,0.4347229301929474,-0.1551184207201004,0.9346088767051697,0.4361082911491394,0.45362168550491333,-0.12160024791955948,0.811882734298706,-176.62074938986342,0.4873194843530655,0.4426007568836212,142.79284920559996,150.80944489705126,0.6971880103892913,0.0019324221502571254,0.0019570195954961844,0.006994900631769729,-0.05725670074856724,167.3614450151054,1.3587489220472297,3,1762115206.5180798
0.4640466570854187,0.17036515474319458,-0.2493007481098175,0.999983012676239,0.5111635327339172,0.24446678161621094,-0.12446598708629608,0.9999658465385437,0.4422476887702942,0.2597365975379944,-0.10235927253961563,0.9998999238014221,0.5060306191444397,0.4392760694026947,-0.009726626798510551,0.9999133944511414,0.46887022256851196,0.4450482726097107,0.009631146676838398,0.9998572468757629,0.5168980956077576,0.5474781394004822,0.052972011268138885,0.9906455874443054,0.47280311584472656,0.5555434226989746,0.08932891488075256,0.986406683921814,0.5220016241073608,0.6381604671478271,0.23663870990276337,0.9866938591003418,0.4840569496154785,0.6459064483642578,0.27770093083381653,0.986759603023529,0.5272492170333862,0.43340906500816345,-0.15416713058948517,0.9313401579856873,0.4362938404083252,0.45411422848701477,-0.1273985654115677,0.8173301219940186,-176.7643054641656,0.48745042085647583,0.4421621710062027,146.2375362302366,151.41557251391941,0.6931832876128865,0.0016134635610997186,-0.00540446944279595,-0.003930363555627178,-0.09071186421938214,167.50670331300077,1.3135976729167216,4,1762115206.5992322
0.4656139314174652,0.16996361315250397,-0.25083231925964355,0.9999816417694092,0.5125309824943542,0.2437136322259903,-0.1250087469816208,0.9999611973762512,0.4430466592311859,0.2593461871147156,-0.10320515930652618,0.9998960494995117,0.506518542766571,0.43895694613456726,-0.009423045441508293,0.9999130964279175,0.4689100384712219,0.44475263357162476,0.009337548166513443,0.999861478805542,0.5167974233627319,0.546269416809082,0.05627046898007393,0.9898778796195984,0.47359713912010193,0.5546601414680481,0.08976440876722336,0.9861739873886108,0.5221847891807556,0.6376895904541016,0.24082331359386444,0.9862286448478699,0.4841768145561218,0.6453414559364319,0.27614372968673706,0.9865517020225525,0.5278194546699524,0.432282418012619,-0.15564854443073273,0.9312103986740112,0.4372890889644623,0.4556827247142792,-0.12579970061779022,0.8177046179771423,-177.01472122567432,0.4877142906188965,0.441854789853096,147.7180480605721,152.14650253017376,0.6951079768007813,0.0023421099410848513,-0.002728317363039209,0.006467470597779597,0.023753545432239155,167.32072931267885,1.243088999298958,5,1762115206.7118955
0.4667937159538269,0.16997072100639343,-0.25093117356300354,0.9999804496765137,0.5136657953262329,0.24354466795921326,-0.12550708651542664,0.9999563097953796,0.4441058039665222,0.25805339217185974,-0.10137269645929337,0.9998935461044312,0.5072022080421448,0.43877077102661133,-0.009782453998923302,0.999910295009613,0.46921101212501526,0.44453489780426025,0.009704919531941414,0.9998623728752136,0.51678466796875,0.54328852891922,0.05290474742650986,0.989335834980011,0.4740573465824127,0.5535849928855896,0.09029187262058258,0.9860772490501404,0.5221781134605408,0.6361768245697021,0.23275160789489746,0.9859334826469421,0.48437151312828064,0.6445193886756897,0.274909645318985,0.986530601978302,0.5281973481178284,0.43067046999931335,-0.1581578254699707,0.9293683767318726,0.43925362825393677,0.4556059241294861,-0.12528814375400543,0.8159001469612122,-177.2040425032344,0.48820661008358,0.4416528344154358,148.17597369335883,152.69631712133247,0.6909198435949022,0.006276653788751531,-0.0025747597929401465,0.050162082387582935,0.0019577282096155113,168.21824464568851,1.186637889574719,6,1762115206.790332
0.46872735023498535,0.16996540129184723,-0.24967041611671448,0.9999788999557495,0.5149238109588623,0.24357916414737701,-0.12179438024759293,0.9999494552612305,0.4457547068595886,0.25777357816696167,-0.10090869665145874,0.999890148639679,0.5074898600578308,0.4390183389186859,-0.00946445669978857,0.9999058246612549,0.4694536626338959,0.44475072622299194,0.009389281272888184,0.9998620748519897,0.5159016251564026,0.5412993431091309,0.056214846670627594,0.9887356162071228,0.47403812408447266,0.552160382270813,0.09081204235553741,0.985938549041748,0.5219403505325317,0.6354567408561707,0.23409755527973175,0.9855725765228271,0.4842994213104248,0.6436886787414551,0.2745708227157593,0.9864506125450134,0.5283899307250977,0.4293448030948639,-0.15521159768104553,0.9269211292266846,0.4411253333091736,0.4555360972881317,-0.12769195437431335,0.8159922957420349,-177.56455270077387,0.48847176134586334,0.44188453257083893,150.54898091750908,153.64555350610436,0.6897351032756603,0.0026050572720245483,0.002276387294745965,-0.03607268969219286,0.04766153436197374,168.40315080109067,0.9977292554605577,7,1762115206.8921154
0.4692297875881195,0.16996914148330688,-0.25074464082717896,0.9999773502349854,0.5153487920761108,0.2435527741909027,-0.12274952232837677,0.9999446868896484,0.44639405608177185,0.2575041651725769,-0.10197712481021881,0.9998852610588074,0.5076502561569214,0.43926161527633667,-0.009552568197250366,0.9999015927314758,0.4696909487247467,0.44472140073776245,0.009478694759309292,0.9998593926429749,0.5155068039894104,0.5414025783538818,0.05335574224591255,0.9883151054382324,0.47430580854415894,0.5515075922012329,0.09336729347705841,0.9857631325721741,0.5219088792800903,0.6359261870384216,0.23133344948291779,0.9852973818778992,0.48428064584732056,0.6435471177101135,0.28037959337234497,0.9862686395645142,0.528535783290863,0.42917752265930176,-0.15528573095798492,0.9252312779426575,0.44188547134399414,0.4555478096008301,-0.12962231040000916,0.8154531717300415,-177.66736653939776,0.48867060244083405,0.44199150800704956,149.57449569661438,154.36227614755134,0.691717491767203,0.0020666942556307505,0.0011118703583013459,-0.005595582510692966,-0.012103637145477462,168.56193686236287,0.9523438527689781,8,1762115206.9883275
0.4700202941894531,0.1699715256690979,-0.25425630807876587,0.9999764561653137,0.5158743858337402,0.24354960024356842,-0.12331634759902954,0.99993896484375,0.4471184313297272,0.2573431432247162,-0.107171930372715,0.9998829960823059,0.5080342888832092,0.43919962644577026,-0.008991898968815804,0.9998956918716431,0.47023898363113403,0.444646954536438,0.008914489299058914,0.9998564124107361,0.5152233242988586,0.5409631729125977,0.05158572271466255,0.988132655620575,0.47456035017967224,0.5507869124412537,0.09153373539447784,0.98573237657547,0.5218182802200317,0.6363467574119568,0.2268199473619461,0.9852089285850525,0.48422327637672424,0.6435472369194031,0.27785295248031616,0.9862459301948547,0.5289647579193115,0.4291880428791046,-0.15425722301006317,0.9245437383651733,0.4429643154144287,0.4555353820323944,-0.13645532727241516,0.8183881640434265,-177.7150211920972,0.48913663625717163,0.4419232904911041,149.3154084035931,154.36688492749508,0.6918108110009558,0.005527258974395227,-0.0008090740714558384,0.04104302462122388,-0.02278280452292066,168.6561360905441,0.9397642147570406,9,1762115207.072643
0.47167038917541504,0.16988252103328705,-0.25517207384109497,0.9999762177467346,0.516717791557312,0.24316826462745667,-0.12063523381948471,0.9999348521232605,0.44797784090042114,0.25664588809013367,-0.10841438919305801,0.9998831152915955,0.5088505148887634,0.4374234080314636,-0.007903189398348331,0.9998893141746521,0.4712820053100586,0.4437265992164612,0.00782708264887333,0.99985271692276,0.5151516199111938,0.5407777428627014,0.05029626935720444,0.9880778789520264,0.4752126634120941,0.5489316582679749,0.08988017588853836,0.9857379198074341,0.5218135118484497,0.6364007592201233,0.22503061592578888,0.9851356148719788,0.4842071533203125,0.6428478956222534,0.2740091383457184,0.9862200021743774,0.5297245383262634,0.4266986548900604,-0.14842894673347473,0.9238659143447876,0.44431549310684204,0.45439478754997253,-0.13859868049621582,0.8226010799407959,-177.6818705902489,0.490066260099411,0.4405750036239624,148.0811650238897,154.97582065531424,0.6901836872183111,0.013965047312736832,-0.020254310437454782,0.12675461622837458,-0.29211131806212914,168.90691769735912,0.985854598095052,10,1762115207.139211
0.473459392786026,0.1695154756307602,-0.2564695477485657,0.9999750852584839,0.5177093744277954,0.24271416664123535,-0.11777190119028091,0.9999291896820068,0.4489697515964508,0.2558166980743408,-0.10737291723489761,0.9998812675476074,0.5095624327659607,0.43662261962890625,-0.007833943702280521,0.9998820424079895,0.47209104895591736,0.44323837757110596,0.007764964364469051,0.9998464584350586,0.5151464343070984,0.5406011343002319,0.04850048944354057,0.9880250096321106,0.47606220841407776,0.5484030246734619,0.0898367315530777,0.9856522679328918,0.5218087434768677,0.6358715295791626,0.22791841626167297,0.9850258827209473,0.48420947790145874,0.6422320604324341,0.27589625120162964,0.9861164689064026,0.5301966667175293,0.4253644347190857,-0.14472165703773499,0.9195631146430969,0.4462723731994629,0.4529818296432495,-0.13995757699012756,0.8246482610702515,-177.7512220727443,0.490826740860939,0.4399304986000061,146.43072742268558,154.73582798381793,0.6926648501721185,0.011790120832855891,-0.009992089865047184,-0.033718993691373704,0.15910043578090952,169.20824616334116,1.0109898508625876,11,1762115207.2037125
0.47501736879348755,0.1684563010931015,-0.2464659959077835,0.9999739527702332,0.5187280774116516,0.24236272275447845,-0.11257793754339218,0.9999257922172546,0.4499160647392273,0.2549437880516052,-0.09982243180274963,0.9998772144317627,0.5101886987686157,0.4364243447780609,-0.00802941806614399,0.9998762011528015,0.4728749692440033,0.4429837465286255,0.007963545620441437,0.9998406171798706,0.5151692628860474,0.5407497882843018,0.048480115830898285,0.9879661798477173,0.47606033086776733,0.5481306910514832,0.08897166699171066,0.9856882095336914,0.5218209028244019,0.6349960565567017,0.2300885021686554,0.9848362803459167,0.48417457938194275,0.6411162614822388,0.2749495804309845,0.9860141277313232,0.5308825373649597,0.4247976541519165,-0.14498375356197357,0.9192917346954346,0.44808799028396606,0.45105552673339844,-0.13672836124897003,0.8278424143791199,-177.83883092546407,0.4915318340063095,0.4397040456533432,145.88681333007233,154.17053476820942,0.6857791154272107,0.006974266639310821,-0.0022399072259522076,-0.047634913858336486,0.07667893116912425,169.63891280419875,0.9764108056537957,12,1762115207.3048117
0.4754621982574463,0.16804946959018707,-0.2471572607755661,0.9999731779098511,0.519447922706604,0.24184273183345795,-0.11380919069051743,0.9999226331710815,0.4501834511756897,0.254393070936203,-0.10206804424524307,0.9998752474784851,0.5105404257774353,0.43594178557395935,-0.007886361330747604,0.9998705387115479,0.4733354151248932,0.44268980622291565,0.007824001833796501,0.9998358488082886,0.5151921510696411,0.5407137274742126,0.051253072917461395,0.9878146052360535,0.4761849343776703,0.5475442409515381,0.08849670737981796,0.9856218695640564,0.5218251943588257,0.6342222690582275,0.23393185436725616,0.984545111656189,0.484171062707901,0.6401081681251526,0.2753105163574219,0.985806405544281,0.5314775109291077,0.4241703450679779,-0.14404705166816711,0.9184373021125793,0.4482731223106384,0.45051273703575134,-0.13814736902713776,0.8309018611907959,-177.86668503732758,0.49193792045116425,0.4393157958984375,146.565908615571,153.92200202376003,0.6874659427389636,0.0042578482398644086,-0.004070829146105503,-0.028481860075274323,-0.01919736000506629,169.7297499108384,0.9742356762381291,13,1762115207.4001853
0.47695064544677734,0.16723835468292236,-0.24778740108013153,0.9999713897705078,0.520398736000061,0.24184347689151764,-0.11126953363418579,0.9999179244041443,0.4509250223636627,0.2536773085594177,-0.10114514827728271,0.9998728632926941,0.5115376710891724,0.4358142018318176,-0.007790693081915379,0.9998667240142822,0.47401246428489685,0.442385733127594,0.007732716389000416,0.9998311400413513,0.5159368515014648,0.5401550531387329,0.05128096789121628,0.9877668619155884,0.47679710388183594,0.5467860102653503,0.08881647884845734,0.9855926632881165,0.5219423770904541,0.6333333849906921,0.2375120222568512,0.9844489097595215,0.48424774408340454,0.6385238170623779,0.28416934609413147,0.985638439655304,0.5320244431495667,0.42404860258102417,-0.13960236310958862,0.9130163788795471,0.4495600163936615,0.4492332339286804,-0.1363644152879715,0.8311009407043457,-177.8709679677098,0.4927750676870346,0.4390999674797058,146.10892602019268,152.98581714710602,0.6921391526069437,0.010147916082622607,-0.0026162765493183662,0.07139952403608042,0.017632116618781342,170.33327939582688,1.0570814204359533,14,1762115207.4826798
0.4789368510246277,0.1670401394367218,-0.25386911630630493,0.9999707937240601,0.5213609337806702,0.24184569716453552,-0.11300128698348999,0.9999147653579712,0.4520297050476074,0.2535213828086853,-0.10433447360992432,0.9998724460601807,0.511969268321991,0.43542176485061646,-0.007302763871848583,0.9998618364334106,0.4746026396751404,0.4420478343963623,0.007245277054607868,0.9998255968093872,0.5165140628814697,0.5399535894393921,0.05039814114570618,0.9877616167068481,0.47775799036026,0.5466997623443604,0.08773881942033768,0.985658586025238,0.5220271348953247,0.6334259510040283,0.23548118770122528,0.9843757152557373,0.4843323230743408,0.6384786367416382,0.28175088763237,0.9856007099151611,0.532372236251831,0.4242202639579773,-0.13956929743289948,0.9102045297622681,0.4504564702510834,0.44854071736335754,-0.13862034678459167,0.8337683081626892,-178.0242691755826,0.4932859539985657,0.4387347996234894,145.70250709263192,152.88633525899843,0.6950592483756645,0.006118038801410442,-0.004373010321346486,-0.048259162586467494,-0.021037489434403433,170.44082998877542,1.0903158150041024,15,1762115207.5661848
0.48024946451187134,0.16688811779022217,-0.25982141494750977,0.9999696016311646,0.5225107073783875,0.24185237288475037,-0.11308697611093521,0.9999117255210876,0.4527444839477539,0.253559410572052,-0.10871189832687378,0.9998687505722046,0.5125952959060669,0.4354221820831299,-0.006002882495522499,0.999858021736145,0.4753023684024811,0.4420335590839386,0.005949277430772781,0.9998195767402649,0.5174496173858643,0.5400016903877258,0.050853241235017776,0.9874560832977295,0.4793454706668854,0.5467922687530518,0.08568225800991058,0.9854889512062073,0.5222524404525757,0.6335077285766602,0.24162468314170837,0.9839400053024292,0.48468461632728577,0.6384244561195374,0.28168877959251404,0.9852674007415771,0.532659649848938,0.42471984028816223,-0.1402108073234558,0.9055655598640442,0.4507791996002197,0.4486526846885681,-0.14122872054576874,0.830444872379303,-178.10467853822294,0.493948832154274,0.43872787058353424,144.64329959913283,152.33590002022842,0.7017925108081637,0.007445816350031869,-7.783083292716239e-05,0.0149143363612075,0.04824584636828311,170.47429722786995,1.2463044122579992,16,1762115207.6552117
0.4818582534790039,0.16689512133598328,-0.2659341096878052,0.9999687075614929,0.5233128070831299,0.2419467270374298,-0.1141858920454979,0.9999086260795593,0.4531925618648529,0.25359290838241577,-0.11582516133785248,0.9998667240142822,0.5132507085800171,0.43547478318214417,-0.004558148793876171,0.9998552203178406,0.4758880138397217,0.4422018229961395,0.0045018671080470085,0.9998154640197754,0.5182319283485413,0.5402415990829468,0.05399192124605179,0.9873781204223633,0.47980958223342896,0.5471320748329163,0.08576563000679016,0.9854568839073181,0.5224159955978394,0.6335006952285767,0.2502575218677521,0.9836985468864441,0.48491016030311584,0.6384410858154297,0.28886812925338745,0.9850351810455322,0.5333133935928345,0.4251892566680908,-0.14073112607002258,0.9003938436508179,0.4507116377353668,0.4489683508872986,-0.1506655067205429,0.8284361958503723,-178.1065053693299,0.4945693612098694,0.43883830308914185,144.60625360199987,151.96714362974,0.71222503134058,0.007930863998147313,0.0014114168789537195,0.00619930186207598,0.019033792142330336,170.56990008428792,1.3603785907413966,17,1762115207.733454
0.48225831985473633,0.1668516844511032,-0.2737734019756317,0.9999685883522034,0.5237518548965454,0.24212269484996796,-0.11963266134262085,0.9999054074287415,0.45338305830955505,0.2536047101020813,-0.12173410505056381,0.9998661875724792,0.5135248303413391,0.43568965792655945,-0.004248670767992735,0.9998520016670227,0.47619208693504333,0.4422045946121216,0.0041904449462890625,0.9998105764389038,0.5181828737258911,0.5404825210571289,0.05371376872062683,0.987420380115509,0.47994890809059143,0.5472244024276733,0.08591080456972122,0.9854919910430908,0.5224501490592957,0.6335290670394897,0.24813365936279297,0.9837296009063721,0.4849270284175873,0.6385002732276917,0.2905672788619995,0.9849260449409485,0.5338085889816284,0.4262251853942871,-0.1419655978679657,0.8926297426223755,0.4508499503135681,0.44902661442756653,-0.15516899526119232,0.8262706398963928,-178.11434340109898,0.4948584586381912,0.4389471262693405,144.5190686640965,151.92809056213002,0.7180227732492742,0.0036773514123334284,0.0013842429443982798,-0.05410515273559468,-0.0003456554670727027,170.73276577179462,1.360599733410478,18,1762115207.8120697
0.4819704592227936,0.16681012511253357,-0.2589797377586365,0.999967634677887,0.5237391591072083,0.24224169552326202,-0.1118788868188858,0.9998975396156311,0.45349693298339844,0.2534601092338562,-0.11903679370880127,0.999865710735321,0.5135279893875122,0.4361227750778198,-0.003951950930058956,0.9998451471328735,0.476350873708725,0.4425482153892517,0.0038896561600267887,0.9998064041137695,0.5181103944778442,0.5410211086273193,0.05535179376602173,0.9873940348625183,0.47991281747817993,0.5473833084106445,0.08120597153902054,0.9856074452400208,0.5224127173423767,0.6336761713027954,0.24453158676624298,0.9836666584014893,0.4848952293395996,0.6385206580162048,0.2709011435508728,0.9849011301994324,0.5337260961532593,0.42611080408096313,-0.13077282905578613,0.8884674906730652,0.4505353569984436,0.4492793083190918,-0.15188953280448914,0.8281424045562744,-178.1092096423072,0.4949394315481186,0.43933549523353577,145.57332229463316,152.07502064365585,0.6983384109872859,0.0011331447122137736,0.005434882339791605,-0.03560393681794837,0.056685138475224474,170.92590274812412,1.3613795783678162,19,1762115207.8835282
0.48145729303359985,0.166798397898674,-0.2539346516132355,0.9999657869338989,0.524191677570343,0.24227961897850037,-0.11161597073078156,0.9998873472213745,0.45357316732406616,0.25314223766326904,-0.11601904779672623,0.9998664259910583,0.513507068157196,0.436495304107666,-0.0040124645456671715,0.9998384714126587,0.47632256150245667,0.4426170885562897,0.003947872202843428,0.9998044967651367,0.5180613398551941,0.5416745543479919,0.05859338119626045,0.9870989918708801,0.47981661558151245,0.547427773475647,0.07956308126449585,0.985692024230957,0.5223915576934814,0.6336854100227356,0.2493724822998047,0.9832386374473572,0.4848936200141907,0.6385703086853027,0.26667320728302,0.984758198261261,0.533662736415863,0.4261261522769928,-0.13011793792247772,0.8815463185310364,0.4504481852054596,0.4493464529514313,-0.14900438487529755,0.8289905190467834,-178.19898200563236,0.49491481482982635,0.43955619633197784,146.5075441377792,151.78456136887363,0.694883305933817,-0.00036937133535339806,0.00331159736556851,-0.02254509932198512,-0.031859673452571374,171.25523863846013,1.2822297547877397,20,1762115207.9501731
0.4811641275882721,0.16680385172367096,-0.24260172247886658,0.9999632835388184,0.5243483781814575,0.24229572713375092,-0.11088007688522339,0.999882698059082,0.45357951521873474,0.2528570890426636,-0.10080170631408691,0.9998660087585449,0.5131227970123291,0.4375629127025604,-0.004506886936724186,0.9998346567153931,0.47602492570877075,0.4430605173110962,0.0044451565481722355,0.9998053312301636,0.5177842974662781,0.5422066450119019,0.06008997559547424,0.9866676926612854,0.47927623987197876,0.5475582480430603,0.07966528087854385,0.9858262538909912,0.5219839811325073,0.6333000063896179,0.25033101439476013,0.9827311635017395,0.4848077893257141,0.6386245489120483,0.26234740018844604,0.984685480594635,0.5335617661476135,0.42686283588409424,-0.13206717371940613,0.8810127973556519,0.45039087533950806,0.4492700397968292,-0.1311616748571396,0.8297898173332214,-178.33277195742394,0.4945738613605499,0.4403117150068283,147.2685463272801,152.24872553333694,0.6852342162111246,-0.004921322504602784,0.010905156838790715,-0.06570286490007184,0.10960544031100637,171.5119708151788,1.152734058931941,21,1762115208.019454
0.4809592664241791,0.16675814986228943,-0.2344214916229248,0.9999622106552124,0.5244783759117126,0.24230556190013885,-0.10996569693088531,0.999882698059082,0.4536117911338806,0.25272855162620544,-0.09109710156917572,0.9998641014099121,0.5129061937332153,0.4381037950515747,-0.005809520836919546,0.9998334646224976,0.47575798630714417,0.44330379366874695,0.005749755073338747,0.9998056888580322,0.5175177454948425,0.5426684617996216,0.05867501348257065,0.9861794710159302,0.47889989614486694,0.5476111173629761,0.08012016117572784,0.9857617616653442,0.5218006372451782,0.632953405380249,0.2481020987033844,0.9821445941925049,0.4847269654273987,0.6385886073112488,0.26287686824798584,0.9844415187835693,0.5335203409194946,0.4272124469280243,-0.13585270941257477,0.8838167190551758,0.45032867789268494,0.44917288422584534,-0.12263711541891098,0.830493152141571,-178.43235840413487,0.49433209002017975,0.4407037943601608,147.14189270864864,151.95806760793158,0.678589209571218,-0.0030330912593133194,0.004918748672730481,0.023688406065337796,-0.07510121859505076,171.63297970963984,1.0456936058591377,22,1762115208.0991652
0.4757230877876282,0.1673305779695511,-0.2323581874370575,0.999962329864502,0.5244989395141602,0.24228115379810333,-0.1176205649971962,0.9998893141746521,0.453705370426178,0.25256606936454773,-0.0811760202050209,0.9998652338981628,0.5116360783576965,0.43947723507881165,-0.009692597202956676,0.99983811378479,0.47440940141677856,0.44341427087783813,0.009624294936656952,0.999808669090271,0.5169009566307068,0.5431265830993652,0.04488108307123184,0.9855490326881409,0.4767819941043854,0.5476108193397522,0.08042500913143158,0.9857587814331055,0.5213126540184021,0.6328021883964539,0.22947819530963898,0.9817962646484375,0.4847249388694763,0.6381947994232178,0.2635619044303894,0.9843469858169556,0.5325221419334412,0.4309602975845337,-0.14394304156303406,0.890178918838501,0.4499598443508148,0.4485665559768677,-0.09938805550336838,0.8279469609260559,-178.84238777644998,0.49302273988723755,0.4414457529783249,143.67138466045304,150.50069902231397,0.6702616051910237,-0.019486466875068748,0.01104223513006206,-0.24486816081732926,0.09113308427486247,171.73388044417183,0.6345712481743178,23,1762115208.166358
0.47082868218421936,0.17004826664924622,-0.21204893290996552,0.999960720539093,0.524316668510437,0.24117043614387512,-0.12443216890096664,0.999896228313446,0.4536636769771576,0.2525970935821533,-0.05829743668437004,0.9998614192008972,0.5093924403190613,0.43973228335380554,-0.016065498813986778,0.9998381733894348,0.47309166193008423,0.4432530403137207,0.016026664525270462,0.9998042583465576,0.5149885416030884,0.5431384444236755,0.032880060374736786,0.9851468801498413,0.47458416223526,0.5475093126296997,0.08113780617713928,0.9859044551849365,0.52000892162323,0.6334550976753235,0.2077409029006958,0.9818040132522583,0.4846811890602112,0.6382220387458801,0.2580200135707855,0.984397828578949,0.5282911658287048,0.4316897392272949,-0.1601916253566742,0.8950260877609253,0.44951358437538147,0.4476301968097687,-0.06506509333848953,0.816749632358551,-179.33704280149976,0.49124205112457275,0.4414926618337631,142.64666164818757,149.07112918775297,0.6449155370363706,-0.021361990458430104,0.0005627409704028281,-0.02249967413304103,-0.12571700284827117,170.8131419371233,0.29787919643240923,24,1762115208.2497158
0.4647074341773987,0.17263378202915192,-0.1930052787065506,0.9999574422836304,0.5230609774589539,0.24060556292533875,-0.134365051984787,0.999900221824646,0.45329394936561584,0.25279808044433594,-0.03993441164493561,0.9998630881309509,0.5040426850318909,0.4414508044719696,-0.02519177831709385,0.9998341798782349,0.4706895351409912,0.4433445334434509,0.025180140510201454,0.9998033046722412,0.5123027563095093,0.5436068773269653,0.026820823550224304,0.9851616024971008,0.4709283709526062,0.5481643080711365,0.09967327117919922,0.9863026738166809,0.5186073184013367,0.634731113910675,0.1920848786830902,0.9821319580078125,0.484597772359848,0.6388623714447021,0.2594391703605652,0.9848432540893555,0.5212308168411255,0.43247687816619873,-0.17476387321949005,0.8967013955116272,0.44909781217575073,0.446903258562088,-0.06648077070713043,0.8109863996505737,179.76245354433527,0.48736611008644104,0.44239766895771027,145.83017788171634,154.660655969914,0.6262384190720652,-0.054740086132876294,0.012781455504187108,-0.47140031651546505,0.17256544396113427,170.08707216017507,0.08123296039078329,25,1762115208.320522
0.4569928050041199,0.1731041520833969,-0.1786639243364334,0.9999502301216125,0.5198933482170105,0.24044673144817352,-0.14307132363319397,0.9999050498008728,0.4527752995491028,0.2534244656562805,-0.019327977672219276,0.9998548626899719,0.5019477605819702,0.4422118365764618,-0.03344307094812393,0.999813437461853,0.4700240194797516,0.4436318278312683,0.03345905989408493,0.9997912049293518,0.5112851858139038,0.5437025427818298,0.00928052980452776,0.9847917556762695,0.4693644046783447,0.5489822626113892,0.07097186148166656,0.9865931272506714,0.5184900760650635,0.6357928514480591,0.1814453899860382,0.9819930195808411,0.4858309328556061,0.6415993571281433,0.23083987832069397,0.9850768446922302,0.5140834450721741,0.43437033891677856,-0.18533749878406525,0.9006966948509216,0.44903650879859924,0.4438454508781433,-0.03630632162094116,0.795805037021637,179.8981368856124,0.4859858900308609,0.44292183220386505,140.95090707815822,139.36847163194707,0.6057161666067021,-0.021668004760995768,0.008228812258815514,0.519196930753727,-0.07147171577242685,169.05651595367198,0.029436716395586454,26,1762115208.3842206
0.45528149604797363,0.17296551167964935,-0.18337541818618774,0.9999430179595947,0.5185228586196899,0.24034596979618073,-0.14979656040668488,0.9999098777770996,0.45252975821495056,0.2536383867263794,-0.021148769184947014,0.9998444318771362,0.5022746324539185,0.44283998012542725,-0.034688711166381836,0.9997929930686951,0.4698747992515564,0.44413328170776367,0.034715618938207626,0.9997757077217102,0.5109879374504089,0.544640064239502,0.010256856679916382,0.9841757416725159,0.46916308999061584,0.5503696203231812,0.07108647376298904,0.9866343140602112,0.5178660154342651,0.6359553933143616,0.19230249524116516,0.9812541007995605,0.4866093695163727,0.6426599621772766,0.24001877009868622,0.9849628806114197,0.5129765868186951,0.43732404708862305,-0.18712356686592102,0.905204176902771,0.4489756226539612,0.4429645240306854,-0.025644484907388687,0.7791734337806702,-179.8400903969874,0.4860747158527374,0.44348663091659546,140.4433677070986,137.24007668714788,0.6158806346751855,0.001163472468583706,0.007397936080645564,0.2990548763020402,-0.010883114140464362,168.6117858614797,0.04508750931580788,27,1762115208.460566
0.45132821798324585,0.17327876389026642,-0.17937013506889343,0.9999335408210754,0.5142554640769958,0.24035324156284332,-0.15151658654212952,0.9999154210090637,0.4525297284126282,0.25396740436553955,-0.01028039027005434,0.9998100399971008,0.5029445886611938,0.4427066743373871,-0.03620090335607529,0.9997745156288147,0.46994274854660034,0.44374513626098633,0.03624744340777397,0.9997525811195374,0.510982871055603,0.5447344183921814,-0.001679661450907588,0.9838320016860962,0.46802860498428345,0.5497964024543762,0.0540725402534008,0.9864673018455505,0.5173906683921814,0.6359409689903259,0.16710372269153595,0.9807173013687134,0.4874740242958069,0.6435825824737549,0.21385455131530762,0.9848415851593018,0.5089594125747681,0.436861127614975,-0.1832069605588913,0.9118717312812805,0.449307382106781,0.43928149342536926,-0.006897913757711649,0.7444046139717102,-179.10846433022368,0.4864436686038971,0.4432259052991867,137.08001062201967,129.54271923159934,0.5975002228659885,0.004927088639836984,-0.003481796039225675,0.05026028515522259,-0.1452907028441939,167.56203862641965,0.23601212866333351,28,1762115208.5354486
0.44736266136169434,0.1782986968755722,-0.1667661815881729,0.9999160170555115,0.5080745220184326,0.24043968319892883,-0.17217959463596344,0.999920666217804,0.4540204405784607,0.25406578183174133,0.0006987686501815915,0.9997103810310364,0.5010112524032593,0.4427810609340668,-0.04294581338763237,0.9997487664222717,0.46919989585876465,0.4438912570476532,0.04297962039709091,0.9996909499168396,0.5091037154197693,0.5451886653900146,0.008318629115819931,0.9824928641319275,0.4677450656890869,0.5495918989181519,0.09610450267791748,0.9846298694610596,0.5168386697769165,0.636221170425415,0.16476990282535553,0.9793074727058411,0.48849716782569885,0.6437931656837463,0.2224930226802826,0.9834208488464355,0.5029483437538147,0.4367891848087311,-0.177528977394104,0.9180479645729065,0.45282554626464844,0.4331887662410736,0.026485884562134743,0.6909639239311218,-178.8143903393463,0.48510557413101196,0.44333615899086,146.79884823517574,152.20832338517076,0.5883195100499858,-0.017440731268470497,0.0014370472689304126,-0.29154229689118827,0.06411223275161766,165.85150133530124,0.28488783638407106,29,1762115208.612171
0.44244474172592163,0.18261468410491943,-0.14974084496498108,0.9999143481254578,0.5004211664199829,0.24266259372234344,-0.2007555216550827,0.9999275207519531,0.45916128158569336,0.2549382448196411,0.00975966639816761,0.9996732473373413,0.49668997526168823,0.4491305351257324,-0.05371135473251343,0.9997482895851135,0.46915945410728455,0.4485023617744446,0.053747035562992096,0.9996660947799683,0.5052992105484009,0.5499579310417175,0.0007574575138278306,0.98134845495224,0.46718865633010864,0.5497580766677856,0.1226218119263649,0.9795296788215637,0.5154320597648621,0.6363353729248047,0.1534522920846939,0.9776997566223145,0.48885172605514526,0.6444485187530518,0.24317261576652527,0.9799889326095581,0.49400457739830017,0.4414127767086029,-0.17730608582496643,0.9253743886947632,0.46092814207077026,0.42994818091392517,0.02149498648941517,0.6375150084495544,-179.10246640585285,0.4829247146844864,0.4488164484500885,147.92814164076952,160.26205251316057,0.5781564408434842,-0.030274264920038128,0.07607630798559627,-0.17815260779265754,1.036127640399791,163.43119265817563,0.1970877834749682,30,1762115208.6842077
0.4398834705352783,0.18780261278152466,-0.12765701115131378,0.9999086856842041,0.49357137084007263,0.24564918875694275,-0.20738950371742249,0.9999340176582336,0.4633241593837738,0.25655698776245117,0.02543177269399166,0.9996495246887207,0.4949466586112976,0.45590782165527344,-0.06177514046430588,0.9997521638870239,0.469270795583725,0.45527178049087524,0.06182411313056946,0.9996657371520996,0.5008416771888733,0.5560101270675659,-0.02479328215122223,0.9804641604423523,0.46521925926208496,0.5501218438148499,0.1088407039642334,0.9731242656707764,0.5143179297447205,0.6363900303840637,0.1471833884716034,0.9752574563026428,0.4891537129878998,0.6458415389060974,0.21839077770709991,0.9751631617546082,0.4839138090610504,0.44922277331352234,-0.18860851228237152,0.9322997331619263,0.4611450135707855,0.4339215159416199,0.022959332913160324,0.5870525240898132,-178.9743330440313,0.4821087270975113,0.45558980107307434,135.40914197114878,154.79294323361955,0.5528960849357047,-0.011930740699425511,0.09903473422946064,0.26820485321480697,0.33568038871501943,160.1695989475467,0.1957068787286586,31,1762115208.7526014
0.43958720564842224,0.18884851038455963,-0.1254231035709381,0.9999011158943176,0.49273842573165894,0.2477322518825531,-0.20919711887836456,0.9999399185180664,0.4638109803199768,0.2572416663169861,0.025000646710395813,0.9996035695075989,0.4949210584163666,0.4559369385242462,-0.06172598525881767,0.9997528791427612,0.4693501591682434,0.4562978446483612,0.06177527830004692,0.9996652007102966,0.500226616859436,0.5589312314987183,-0.022887513041496277,0.9800581932067871,0.46372437477111816,0.5502412915229797,0.10117331892251968,0.96826171875,0.5139387845993042,0.6353949904441833,0.16016539931297302,0.9727424383163452,0.48905038833618164,0.6465339064598083,0.21979756653308868,0.9711840152740479,0.48484429717063904,0.45042410492897034,-0.1896812915802002,0.9387410283088684,0.4605153203010559,0.4347488284111023,0.028767213225364685,0.5420331358909607,-178.91378169693652,0.482135608792305,0.4561173915863037,133.3999792412918,149.227784802294,0.5547264176474181,0.00037719626918599207,0.0074029995048776245,0.17270145880178747,-1.285750349537186,161.80258414107615,0.19779138505175967,32,1762115208.8238685
0.4385773241519928,0.19168728590011597,-0.13826873898506165,0.9998757243156433,0.4881191849708557,0.24879752099514008,-0.22725710272789001,0.9999451637268066,0.46685662865638733,0.25707587599754333,0.012031651102006435,0.9995282888412476,0.49098676443099976,0.4587786793708801,-0.06627874076366425,0.9997422099113464,0.46940022706985474,0.4578321576118469,0.06622619926929474,0.9995931386947632,0.49745625257492065,0.5667067766189575,0.06044408679008484,0.9770642518997192,0.46352696418762207,0.5508105754852295,0.20315957069396973,0.952614426612854,0.5137054324150085,0.6368696689605713,0.21382088959217072,0.9706982374191284,0.4889306128025055,0.6463999152183533,0.3614659905433655,0.957621157169342,0.47854965925216675,0.4537970721721649,-0.21240738034248352,0.9443893432617188,0.4632655680179596,0.43557044863700867,0.029462993144989014,0.5006228089332581,-179.24521193078206,0.48019349575042725,0.4583054184913635,163.85647653493302,169.6761963425227,0.6227281411935582,-0.025235562639602714,0.02843093518716445,-0.3328088364984405,0.2732342436559829,158.7270668660041,0.12990517724640036,33,1762115208.900828
0.4370971620082855,0.19061145186424255,-0.13115611672401428,0.999862790107727,0.4810160994529724,0.24878717958927155,-0.225075364112854,0.9999499320983887,0.4709392488002777,0.25418952107429504,0.016158180311322212,0.999470055103302,0.48674994707107544,0.4578010141849518,-0.07012249529361725,0.9997246265411377,0.4734768867492676,0.4549168348312378,0.07002871483564377,0.9994601607322693,0.49224382638931274,0.5654726028442383,0.05087560415267944,0.9755311608314514,0.4662816524505615,0.5500925183296204,0.19680054485797882,0.9285119771957397,0.5092594027519226,0.6425434947013855,0.20965978503227234,0.9700385928153992,0.4888489246368408,0.6454147100448608,0.3425329327583313,0.9392017126083374,0.47336235642433167,0.45335015654563904,-0.2070625126361847,0.9494420289993286,0.47006672620773315,0.4317648112773895,0.03981928527355194,0.46171432733535767,-178.84352144362796,0.4801134169101715,0.4563589245080948,163.8571277421843,169.34203931256715,0.6125646704503411,-0.0011881935919795385,-0.028881682980928764,0.35680998519837864,-0.8503930055607851,151.80361446412465,0.20895584725749852,34,1762115208.9682233
0.43658629059791565,0.18986420333385468,-0.09621544182300568,0.9997762441635132,0.4750450551509857,0.24885950982570648,-0.20654825866222382,0.9999507069587708,0.4727640748023987,0.24984481930732727,0.035289086401462555,0.999325692653656,0.48553913831710815,0.4578888714313507,-0.07187969237565994,0.9996744394302368,0.4776802957057953,0.454573392868042,0.07172605395317078,0.999255895614624,0.48220595717430115,0.58097243309021,0.03917994350194931,0.9728585481643677,0.4695678651332855,0.559135913848877,0.18147578835487366,0.8918973207473755,0.5035879611968994,0.6561024188995361,0.1656271368265152,0.9695292115211487,0.48878875374794006,0.6482588052749634,0.3136080801486969,0.9135777950286865,0.4661652147769928,0.4547819495201111,-0.1537584811449051,0.9509745240211487,0.4747876524925232,0.4324280619621277,0.046223461627960205,0.4199276268482208,-177.86701985996692,0.4816097170114517,0.45623113214969635,160.40809739616193,166.1739785291572,0.5745195434963715,0.02054693331674546,-0.0017548224879192257,0.29846299070786425,0.37250134058377926,156.63722261701744,0.37951840452302826,35,1762115209.0410469
0.4384080767631531,0.18841154873371124,-0.0888175219297409,0.9995247721672058,0.47028741240501404,0.24868899583816528,-0.200408935546875,0.9999421238899231,0.4734577536582947,0.24582277238368988,0.04085838049650192,0.999178409576416,0.4809260964393616,0.4560333788394928,-0.0719994381070137,0.9995236396789551,0.4796299934387207,0.4519816040992737,0.07183726876974106,0.998801052570343,0.4737529158592224,0.576478123664856,0.03497142717242241,0.9686155915260315,0.47181764245033264,0.5581698417663574,0.17376716434955597,0.8552149534225464,0.49234065413475037,0.6656428575515747,0.1511889398097992,0.9681332111358643,0.48761874437332153,0.6516543626785278,0.30004221200942993,0.8861575722694397,0.45929819345474243,0.45338019728660583,-0.14202198386192322,0.9397286176681519,0.4743473529815674,0.42616263031959534,0.04372997209429741,0.38120248913764954,-177.67192898809813,0.48027804493904114,0.45400749146938324,165.36617623704583,166.9446710701192,0.568023502295243,-0.01984479812119834,-0.03313706227616395,-0.6019242820799465,-0.46766334301913615,-42.11591809061515,0.48881980544047754,36,1762115209.1081512
0.4385654032230377,0.1879623979330063,-0.09075425565242767,0.9992268085479736,0.47033819556236267,0.24859334528446198,-0.19900618493556976,0.9999343156814575,0.4732210636138916,0.24424192309379578,0.04384131357073784,0.9989879131317139,0.4801637530326843,0.4538925886154175,-0.07253087311983109,0.9993628263473511,0.4803822934627533,0.44983723759651184,0.07238707691431046,0.9983110427856445,0.4728419780731201,0.5750471353530884,0.032397281378507614,0.9629302620887756,0.47302621603012085,0.5580841898918152,0.1710623949766159,0.814258337020874,0.4909455180168152,0.6694055199623108,0.14557312428951263,0.9658454656600952,0.4875349998474121,0.6556284427642822,0.2947135269641876,0.8559275269508362,0.45887309312820435,0.4511059522628784,-0.1501559615135193,0.9325175881385803,0.4736289381980896,0.42469894886016846,0.041104644536972046,0.3461495637893677,-177.63268384809754,0.4802730232477188,0.45186491310596466,166.63159901993802,167.57802084480042,0.5695851996858214,-9.31214989632289e-05,-0.03973165534102917,0.36627216131781437,-0.12228915555252363,-56.47506143396454,0.5208382502016847,37,1762115209.1620774
0.439718097448349,0.17715612053871155,-0.012124497443437576,0.9990708231925964,0.4589356482028961,0.24446436762809753,-0.1651328057050705,0.9999286532402039,0.47933951020240784,0.2427029013633728,0.04919292777776718,0.9989414811134338,0.4740560054779053,0.45281463861465454,-0.06845978647470474,0.9993665814399719,0.48168572783470154,0.44801193475723267,0.0682990550994873,0.998246431350708,0.46667665243148804,0.5751785039901733,0.05961344391107559,0.9599713683128357,0.4759651720523834,0.5578458309173584,0.17846812307834625,0.7821820974349976,0.483992338180542,0.67829829454422,0.149624302983284,0.9630213379859924,0.48730722069740295,0.6558033227920532,0.29960912466049194,0.8248401880264282,0.449317991733551,0.4505625367164612,-0.12827149033546448,0.9249138832092285,0.4773334562778473,0.4259781837463379,0.06827815622091293,0.31557679176330566,-177.5821481753278,0.4778708666563034,0.4504132866859436,169.0842864133752,171.3414849062029,0.5460338139522936,-0.021446139732098194,-0.012959930736336178,-0.19063695279749618,0.23901445425886864,-4.93411354336705,0.6094465031369848,38,1762115209.2740862
0.44873085618019104,0.1623486876487732,0.019947804510593414,0.9985623359680176,0.4504536986351013,0.2397829294204712,-0.12452465295791626,0.999809205532074,0.4839225709438324,0.23586788773536682,0.006141954101622105,0.998760998249054,0.4741964340209961,0.44917425513267517,-0.04193383455276489,0.9992938041687012,0.48138388991355896,0.44620010256767273,0.041827138513326645,0.9980787634849548,0.46835070848464966,0.567082941532135,0.04934040829539299,0.9496287703514099,0.47550326585769653,0.5538477897644043,0.13258951902389526,0.7717431783676147,0.47194376587867737,0.6714479327201843,0.1586243212223053,0.955328643321991,0.4798022210597992,0.6550057530403137,0.25063762068748474,0.8186920881271362,0.45189279317855835,0.4452657401561737,-0.08535660058259964,0.8746798038482666,0.4749506115913391,0.42639023065567017,0.00325087015517056,0.29870545864105225,-177.10792763381232,0.4777901619672775,0.44768717885017395,170.68312459876003,169.90040832845486,0.5345310972923816,-0.0009892020631511273,-0.03341406215754175,0.2507418737638345,-0.2507074774221956,-6.671887759718162,2.686093301398521,39,1762115209.355672
0.4577414095401764,0.15876011550426483,0.04835234954953194,0.9984312057495117,0.43680891394615173,0.23765374720096588,-0.08337143063545227,0.9997243881225586,0.4904358386993408,0.23658260703086853,-0.06067889183759689,0.9982272982597351,0.4681161046028137,0.4490817189216614,-0.012845729477703571,0.9993491768836975,0.4840505123138428,0.4459910988807678,0.012750433757901192,0.9981977939605713,0.4657384753227234,0.565938413143158,0.13495275378227234,0.9515904784202576,0.48179659247398376,0.5473352074623108,0.17133155465126038,0.7815407514572144,0.4671090245246887,0.6792337894439697,0.2745831608772278,0.9575676918029785,0.4807364344596863,0.6508541703224182,0.3417448401451111,0.8281985521316528,0.4564780592918396,0.4428405463695526,-0.06623376905918121,0.8035731315612793,0.48385849595069885,0.40513336658477783,-0.04608054459095001,0.27176961302757263,-176.61091175026198,0.47608330845832825,0.4475364089012146,178.5637256981315,178.5780945436456,0.5692866417028095,-0.02052801322452444,-0.0018132824462502796,-0.23498968822407346,0.3800567655146974,-1.1442694442012893,79.77774423541801,40,1762115209.4388194
0.4613524079322815,0.15638257563114166,0.050014249980449677,0.9984839558601379,0.4298683702945709,0.23790980875492096,-0.09589129686355591,0.999721348285675,0.49434176087379456,0.23801441490650177,-0.0637488067150116,0.9980937242507935,0.4669433534145355,0.4499998390674591,-0.017771180719137192,0.9994021058082581,0.4861750602722168,0.4459899961948395,0.017692819237709045,0.9983083009719849,0.4645729660987854,0.5667045712471008,0.14618219435214996,0.9552075862884521,0.48584675788879395,0.5453870892524719,0.19514279067516327,0.794450044631958,0.46694493293762207,0.6859264373779297,0.2987763285636902,0.9607852697372437,0.482045978307724,0.650776743888855,0.3742922842502594,0.8401114344596863,0.4372720718383789,0.444762259721756,-0.05357246473431587,0.767120361328125,0.4869425296783447,0.4033201038837433,0.052604448050260544,0.25163599848747253,-176.06319782507168,0.47655920684337616,0.4479949176311493,177.06752481374807,178.407166876831,0.5868379288693139,0.00609228019948846,0.005869664080479065,0.34078343534483485,0.09835432199209798,0.09296061031911308,20.20409915644552,41,1762115209.5169344
0.4619522988796234,0.15682202577590942,0.058658529072999954,0.998579204082489,0.4294516146183014,0.23827171325683594,-0.0921299010515213,0.9997265934944153,0.4952908456325531,0.23825742304325104,-0.05523021146655083,0.9980374574661255,0.466317743062973,0.45212191343307495,-0.020232943817973137,0.9994553923606873,0.48824542760849,0.4464840292930603,0.020175546407699585,0.9984315037727356,0.46290698647499084,0.5699411034584045,0.13707087934017181,0.9591031074523926,0.4879124164581299,0.5448046326637268,0.20612914860248566,0.8091451525688171,0.4666005074977875,0.693041205406189,0.2779706120491028,0.9641899466514587,0.48534050583839417,0.6504624485969543,0.3878761827945709,0.852713406085968,0.4385647773742676,0.44487321376800537,-0.04517055302858353,0.7352078557014465,0.4883025586605072,0.4016149640083313,0.06190953776240349,0.2343316674232483,-175.95863516478767,0.4772815853357315,0.4493029713630676,175.17636348390556,177.58540787970324,0.5835841227709211,0.010798844511608346,0.01955411050204224,0.07035848482247709,0.204568949238875,-0.012435882091648334,26.540080386735152,42,1762115209.5838284
0.4640420377254486,0.15614691376686096,0.09236985445022583,0.998684287071228,0.4256199896335602,0.23871144652366638,-0.04877414181828499,0.9997459650039673,0.4951861500740051,0.23984955251216888,-0.04552655667066574,0.9981846809387207,0.4643995761871338,0.4480210244655609,-0.008537881076335907,0.999505877494812,0.48672786355018616,0.44100823998451233,0.008444160223007202,0.9985665082931519,0.463373601436615,0.5697110295295715,0.12253975868225098,0.9613608121871948,0.48911866545677185,0.5437771081924438,0.18589915335178375,0.8145232796669006,0.46831250190734863,0.691985547542572,0.24547238647937775,0.964655339717865,0.4854750633239746,0.6556006669998169,0.3757219910621643,0.8547118306159973,0.43165358901023865,0.44227927923202515,-0.0159892737865448,0.7082432508468628,0.49718642234802246,0.404735267162323,0.07505860924720764,0.22927972674369812,-175.77523286598017,0.47556371986866,0.4445146322250366,177.18101915184985,178.2864400119325,0.5619127320508942,-0.02253619584697813,-0.06281687982259422,-0.4373130565158176,-1.080601947968635,0.9372783056119522,23.372650024347063,43,1762115209.6600554
0.46716946363449097,0.15276658535003662,0.09037347137928009,0.9988018870353699,0.4238221049308777,0.2386024445295334,-0.03975427895784378,0.9997668266296387,0.49682387709617615,0.24073755741119385,-0.04721876606345177,0.9983352422714233,0.46234774589538574,0.4442973732948303,-0.002259410684928298,0.9995532035827637,0.4870619773864746,0.4368440806865692,0.002158215967938304,0.9986979365348816,0.4619112014770508,0.5708798766136169,0.1351630985736847,0.9643946290016174,0.49009713530540466,0.5441722273826599,0.18472127616405487,0.8274430632591248,0.4686063826084137,0.6907095313072205,0.2560836374759674,0.9669045805931091,0.4861152768135071,0.6609106063842773,0.34725433588027954,0.8643380999565125,0.4290336072444916,0.442366361618042,-0.00998985767364502,0.7054003477096558,0.5012838840484619,0.40727752447128296,0.08046630769968033,0.2390991896390915,-175.9053548479104,0.4747048616409302,0.44057072699069977,176.79499157739508,174.39485850476734,0.5642022193817017,-0.011075042119632053,-0.05085695773279551,0.1477924483595558,0.1542241042996799,1.6752756749832305,10.593120992969853,44,1762115209.7376044
0.4690627455711365,0.15078066289424896,0.09199594706296921,0.9988837242126465,0.4240495562553406,0.2364087849855423,-0.039722319692373276,0.9997817873954773,0.4967123568058014,0.23843437433242798,-0.047136224806308746,0.998462438583374,0.4626401364803314,0.44047626852989197,-0.0030550549272447824,0.9995921850204468,0.48674139380455017,0.43415147066116333,0.0029691033996641636,0.998802661895752,0.462042897939682,0.5720212459564209,0.12054338306188583,0.9662306308746338,0.48867982625961304,0.5494752526283264,0.14934346079826355,0.8361344337463379,0.46930718421936035,0.6925626397132874,0.24436381459236145,0.9673094749450684,0.4861263334751129,0.6691737771034241,0.29123884439468384,0.8696523904800415,0.4291393756866455,0.4402037262916565,-0.013572094030678272,0.7000640630722046,0.5057714581489563,0.4137672781944275,0.05519840121269226,0.25842490792274475,-175.90531810352618,0.4746907651424408,0.43731386959552765,176.3304226447011,177.5962756814688,0.5585474289140594,-0.00014527169800194597,-0.033563597676635644,0.11263692959764922,0.1782170076781874,1.5967960332144284,6.072750111589033,45,1762115209.8346398
0.476545512676239,0.15301667153835297,0.0683903694152832,0.9989833831787109,0.42441803216934204,0.23644965887069702,-0.046409767121076584,0.9997969269752502,0.49737349152565,0.23827844858169556,-0.06396204978227615,0.9986010193824768,0.45806950330734253,0.4398548901081085,-0.0027351791504770517,0.9996302127838135,0.49075016379356384,0.4337444305419922,0.0025640875101089478,0.998911440372467,0.4610139727592468,0.5702366828918457,0.11361614614725113,0.9690091013908386,0.49539631605148315,0.5490163564682007,0.15387891232967377,0.8482936024665833,0.46654367446899414,0.6942821741104126,0.2221957892179489,0.9697986841201782,0.49123650789260864,0.6676591634750366,0.2972323000431061,0.8799235224723816,0.4282524585723877,0.43902748823165894,-0.003236522199586034,0.7013609409332275,0.5163607597351074,0.4292435050010681,-0.006642899010330439,0.3207637071609497,-176.12347343065528,0.4744098335504532,0.43679966032505035,178.79893324553996,176.43491981491104,0.5615564699681603,-0.0027875527850392116,-0.005102258075963142,-0.026218119332595432,0.2824085604202909,1.4359445359494214,19.701341542657534,46,1762115209.9354205
0.47823038697242737,0.1542889028787613,0.058886945247650146,0.9990706443786621,0.424724280834198,0.23646961152553558,-0.04264257848262787,0.9998089671134949,0.497486412525177,0.2382880300283432,-0.07375456392765045,0.9987266659736633,0.4568327069282532,0.4393649995326996,0.0030157379806041718,0.9996635317802429,0.49191299080848694,0.43385598063468933,-0.0032076823990792036,0.9990071654319763,0.46061691641807556,0.5698011517524719,0.11583318561315536,0.9710884094238281,0.4976089596748352,0.5492441654205322,0.15250271558761597,0.8586445450782776,0.4657054543495178,0.6952502727508545,0.2203993797302246,0.9717247486114502,0.49319735169410706,0.6673927307128906,0.28825318813323975,0.8890566229820251,0.42744168639183044,0.43746545910835266,0.006167620420455933,0.6977787613868713,0.5175111293792725,0.43498915433883667,-0.021808089688420296,0.3788796067237854,-176.1901079345663,0.47437284886837006,0.43661049008369446,178.7341271755697,174.53062076957409,0.562104426454132,-0.000435536401156751,-0.002227693236375888,0.027697649232062613,0.033851247451891456,1.4315966379462701,39.08356723614136,47,1762115210.020338
0.48419803380966187,0.157240629196167,0.04893661290407181,0.999132513999939,0.4263523519039154,0.23654066026210785,-0.023057637736201286,0.9998067021369934,0.4974665641784668,0.2386980652809143,-0.10605011135339737,0.9988452792167664,0.45776790380477905,0.4400794506072998,0.02242599055171013,0.9996860027313232,0.49227961897850037,0.43434879183769226,-0.02264915034174919,0.9990841746330261,0.45931148529052734,0.5704964399337769,0.13764697313308716,0.9704357385635376,0.4988889694213867,0.5553764700889587,0.12658359110355377,0.8682805299758911,0.46588292717933655,0.6949428915977478,0.2540295720100403,0.9718747138977051,0.49259382486343384,0.6768733859062195,0.2633262276649475,0.8972268104553223,0.431043803691864,0.43766483664512634,0.0211323332041502,0.6629586815834045,0.5188556909561157,0.44584131240844727,-0.025276759639382362,0.433643102645874,-176.240804369264,0.4750237613916397,0.43721412122249603,177.60359951885272,175.27041540574197,0.5687752994898903,0.0077007533981897,0.007141381333438638,0.09625803634295278,0.1108427480684725,1.7376597155009794,94.24670592488822,48,1762115210.104864
0.49114909768104553,0.16280126571655273,0.020827019587159157,0.9991922378540039,0.42842140793800354,0.23715440928936005,-0.007951723411679268,0.9998030066490173,0.4966578483581543,0.2389851063489914,-0.12087041139602661,0.9989556670188904,0.4574902653694153,0.44200998544692993,0.03348947688937187,0.9997056126594543,0.4916447699069977,0.4379187226295471,-0.03369645029306412,0.9991553425788879,0.45861387252807617,0.5709976553916931,0.1409173607826233,0.9655312299728394,0.50169438123703,0.5593929290771484,0.10895320028066635,0.8763517141342163,0.46484941244125366,0.69382643699646,0.25165265798568726,0.9701451659202576,0.4922030568122864,0.6804011464118958,0.24348723888397217,0.9046928882598877,0.4416564106941223,0.4306288957595825,0.04330277070403099,0.6098884344100952,0.5192173719406128,0.45199427008628845,-0.03283422812819481,0.48250946402549744,-176.59062826037984,0.4745675176382065,0.4399643540382385,177.09584267220347,173.71637311260594,0.571380186357237,-0.00522541403274033,0.03149874390726759,-0.1480449346974306,0.27896777377458887,1.536804368377468,7.384091518284751,49,1762115210.1921763
0.4969037175178528,0.16547571122646332,0.000500054273288697,0.9992308020591736,0.43072310090065,0.23725202679634094,0.023537734523415565,0.99978107213974,0.49638447165489197,0.23930774629116058,-0.13563700020313263,0.9990570545196533,0.458810955286026,0.44471821188926697,0.050055839121341705,0.9997034072875977,0.49243101477622986,0.44317182898521423,-0.05028373748064041,0.999214768409729,0.4592883586883545,0.5709310173988342,0.15556834638118744,0.9545122385025024,0.5047547817230225,0.5626881718635559,0.07347327470779419,0.8855815529823303,0.4645414352416992,0.6936540603637695,0.2604261636734009,0.9661137461662292,0.49200883507728577,0.6828985214233398,0.20179548859596252,0.9122857451438904,0.45781993865966797,0.43187230825424194,0.05641885846853256,0.5569872260093689,0.5182157754898071,0.4503689706325531,-0.05825585126876831,0.5266237258911133,-176.6420765267029,0.47562098503112793,0.4439450204372406,178.12687180628134,171.69809984542468,0.5717069164173514,0.01097386897606819,0.04146622078063997,0.16874638022912947,0.1038302523318198,1.7932246740214521,3.2201221914723592,50,1762115210.2881742
0.500889003276825,0.16469326615333557,-0.03465670347213745,0.9992846250534058,0.44137588143348694,0.23431144654750824,0.03153716027736664,0.9997618198394775,0.49510812759399414,0.23950129747390747,-0.1591203361749649,0.9991487264633179,0.46023860573768616,0.445120245218277,0.057096101343631744,0.9997073411941528,0.492241233587265,0.4457249939441681,-0.0572834312915802,0.9992704391479492,0.46200069785118103,0.5701643228530884,0.16384582221508026,0.9383514523506165,0.5053655505180359,0.5646185874938965,0.07542312145233154,0.8942769169807434,0.4652478098869324,0.6884564757347107,0.2722282409667969,0.9616925120353699,0.49182724952697754,0.6814860105514526,0.21901321411132812,0.9194285869598389,0.46551284193992615,0.43223026394844055,0.05340270325541496,0.5071987509727478,0.5196108818054199,0.4489085376262665,-0.08761246502399445,0.5677332282066345,-177.80342174227061,0.4762399196624756,0.44542261958122253,177.8591670931007,171.16625113767114,0.5913917483745654,0.007785391893715605,0.018586273598344555,-0.04010689073286381,-0.28779994897656397,5.516929358151566,1.5540208546567964,51,1762115210.3676736
0.5018631219863892,0.16397739946842194,-0.03230663761496544,0.9993258118629456,0.4442458748817444,0.23315756022930145,0.035092517733573914,0.9997349977493286,0.49415841698646545,0.2395382821559906,-0.15944579243659973,0.9992307424545288,0.46070727705955505,0.4455914795398712,0.058391958475112915,0.9997084140777588,0.49210071563720703,0.44701096415519714,-0.05858383700251579,0.9993181824684143,0.46335500478744507,0.5682051777839661,0.16558794677257538,0.924282968044281,0.5053650140762329,0.5645670294761658,0.07387275248765945,0.9021255373954773,0.46540990471839905,0.6853262782096863,0.2756619155406952,0.9572502970695496,0.4917658269405365,0.6810869574546814,0.21995079517364502,0.9257748126983643,0.4657468795776367,0.43165290355682373,0.057187698781490326,0.4627085328102112,0.5206197500228882,0.44944143295288086,-0.09451192617416382,0.6041028499603271,-178.03540165642454,0.47640399634838104,0.4463012218475342,177.86945010627005,171.02331381828054,0.5904269705760579,0.0019606928363039614,0.010499170921274559,-0.06960431734996207,-0.0966397157395194,7.285066505326226,1.2474746707007411,52,1762115210.4513566
0.5047160387039185,0.16188161075115204,-0.07714121788740158,0.9993689656257629,0.4541557729244232,0.2329566329717636,0.03425134718418121,0.9996878504753113,0.4885551333427429,0.2392510026693344,-0.1820966601371765,0.9993035197257996,0.4642479419708252,0.44947150349617004,0.06365898996591568,0.9996842741966248,0.4916051924228668,0.45172661542892456,-0.06381092965602875,0.9993467330932617,0.4685665965080261,0.5678874850273132,0.18673387169837952,0.8959163427352905,0.5059303641319275,0.5675667524337769,0.06663105636835098,0.908807098865509,0.46523961424827576,0.6819586157798767,0.31693440675735474,0.9482783079147339,0.4916641116142273,0.681320071220398,0.22374871373176575,0.9312262535095215,0.4763045310974121,0.4348513185977936,0.03382527455687523,0.41939857602119446,0.5196152329444885,0.4502425193786621,-0.12263979017734528,0.633882462978363,-178.2452786234378,0.477926567196846,0.4505990594625473,176.2766645941227,169.4234384431277,0.6257652824979102,0.014941344788296097,0.04217568838570657,0.12738218164830836,0.3108490942183252,10.369229664536062,0.7469197366646395,53,1762115210.5532598
0.5069517493247986,0.16176676750183105,-0.10517914593219757,0.999400794506073,0.4652937054634094,0.23411314189434052,0.02407173439860344,0.9996025562286377,0.48180851340293884,0.2397911101579666,-0.19580423831939697,0.9993649125099182,0.4715506136417389,0.45623812079429626,0.06420795619487762,0.9996189475059509,0.4915444850921631,0.4570402503013611,-0.0643346831202507,0.99934321641922,0.4747993052005768,0.5685897469520569,0.18713727593421936,0.8639072775840759,0.5058833956718445,0.57563716173172,0.0589771568775177,0.9139186143875122,0.46529895067214966,0.6796555519104004,0.3203665316104889,0.9381281137466431,0.491513192653656,0.6819911003112793,0.21414633095264435,0.9360049962997437,0.4809139668941498,0.4447448253631592,0.012894600629806519,0.37962785363197327,0.5184060335159302,0.45560213923454285,-0.141071155667305,0.6548491716384888,-177.91539801800508,0.481547549366951,0.4566391855478287,174.98833241894738,166.83490299273473,0.6394863766514138,0.04951326221897658,0.08259260406342914,0.47273594089762166,0.5526603694862503,18.973519892402816,0.6699273773379599,54,1762115210.6263914
0.5067771673202515,0.16682766377925873,-0.11002330482006073,0.9993590712547302,0.47217029333114624,0.24226611852645874,0.02182590216398239,0.9993836879730225,0.4775846600532532,0.2466634064912796,-0.19528141617774963,0.9994167685508728,0.47751253843307495,0.464976042509079,0.06493348628282547,0.9995037913322449,0.49012550711631775,0.46777111291885376,-0.06502792984247208,0.999331533908844,0.4809511601924896,0.5721447467803955,0.18974639475345612,0.8258554935455322,0.5046665072441101,0.5881179571151733,0.059593044221401215,0.9183340668678284,0.46557626128196716,0.674835205078125,0.3249027132987976,0.9216039776802063,0.4879540503025055,0.6843523383140564,0.21227875351905823,0.9398990869522095,0.4832777976989746,0.4532526731491089,-0.0008219850133173168,0.3436514437198639,0.5181821584701538,0.4634488523006439,-0.15825441479682922,0.6687806844711304,-177.69258440543456,0.48381902277469635,0.46637357771396637,172.75146218800595,164.49717605837094,0.6381053143550803,0.029326165382058164,0.12567718978551554,-0.26062825054628985,0.5562493850885576,39.08184148292421,0.5572904687585958,55,1762115210.703847
0.506430983543396,0.1714710146188736,-0.15928861498832703,0.9993950724601746,0.4793768525123596,0.2480611652135849,0.016060033813118935,0.9990139603614807,0.47474369406700134,0.2531485855579376,-0.20228412747383118,0.9994662404060364,0.48408031463623047,0.4693923890590668,0.06618945300579071,0.9992837309837341,0.48862066864967346,0.4738865792751312,-0.06628286093473434,0.9993090033531189,0.4877869486808777,0.5734395980834961,0.19141241908073425,0.8078064918518066,0.5039007663726807,0.5947409868240356,0.05420036241412163,0.9234937429428101,0.46293002367019653,0.6704956293106079,0.32560139894485474,0.9122112393379211,0.486797034740448,0.6898173093795776,0.1966906487941742,0.9441416263580322,0.4917387366294861,0.4531061351299286,-0.0018215819727629423,0.31242504715919495,0.5155278444290161,0.4678169786930084,-0.1876952350139618,0.6856105923652649,-177.59324028876142,0.48635049164295197,0.471639484167099,169.42827852005993,164.3072983790163,0.6606986314311014,0.033520492243191875,0.06972859853387803,0.05553925737626224,-0.7408443147714258,132.32440133987595,0.4427850425356857,56,1762115210.779367
0.5064149498939514,0.17184267938137054,-0.17186744511127472,0.9994439482688904,0.47969698905944824,0.2507786154747009,0.024881331250071526,0.9987954497337341,0.47359365224838257,0.25587496161460876,-0.19933436810970306,0.999513566493988,0.48493924736976624,0.47040224075317383,0.06877239048480988,0.9991384744644165,0.4867517948150635,0.47443169355392456,-0.06888914853334427,0.9993022084236145,0.4879763722419739,0.5745297074317932,0.19337652623653412,0.7961997985839844,0.5030382871627808,0.594285786151886,0.056598205119371414,0.9284672141075134,0.4626336097717285,0.6705479025840759,0.3275073766708374,0.9071395993232727,0.4861655831336975,0.6908484697341919,0.20407052338123322,0.9481406211853027,0.4918326437473297,0.45221105217933655,-0.006086247973144054,0.2847219705581665,0.5138816833496094,0.46873441338539124,-0.17043718695640564,0.7018882632255554,-177.59540505435277,0.48584552109241486,0.4724169671535492,169.29277699516678,164.94190063368538,0.6719390075286648,-0.007731986989234358,0.011904631525917489,-0.6316479888966121,-0.8853866034284934,140.13778724807204,0.43584806012202376,57,1762115210.8446763
0.5060582160949707,0.17236171662807465,-0.20725998282432556,0.9994972944259644,0.4863266050815582,0.25188425183296204,0.01801696978509426,0.9987462162971497,0.4699374735355377,0.2572171986103058,-0.2017325907945633,0.999560534954071,0.48993903398513794,0.4708782136440277,0.06815816462039948,0.9991424083709717,0.48468026518821716,0.4756523668766022,-0.06828015297651291,0.9993442296981812,0.49449771642684937,0.5758509039878845,0.20500223338603973,0.7817206978797913,0.5024642944335938,0.5990705490112305,0.06519132107496262,0.9340804815292358,0.47298330068588257,0.6716256737709045,0.3446575701236725,0.8981318473815918,0.4857408106327057,0.6945847868919373,0.21375751495361328,0.9514318704605103,0.4976752698421478,0.4510904848575592,-0.025486689060926437,0.26147934794425964,0.5094768404960632,0.4690457284450531,-0.18554982542991638,0.7261983156204224,-177.5971877644466,0.48730964958667755,0.47326529026031494,170.7197692903785,165.12577356841078,0.7058486204596691,0.021118478066495177,0.01223614798409838,0.41613691412680925,0.004781768183741918,161.97535424132465,0.48000179854470454,58,1762115210.9140055
0.5053420662879944,0.1726808398962021,-0.23449864983558655,0.9995462894439697,0.49124646186828613,0.2509787678718567,0.0041410187259316444,0.9986668229103088,0.4670426845550537,0.2577749788761139,-0.21685460209846497,0.9996036291122437,0.49835291504859924,0.468798965215683,0.06877583265304565,0.9991716146469116,0.48480644822120667,0.4735524356365204,-0.06891419738531113,0.9993878602981567,0.5054943561553955,0.5740167498588562,0.19980815052986145,0.7766008973121643,0.4983843266963959,0.5982873439788818,0.057302843779325485,0.939433753490448,0.4835178852081299,0.6688188910484314,0.3348969519138336,0.8908523321151733,0.4858970046043396,0.6951802968978882,0.19663813710212708,0.9538872838020325,0.5029255151748657,0.450717031955719,-0.015148473903536797,0.24055525660514832,0.5053658485412598,0.4685778319835663,-0.21868586540222168,0.7516599893569946,-176.71723576337584,0.49157968163490295,0.4711757004261017,169.31090557415214,166.93570953321435,0.7142112054967134,0.04071448300476485,-0.019924105681446185,0.18684665618658441,-0.30664596576948727,164.31571814161433,0.7215913128153391,59,1762115211.018883
0.504517674446106,0.17221775650978088,-0.261050283908844,0.9995890855789185,0.4957301616668701,0.250182569026947,-0.008416738361120224,0.9985368847846985,0.4654200077056885,0.2583405077457428,-0.229549840092659,0.9996423721313477,0.5038861036300659,0.46760857105255127,0.06681619584560394,0.9991940855979919,0.4849702715873718,0.4736110270023346,-0.06694498658180237,0.9994261264801025,0.5108983516693115,0.5732539296150208,0.2004454880952835,0.7656397819519043,0.4948250651359558,0.5988025665283203,0.0618489608168602,0.9424399137496948,0.4940955638885498,0.6624270677566528,0.3485507369041443,0.876849889755249,0.4860251843929291,0.6940428614616394,0.21243539452552795,0.9526447653770447,0.5078698396682739,0.444579154253006,-0.012934727594256401,0.22086688876152039,0.5022686719894409,0.46775734424591064,-0.23255839943885803,0.7746323943138123,-176.33626716563052,0.49442818760871887,0.47060979902744293,169.24815404507987,166.70647386141903,0.7413040050791789,0.029882421207702525,-0.005936622254681517,-0.11363438804169333,0.1467365261777582,164.93589602296228,1.082076333819289,60,1762115211.1162927
0.5037888884544373,0.17208725214004517,-0.270479291677475,0.9996281862258911,0.5016210079193115,0.24988988041877747,-0.02111802063882351,0.9983997344970703,0.46446236968040466,0.2584470212459564,-0.22738447785377502,0.9996772408485413,0.5069333910942078,0.4636193513870239,0.06435749679803848,0.9992312788963318,0.4850541055202484,0.4728125333786011,-0.06449120491743088,0.9994688630104065,0.5156704187393188,0.5709357261657715,0.19560818374156952,0.7640970349311829,0.4931755065917969,0.597471296787262,0.05950847268104553,0.9466084241867065,0.500613808631897,0.6592981815338135,0.33795592188835144,0.874148964881897,0.48633861541748047,0.6930553317070007,0.21480020880699158,0.9552591443061829,0.5126106142997742,0.4401445984840393,-0.017561614513397217,0.20463025569915771,0.4975954592227936,0.46733999252319336,-0.24386215209960938,0.7961215376853943,-176.53724228470927,0.4959937483072281,0.4682159423828125,169.00660573852053,165.6348934889023,0.743818222924748,0.020221159975487405,-0.030919630401778704,-0.12478718271838785,-0.32268656519827893,167.0316341246751,1.183079513979662,61,1762115211.1916287
0.5033540725708008,0.17154283821582794,-0.2685821056365967,0.9996635913848877,0.5022711157798767,0.2485877424478531,-0.0215852539986372,0.9982664585113525,0.4644874632358551,0.2578492760658264,-0.22478635609149933,0.9997087717056274,0.5079696178436279,0.460491806268692,0.06369803845882416,0.9992619752883911,0.4852483868598938,0.47229820489883423,-0.06383621692657471,0.9995085597038269,0.515708863735199,0.5684690475463867,0.1976899355649948,0.762091875076294,0.49274516105651855,0.5971524715423584,0.06267832219600677,0.9506549835205078,0.49881649017333984,0.6520243287086487,0.3509243130683899,0.8702612519264221,0.486421674489975,0.6926985383033752,0.2195754051208496,0.957765519618988,0.5130286812782288,0.4393560588359833,-0.02580469287931919,0.18844619393348694,0.49740439653396606,0.4675888419151306,-0.24620994925498962,0.8154832720756531,-176.44878385389003,0.49660900235176086,0.4663950055837631,166.92649206977634,166.00918884408458,0.7467692753199658,0.006790793112794697,-0.020098372670120972,-0.14823607191845317,0.11943834116803273,166.22720660043004,1.139615173037491,62,1762115211.28223
0.5019674301147461,0.17016254365444183,-0.26056918501853943,0.9996954202651978,0.508135974407196,0.24723048508167267,-0.02815205417573452,0.9981803297996521,0.46341896057128906,0.25747939944267273,-0.21370816230773926,0.9997372031211853,0.5101847648620605,0.4559992551803589,0.06327304244041443,0.99930340051651,0.4853641390800476,0.4686007499694824,-0.06338917464017868,0.999548614025116,0.5176118612289429,0.5666592717170715,0.2014576941728592,0.7749659419059753,0.49030980467796326,0.5925160050392151,0.06402117758989334,0.9550164937973022,0.5050138235092163,0.6454993486404419,0.35057228803634644,0.8783206343650818,0.4865078330039978,0.6910898089408875,0.22138921916484833,0.9611196517944336,0.5165143013000488,0.4367550313472748,-0.032144591212272644,0.17878484725952148,0.4921261668205261,0.46773579716682434,-0.22440698742866516,0.8329232335090637,-176.7294783755501,0.4977744519710541,0.46230000257492065,167.2837759476686,167.5414445188625,0.7395207108257096,0.017131136912417688,-0.060193127218820856,0.15199442551642728,-0.5893594354255409,167.09105093783165,1.4628676516214405,63,1762115211.350261
0.5004608631134033,0.17009060084819794,-0.24611222743988037,0.9997234344482422,0.5145427584648132,0.24695995450019836,-0.02588079869747162,0.9981266260147095,0.46275418996810913,0.2568437457084656,-0.1815282106399536,0.9997624754905701,0.5141304135322571,0.45262908935546875,0.05716167017817497,0.9993262887001038,0.4854047894477844,0.46569380164146423,-0.057319581508636475,0.999578595161438,0.5217927694320679,0.5609015822410583,0.16453780233860016,0.7863017916679382,0.488416850566864,0.5841884613037109,0.04682604968547821,0.9583176374435425,0.5134398937225342,0.64454585313797,0.31654873490333557,0.8853609561920166,0.4864684045314789,0.6859043836593628,0.20409652590751648,0.9635556936264038,0.5220261216163635,0.4336352050304413,-0.028989311307668686,0.17730499804019928,0.4862419068813324,0.4672866463661194,-0.20858259499073029,0.8480880260467529,-176.9291220724695,0.49976760149002075,0.4591614454984665,162.64356566654777,164.10927792646686,0.7082617542051772,0.024485747675869463,-0.03855702540580754,0.09035104576674,0.2657984885938322,169.19509663991346,2.1583577702099945,64,1762115211.4316614
0.4988783895969391,0.17019574344158173,-0.23872950673103333,0.9997463822364807,0.5210039615631104,0.2468072921037674,-0.02219463139772415,0.9980732798576355,0.46284955739974976,0.25658488273620605,-0.1554073542356491,0.999784529209137,0.5167464017868042,0.4527127146720886,0.04887384548783302,0.9993339776992798,0.4855518937110901,0.4644954800605774,-0.04900236427783966,0.9995977282524109,0.5248980522155762,0.5581198930740356,0.13453619182109833,0.8000689148902893,0.48742803931236267,0.5826433897018433,0.03921376168727875,0.9612403512001038,0.5188396573066711,0.6437997221946716,0.2989000380039215,0.8925067186355591,0.48602938652038574,0.6854479312896729,0.20556816458702087,0.9655847549438477,0.5236841440200806,0.4262552559375763,-0.024998527020215988,0.17233188450336456,0.4811705946922302,0.46708792448043823,-0.20527443289756775,0.8605819344520569,-177.44787833584235,0.5011491477489471,0.458604097366333,156.04253123322133,158.42794138992227,0.6967905280927346,0.016304378409861483,-0.0065775682816408415,-0.09655278609886336,0.37740695754881326,170.45603353231445,2.472805815795127,65,1762115211.516396
0.49810710549354553,0.17037276923656464,-0.22787132859230042,0.9997679591178894,0.526497483253479,0.24670620262622833,-0.02665349282324314,0.9981228113174438,0.4631311893463135,0.25640836358070374,-0.13136151432991028,0.9998045563697815,0.5181713700294495,0.4528624713420868,0.03941730037331581,0.9993558526039124,0.485592782497406,0.4625711739063263,-0.03953014314174652,0.999618649482727,0.5242429971694946,0.5590306520462036,0.12640514969825745,0.8130533695220947,0.4865623414516449,0.579383134841919,0.042423050850629807,0.9639909863471985,0.5186206698417664,0.6431629061698914,0.29389339685440063,0.8988460302352905,0.48605674505233765,0.6841829419136047,0.206802099943161,0.9673107862472534,0.5310958623886108,0.4220563769340515,-0.03125970810651779,0.17870143055915833,0.47693657875061035,0.4669607877731323,-0.2028570920228958,0.8722167015075684,-178.0365054425866,0.5018820762634277,0.45771682262420654,155.62785390591287,157.56104550430797,0.6870636322671376,0.008851701162134457,-0.010715766559552193,-0.09000723883893225,-0.04997771785654922,171.29491508604707,2.305979740778767,66,1762115211.599197
0.497811883687973,0.17084859311580658,-0.23116305470466614,0.999787449836731,0.5280633568763733,0.24660086631774902,-0.034414760768413544,0.9982020258903503,0.46348628401756287,0.25640588998794556,-0.13361704349517822,0.9998227953910828,0.5182983875274658,0.4528922140598297,0.03721409663558006,0.9993740916252136,0.48561444878578186,0.461410790681839,-0.03732466325163841,0.9996370673179626,0.5246586203575134,0.559528648853302,0.12320736795663834,0.8246590495109558,0.4864674210548401,0.5781190395355225,0.04166657477617264,0.9664938449859619,0.518855094909668,0.6432004570960999,0.288969486951828,0.9045295715332031,0.48605436086654663,0.6836002469062805,0.20479977130889893,0.9688466191291809,0.5334213376045227,0.4235210418701172,-0.0436338409781456,0.1893383115530014,0.47597670555114746,0.4664996564388275,-0.20091959834098816,0.8829506039619446,-178.27825881877502,0.5019564181566238,0.45715150237083435,155.2651074903638,156.96813241227832,0.6864097749911405,0.0008580326578683779,-0.006524763073604033,-0.09226061293248625,0.04837135167781948,171.36646934537063,1.9881040710388544,67,1762115211.6858392
0.4971252977848053,0.17084819078445435,-0.22094905376434326,0.999804675579071,0.5313517451286316,0.2457248419523239,-0.03360513225197792,0.9983005523681641,0.4639135003089905,0.2563941180706024,-0.10724184662103653,0.9998382925987244,0.5201845765113831,0.4507029950618744,0.03193458542227745,0.9993848204612732,0.4864867627620697,0.4588318169116974,-0.03202233463525772,0.9996488690376282,0.5242847204208374,0.5587540864944458,0.10774700343608856,0.8356767296791077,0.4863066077232361,0.5746695399284363,0.03723561763763428,0.9687565565109253,0.5179203748703003,0.6431030035018921,0.27848631143569946,0.9094519019126892,0.4860101640224457,0.6829875707626343,0.19640491902828217,0.970104992389679,0.5400873422622681,0.4147182106971741,-0.05541305989027023,0.21352484822273254,0.47389644384384155,0.46609216928482056,-0.17507663369178772,0.8915913701057434,-178.39635504062528,0.5033356696367264,0.4547674059867859,151.10901297585048,155.10606062073757,0.6726121315759609,0.01616287484039685,-0.027938234628505334,0.17935108442286635,-0.25093557312299364,171.00985695609552,1.711909743139197,68,1762115211.7711737
0.49717894196510315,0.17072908580303192,-0.23325765132904053,0.9998189806938171,0.5346617698669434,0.24446311593055725,-0.04924091696739197,0.9984014630317688,0.4642879366874695,0.2560197412967682,-0.11169435828924179,0.9998520016670227,0.5224555730819702,0.44729673862457275,0.028463071212172508,0.9994077682495117,0.48787373304367065,0.45350438356399536,-0.028585869818925858,0.9996626377105713,0.5247179269790649,0.5573517680168152,0.10241949558258057,0.8447855114936829,0.48652133345603943,0.5690456032752991,0.03843586519360542,0.9704334139823914,0.5179916620254517,0.6432594060897827,0.2901354134082794,0.9134169816970825,0.4864780902862549,0.6766799092292786,0.21359367668628693,0.970734179019928,0.5442357063293457,0.4053994119167328,-0.07668517529964447,0.2321016788482666,0.47171005606651306,0.4620904326438904,-0.16977296769618988,0.8989758491516113,-178.3717268205644,0.5051646530628204,0.45040056109428406,148.36471226999384,151.67825541216007,0.6890032257094327,0.02290415787132275,-0.054685517315506776,0.08442034443436001,-0.3349532732509708,170.6742578173893,1.680511839291413,69,1762115211.8510275
0.4974195063114166,0.16987504065036774,-0.24894261360168457,0.9998356699943542,0.5385348200798035,0.24409864842891693,-0.06318937242031097,0.9985518455505371,0.46526631712913513,0.2549910247325897,-0.12006044387817383,0.9998633861541748,0.5242165327072144,0.4457576870918274,0.025668662041425705,0.9994579553604126,0.4885581135749817,0.45097312331199646,-0.025844305753707886,0.9996864795684814,0.5256790518760681,0.5577583312988281,0.09772278368473053,0.8542136549949646,0.48683151602745056,0.5682099461555481,0.04144510626792908,0.9715916514396667,0.519182026386261,0.6416566967964172,0.3256721794605255,0.9170818328857422,0.487562358379364,0.6693901419639587,0.25196343660354614,0.9713018536567688,0.5590665340423584,0.40896978974342346,-0.06292084604501724,0.2962193191051483,0.470073938369751,0.45821359753608704,-0.1661662757396698,0.9048715829849243,-178.70723399152382,0.506387323141098,0.4483654052019119,142.89920178901687,145.5103255854361,0.7246213171788726,0.016749408018290193,-0.027879684820772434,-0.0843141730303711,0.36721420905036084,171.54412127385152,1.5556907363614383,70,1762115211.9240253
0.4976876676082611,0.16977441310882568,-0.23346340656280518,0.9998517036437988,0.540790319442749,0.24278026819229126,-0.06423982977867126,0.9986932277679443,0.46650606393814087,0.25335782766342163,-0.1057911068201065,0.9998742341995239,0.5261198282241821,0.44434690475463867,0.019557423889636993,0.9995054602622986,0.48909497261047363,0.44881367683410645,-0.01976030133664608,0.9997121691703796,0.527030348777771,0.5576056838035583,0.10831703990697861,0.8643136620521545,0.48688578605651855,0.5627472400665283,0.04704173281788826,0.973141074180603,0.5204101800918579,0.6388518214225769,0.3229686915874481,0.921296238899231,0.488045871257782,0.6631866097450256,0.23600837588310242,0.972379744052887,0.5669086575508118,0.41014808416366577,-0.05519939213991165,0.3642560839653015,0.46941256523132324,0.4532829225063324,-0.13479404151439667,0.9113298654556274,-178.8574154508792,0.5076074004173279,0.44658029079437256,148.75291815743446,148.34806679498516,0.7033910926706298,0.015438844992321872,-0.022588818895737356,-0.01658385071568308,0.06695056164326521,171.89595977928107,1.4497064125840182,71,1762115212.0030518
0.4988859295845032,0.16959133744239807,-0.22387778759002686,0.9998661875724792,0.5403896570205688,0.24115802347660065,-0.06523509323596954,0.9988211393356323,0.4675471782684326,0.2520565092563629,-0.10595548152923584,0.9998836517333984,0.5266628265380859,0.4426688849925995,0.018205862492322922,0.9995476603507996,0.4895569384098053,0.447323739528656,-0.01840510033071041,0.9997345805168152,0.527802586555481,0.5577890872955322,0.10158991813659668,0.8743322491645813,0.48701485991477966,0.5616669654846191,0.04725074768066406,0.9745851159095764,0.5204246640205383,0.6375331282615662,0.32280677556991577,0.9255462288856506,0.48831647634506226,0.6610562801361084,0.23171453177928925,0.9735364317893982,0.5677938461303711,0.41045477986335754,-0.05190250277519226,0.4261636435985565,0.4685090482234955,0.4515445828437805,-0.1293373703956604,0.9173330068588257,-178.80409729917696,0.5081098824739456,0.44499631226062775,145.66768607672367,148.14499989439423,0.693747172010883,0.007279656596917593,-0.022947724462374877,-0.11820539429387786,-0.0051996071131966744,171.49068727522416,1.3627036079245045,72,1762115212.0720773
0.49917131662368774,0.16928689181804657,-0.25252479314804077,0.9998789429664612,0.5420583486557007,0.2411961704492569,-0.08749424666166306,0.9989355802536011,0.46774500608444214,0.25036928057670593,-0.11363867670297623,0.9998876452445984,0.526807963848114,0.44274765253067017,0.009999939240515232,0.9995840787887573,0.48952800035476685,0.4465577006340027,-0.010139703750610352,0.9997492432594299,0.5270189642906189,0.5579080581665039,0.07998606562614441,0.8847107887268066,0.4863101541996002,0.5593849420547485,0.060152243822813034,0.975813627243042,0.5208772420883179,0.6374938488006592,0.3192523419857025,0.9302465915679932,0.48838645219802856,0.6542765498161316,0.26595789194107056,0.9744788408279419,0.5686711072921753,0.41166314482688904,-0.0743899866938591,0.4802602231502533,0.46800416707992554,0.4489327669143677,-0.13320130109786987,0.9168850183486938,-179.05904009427672,0.5081679821014404,0.4446526765823364,139.66111490301842,146.6211608548445,0.7241148962659946,0.0007255756965824435,-0.004291485288250251,-0.08185046995599075,0.2329879608192477,172.96310467475715,1.6060801960410722,73,1762115212.152151
0.49946027994155884,0.16915689408779144,-0.269450306892395,0.999889075756073,0.5426017045974731,0.24177038669586182,-0.09922611713409424,0.9990359544754028,0.46811380982398987,0.2501240372657776,-0.11429391801357269,0.9998828768730164,0.5264312028884888,0.4428477883338928,0.003486166475340724,0.9996082186698914,0.4893241822719574,0.4471485912799835,-0.0035407221876084805,0.9997467398643494,0.5267900228500366,0.5582304000854492,0.0634312555193901,0.8941419124603271,0.4843346178531647,0.5575345158576965,0.06928060948848724,0.9766143560409546,0.5211858749389648,0.6378416419029236,0.29751139879226685,0.934147834777832,0.48736220598220825,0.6452561020851135,0.28788256645202637,0.9745920896530151,0.567692756652832,0.4125761389732361,-0.10831626504659653,0.5246827006340027,0.46793055534362793,0.4464797079563141,-0.1388687789440155,0.9047127366065979,-179.27468857313335,0.5078776925802231,0.44499818980693817,136.2140444102818,145.160739619634,0.7342934891370329,-0.003847919385881468,0.004579934644034372,-0.06062375353835148,0.1175946985429574,173.60114366165615,1.9545293361470881,74,1762115212.2275918
0.49952563643455505,0.16931115090847015,-0.26967257261276245,0.9998956918716431,0.5430890917778015,0.2434600591659546,-0.10358107089996338,0.9991189241409302,0.46828150749206543,0.25014829635620117,-0.11721771955490112,0.9998795390129089,0.5258800387382507,0.4436090588569641,0.0034751296043395996,0.9996278882026672,0.48844772577285767,0.4474337697029114,-0.003538412507623434,0.9997459053993225,0.5266045928001404,0.558329701423645,0.06609233468770981,0.902167558670044,0.48271092772483826,0.5546579360961914,0.07385975122451782,0.9770814180374146,0.5208268761634827,0.6383067965507507,0.2956041395664215,0.9371025562286377,0.4857674539089203,0.6353421211242676,0.29489806294441223,0.9742002487182617,0.5636588335037231,0.4164063334465027,-0.11314400285482407,0.5549795031547546,0.4670955240726471,0.44655948877334595,-0.14189717173576355,0.8924659490585327,-179.57369082838613,0.5071638822555542,0.44552141427993774,137.8063901452788,145.72984114357152,0.7332950803158756,-0.010930608899468426,0.008012159369706175,-0.10845753606225479,0.05255780819478411,174.8910048268581,1.085919362872498,75,1762115212.2928956
0.4995728135108948,0.16935265064239502,-0.25747206807136536,0.9998997449874878,0.5430563688278198,0.24459978938102722,-0.09325026720762253,0.9991880655288696,0.4685770571231842,0.2501203119754791,-0.10878608375787735,0.9998738169670105,0.5255706906318665,0.4444712698459625,0.0037149544805288315,0.9996421337127686,0.4879634976387024,0.4474656283855438,-0.0037608768325299025,0.999742329120636,0.5262672305107117,0.5575594305992126,0.06207096576690674,0.9091055989265442,0.4822237491607666,0.5523523688316345,0.07523047178983688,0.9773535132408142,0.5208314657211304,0.6380883455276489,0.27626127004623413,0.9393913149833679,0.4833691120147705,0.6302883625030518,0.29165178537368774,0.9735571146011353,0.5611326098442078,0.41928809881210327,-0.10194440186023712,0.5785700082778931,0.4665801525115967,0.44466155767440796,-0.13406875729560852,0.8822166919708252,-179.72583025594417,0.5067670941352844,0.4459684491157532,137.86734017452636,146.6783208080278,0.7135990075607235,-0.005579470365192554,0.006286018888229555,0.07524549588766107,-0.024272273212237162,175.76089944971628,0.44282020838040137,76,1762115212.3640113
0.4995097219944,0.16927343606948853,-0.2528958320617676,0.9999027252197266,0.5430667996406555,0.24476072192192078,-0.09433944523334503,0.9992555379867554,0.468813419342041,0.25006577372550964,-0.10410884767770767,0.9998700022697449,0.5256232619285583,0.4449085593223572,0.001855685142800212,0.9996604919433594,0.48773884773254395,0.447492778301239,-0.0019201856339350343,0.9997444748878479,0.5261291265487671,0.5575274229049683,0.06297843158245087,0.9152668118476868,0.4819590449333191,0.5520048141479492,0.077220618724823,0.9774419665336609,0.5208817720413208,0.6382795572280884,0.27689212560653687,0.9416820406913757,0.4827495515346527,0.6297281980514526,0.2903521656990051,0.9729591608047485,0.560295820236206,0.4203922748565674,-0.09697623550891876,0.6037089824676514,0.46646982431411743,0.44450095295906067,-0.12144508212804794,0.873685359954834,-179.7864409932103,0.5066810548305511,0.4462006688117981,139.14373917157081,147.0642935036999,0.7098107079294725,-0.0009107347455873372,0.0024580689773524528,0.04941903889062006,-0.040519237097640035,175.91343208803082,0.3323483351773954,77,1762115212.4584837
0.49956512451171875,0.1692616045475006,-0.25565457344055176,0.9999042749404907,0.5427728295326233,0.24587871134281158,-0.10183192789554596,0.9993107318878174,0.46883416175842285,0.25007882714271545,-0.10662470012903214,0.9998671412467957,0.5257810354232788,0.4453447163105011,0.00110625138040632,0.9996726512908936,0.4875980317592621,0.4474155008792877,-0.001146618858911097,0.999744176864624,0.5263134241104126,0.5575624108314514,0.057753197848796844,0.9213552474975586,0.48217660188674927,0.5511258244514465,0.08057825267314911,0.9776685833930969,0.5208477973937988,0.638454020023346,0.27489572763442993,0.9440683126449585,0.4821794927120209,0.6284158825874329,0.30378997325897217,0.972524106502533,0.5592206120491028,0.4266401529312134,-0.1229078397154808,0.6151488423347473,0.46596330404281616,0.44410544633865356,-0.12766936421394348,0.8622144460678101,-179.7441252289265,0.5066895335912704,0.4463801085948944,137.18786868881762,147.2595244435257,0.7158790991616256,9.883743552116685e-05,0.0020917405949839912,0.011768645048226063,-0.004270312498559142,176.74878423211757,0.3242747548517887,78,1762115212.5442686
0.4995926320552826,0.16997414827346802,-0.25386935472488403,0.9999092817306519,0.5419369339942932,0.24921396374702454,-0.10629919916391373,0.9993680715560913,0.46853846311569214,0.25054389238357544,-0.10774198919534683,0.9998636841773987,0.5255868434906006,0.44743990898132324,0.0005384856485761702,0.999687910079956,0.4870370328426361,0.44761666655540466,-0.0005825069383718073,0.9997478723526001,0.5261914730072021,0.5559517741203308,0.06630093604326248,0.9265338182449341,0.48227041959762573,0.5502716302871704,0.08418120443820953,0.9775019288063049,0.5206601023674011,0.6383488774299622,0.26783809065818787,0.9462268948554993,0.4814632534980774,0.6295108199119568,0.29140740633010864,0.9719716310501099,0.5549014806747437,0.4359625577926636,-0.12504665553569794,0.6384947896003723,0.46452489495277405,0.44464847445487976,-0.13026030361652374,0.84914231300354,-179.68859605729392,0.5063119381666183,0.44752828776836395,143.41414314079893,150.41915990203492,0.70701546957912,-0.005020700980205678,0.015266774768263146,-0.06807198886406705,0.17518196108698042,178.96195438829892,0.338848162477773,79,1762115212.6194763
