nose_x,nose_y,nose_z,nose_visibility,left_shoulder_x,left_shoulder_y,left_shoulder_z,left_shoulder_visibility,right_shoulder_x,right_shoulder_y,right_shoulder_z,right_shoulder_visibility,left_hip_x,left_hip_y,left_hip_z,left_hip_visibility,right_hip_x,right_hip_y,right_hip_z,right_hip_visibility,left_knee_x,left_knee_y,left_knee_z,left_knee_visibility,right_knee_x,right_knee_y,right_knee_z,right_knee_visibility,left_ankle_x,left_ankle_y,left_ankle_z,left_ankle_visibility,right_ankle_x,right_ankle_y,right_ankle_z,right_ankle_visibility,left_wrist_x,left_wrist_y,left_wrist_z,left_wrist_visibility,right_wrist_x,right_wrist_y,right_wrist_z,right_wrist_visibility,trunk_lateral_inclination,center_mass_x,center_mass_y,left_knee_angle,right_knee_angle,person_height,center_mass_velocity_x,center_mass_velocity_y,center_mass_acceleration_x,center_mass_acceleration_y,body_orientation,torso_leg_ratio,frame,timestamp
0.47575512528419495,0.1750699281692505,-0.17452174425125122,0.9999985694885254,0.5327279567718506,0.2903865575790405,-0.07227502018213272,0.999983549118042,0.4358392655849457,0.2954729199409485,-0.06296376883983612,0.9999618530273438,0.5077268481254578,0.5415424704551697,-0.007481101900339127,0.9998242259025574,0.4552459120750427,0.5422837138175964,0.007278670556843281,0.99985671043396,0.5121229290962219,0.7122854590415955,-0.005090272054076195,0.9922107458114624,0.44665151834487915,0.7215431332588196,-0.021889537572860718,0.9939879179000854,0.5132186412811279,0.8715618848800659,0.1153857484459877,0.9925651550292969,0.4440889358520508,0.885737419128418,0.07905933260917664,0.9924420118331909,0.5480746030807495,0.5551995038986206,-0.08926139026880264,0.989787220954895,0.4183949828147888,0.5556778311729431,-0.08216433227062225,0.9669561982154846,179.3563312946329,0.48148638010025024,0.5419130921363831,143.68289905567045,139.14755065699356,0.7542398732170735,0.0,0.0,0.0,0.0,176.99490397734334,3.808683534633386,0,1762115191.2667174
0.47611522674560547,0.1741710752248764,-0.2072329819202423,0.9999983310699463,0.5341904759407043,0.2898405194282532,-0.0882536843419075,0.9999818205833435,0.43601351976394653,0.29360488057136536,-0.06868951767683029,0.9999586343765259,0.5083743333816528,0.5438821315765381,-0.007115059997886419,0.9998202323913574,0.45539823174476624,0.5427342057228088,0.006939155515283346,0.9998582005500793,0.5123239755630493,0.7144873142242432,0.022615985944867134,0.9919403791427612,0.44660696387290955,0.7215325236320496,-0.007258483674377203,0.9940455555915833,0.513205349445343,0.8720969557762146,0.19467595219612122,0.9921180009841919,0.44386154413223267,0.8864004611968994,0.1107001081109047,0.9923931360244751,0.5480995774269104,0.5551690459251404,-0.13607072830200195,0.9896340370178223,0.4180167615413666,0.5557366013526917,-0.09338653832674026,0.9649705290794373,179.267696650329,0.48188628256320953,0.5433081686496735,142.36211931310177,139.84653941699722,0.7916334073586502,0.005349920738961665,0.018663422864816072,0.07157158198369444,0.24968046534550958,177.80420566911556,3.446555479512318,1,1762115191.3414667
0.4766715466976166,0.17314112186431885,-0.19682803750038147,0.9999980330467224,0.5358207821846008,0.2889934480190277,-0.08571578562259674,0.9999788999557495,0.43714872002601624,0.2911972999572754,-0.06896872818470001,0.9999568462371826,0.5087026953697205,0.5433474779129028,-0.005707082338631153,0.9998111724853516,0.4554690420627594,0.540824830532074,0.005526491440832615,0.9998598098754883,0.5123265385627747,0.7142600417137146,0.025015154853463173,0.9914034008979797,0.4466037154197693,0.7165478467941284,-0.009289697743952274,0.9940875172615051,0.5132611989974976,0.8720749616622925,0.15964685380458832,0.9916901588439941,0.44385260343551636,0.8861819505691528,0.07029934972524643,0.9923340678215027,0.5483860969543457,0.5546072125434875,-0.1188664436340332,0.9893824458122253,0.4181431829929352,0.5551196336746216,-0.09274820238351822,0.9640257358551025,178.99991658907518,0.48208586871623993,0.5420861542224884,149.70848052701035,149.99093561040408,0.7717782201722225,0.0026042557824822285,-0.015945185023876558,-0.0358262020240524,-0.4515827668869482,178.72050486114574,4.838052891984364,2,1762115191.4181051
0.47678104043006897,0.1726844608783722,-0.2064821720123291,0.9999976754188538,0.537466287612915,0.28715234994888306,-0.09712301194667816,0.9999754428863525,0.4391021132469177,0.2899254560470581,-0.07667147368192673,0.9999537467956543,0.5098934769630432,0.5432848334312439,-0.005730058532208204,0.9998008608818054,0.45631352066993713,0.5395479202270508,0.005547401495277882,0.9998601675033569,0.5122421979904175,0.7142395973205566,0.02317771688103676,0.9909847974777222,0.44663339853286743,0.7142884731292725,-0.011371799744665623,0.9941578507423401,0.5132468938827515,0.8719613552093506,0.15994411706924438,0.9913880228996277,0.4436414837837219,0.8859142661094666,0.07209768891334534,0.9923633337020874,0.5485265254974365,0.5547012090682983,-0.12088881433010101,0.9890584945678711,0.41851502656936646,0.5542052388191223,-0.09146931767463684,0.9624897837638855,178.82634536493595,0.4831034988164902,0.5414163768291473,148.66278452495533,148.47232348748736,0.7764050447584295,0.010958054776795342,-0.007212303726752724,0.08995546314079164,0.09403750104247328,178.38513155830293,5.20877991447381,3,1762115191.510971
0.4763999879360199,0.17257490754127502,-0.2577589154243469,0.9999972581863403,0.5383281707763672,0.2860787808895111,-0.12534354627132416,0.9999734163284302,0.4408029615879059,0.28979411721229553,-0.10243508964776993,0.9999508261680603,0.5108475089073181,0.5432974696159363,-0.005888223182410002,0.9997933506965637,0.45710688829421997,0.5395699143409729,0.005705603398382664,0.9998569488525391,0.5117907524108887,0.7143920660018921,0.019300077110528946,0.9908225536346436,0.4466532766819,0.7129554748535156,-0.00917932577431202,0.9942229986190796,0.5128185749053955,0.8719391822814941,0.20032945275306702,0.9912747144699097,0.4426741600036621,0.8853827714920044,0.1230434998869896,0.9923328161239624,0.5486382842063904,0.5550017356872559,-0.12909606099128723,0.9880760908126831,0.4192221164703369,0.554200291633606,-0.10687039792537689,0.9587593078613281,178.73711438052152,0.48397719860076904,0.5414336919784546,139.4062385329477,137.57931390080256,0.821275706883591,0.011036808310067434,0.0002187295764552105,0.0009948356015470534,0.09387079130496324,177.81830564670705,3.7844977396104595,4,1762115191.5901334
0.4740382730960846,0.17223194241523743,-0.2518142759799957,0.9999967217445374,0.5391193628311157,0.28433069586753845,-0.13393914699554443,0.9999716281890869,0.4418094754219055,0.28889578580856323,-0.093043252825737,0.9999427199363708,0.5116302371025085,0.5432774424552917,-0.010592004284262657,0.9997783899307251,0.45804160833358765,0.5392504334449768,0.010422865860164165,0.9998500943183899,0.5117366909980774,0.7146956324577332,0.01764378324151039,0.9906940460205078,0.44593697786331177,0.7108780145645142,-0.010552110150456429,0.994335949420929,0.5126922726631165,0.8719218969345093,0.19742263853549957,0.9912784695625305,0.4425571858882904,0.8823264241218567,0.1262959986925125,0.9924243092536926,0.548677921295166,0.5528478622436523,-0.15086914598941803,0.9877516627311707,0.4197070598602295,0.553334653377533,-0.1024266704916954,0.9526614546775818,178.7338083398347,0.4848359227180481,0.5412639379501343,140.52311021574658,134.37692394856123,0.8173198545786339,0.01031866312182712,-0.002039810687232848,-0.008629428382066573,-0.027139235592828225,177.31405755240766,4.639743212123756,5,1762115191.673354
0.4707973897457123,0.17227774858474731,-0.24652668833732605,0.9999961853027344,0.5392783880233765,0.2820824086666107,-0.1253606379032135,0.9999697208404541,0.44251471757888794,0.28829294443130493,-0.061054736375808716,0.999935507774353,0.5130983591079712,0.5432657599449158,-0.019375819712877274,0.999756395816803,0.45958805084228516,0.5391225814819336,0.019245147705078125,0.9998421669006348,0.5117774605751038,0.7146901488304138,0.011757727712392807,0.9907332062721252,0.4453144967556,0.7091903686523438,-0.003021766897290945,0.994441568851471,0.5126530528068542,0.8707132935523987,0.1786649376153946,0.991317868232727,0.44273772835731506,0.8803497552871704,0.11815667152404785,0.9925563931465149,0.548999011516571,0.5502707958221436,-0.14402207732200623,0.9877486824989319,0.42080068588256836,0.5480044484138489,-0.06065325811505318,0.9477123618125916,178.9810410510315,0.4863432049751282,0.5411941707134247,143.35580263806514,137.10908413542523,0.8065910233479414,0.020235904165933134,-0.0009366547700974665,0.13314317103934842,0.014810336494293162,176.32764984448355,5.346890022855423,6,1762115191.7478395
0.46661606431007385,0.17389222979545593,-0.2624310851097107,0.999995231628418,0.5391124486923218,0.27976301312446594,-0.1690462827682495,0.9999664425849915,0.4438270032405853,0.2882992625236511,-0.06364484131336212,0.9999304413795471,0.5131751894950867,0.5432542562484741,-0.033161766827106476,0.9997318983078003,0.4605988562107086,0.5391218662261963,0.03308985382318497,0.9998367428779602,0.5113908052444458,0.7141970992088318,-0.009933322668075562,0.9906328916549683,0.44509774446487427,0.7047072052955627,-0.005385572090744972,0.994410514831543,0.5126713514328003,0.8694279193878174,0.17469212412834167,0.9912972450256348,0.44502925872802734,0.8737331032752991,0.12541057169437408,0.9926703572273254,0.5491572618484497,0.5504364371299744,-0.1706046164035797,0.9872191548347473,0.4221436381340027,0.5474069118499756,-0.06525824964046478,0.9429360032081604,178.97906012500343,0.48688702285289764,0.5411880612373352,137.78444377597583,128.993509791169,0.8105926056848819,0.006256016884303029,-7.028269413794333e-05,-0.16082297851856497,0.009966642430959304,174.88076170762733,7.549382088618904,7,1762115191.8347666
0.46322140097618103,0.177290141582489,-0.24667152762413025,0.9999938011169434,0.5387552380561829,0.2793055772781372,-0.1774912327528,0.9999613165855408,0.44489675760269165,0.2883601188659668,-0.051331259310245514,0.9999263882637024,0.5130595564842224,0.543430507183075,-0.04301777482032776,0.9996850490570068,0.4606935977935791,0.539049506187439,0.042952269315719604,0.9998259544372559,0.5099875330924988,0.7138028740882874,-0.023758769035339355,0.990387499332428,0.4447353482246399,0.7026494145393372,-0.00042065768502652645,0.9941474199295044,0.5127229690551758,0.8677433729171753,0.14910005033016205,0.9910157918930054,0.44862499833106995,0.8707493543624878,0.12536172568798065,0.9926245808601379,0.5490793585777283,0.5562160611152649,-0.17029640078544617,0.9861398935317993,0.4228951036930084,0.5467392206192017,-0.05790838599205017,0.9359930753707886,178.89845341595517,0.48687657713890076,0.541240006685257,138.10173998598586,128.01016196147154,0.791510625712864,-0.00013387141621826426,0.0006657286118928234,-0.08189228582385245,0.009432660698957962,174.4897191910186,1.4936944047275342,8,1762115191.9127946
0.45998018980026245,0.17718102037906647,-0.2473195344209671,0.9999905228614807,0.5382856130599976,0.2791990041732788,-0.19692926108837128,0.9999592304229736,0.4449227452278137,0.2883090674877167,-0.04018615931272507,0.9999146461486816,0.5113428235054016,0.5445579290390015,-0.05079979822039604,0.9996408820152283,0.4602905213832855,0.5390926599502563,0.05075991153717041,0.9998031854629517,0.5080468654632568,0.7126559615135193,-0.02781081572175026,0.990143358707428,0.44376102089881897,0.7021321654319763,0.013747820630669594,0.993664562702179,0.5125300288200378,0.8666942119598389,0.14516110718250275,0.9906957149505615,0.4527674615383148,0.8672397136688232,0.1519479751586914,0.9923543334007263,0.5482176542282104,0.5632108449935913,-0.1880359947681427,0.9852659702301025,0.42288699746131897,0.5472493767738342,-0.04517596960067749,0.9163680076599121,178.71530004433464,0.48581667244434357,0.5418252944946289,139.4137354950273,126.73464913563922,0.7956348367874225,-0.011903941058178673,0.006573451009899506,-0.1321913337944885,0.06635047431631026,174.4268959094297,0.8579419765298765,9,1762115192.0018327
0.45675763487815857,0.17539681494235992,-0.2448582649230957,0.9999820590019226,0.5365470051765442,0.27869912981987,-0.19946876168251038,0.9999576807022095,0.44475889205932617,0.28831946849823,-0.029323896393179893,0.9998745322227478,0.5092218518257141,0.5451653599739075,-0.053171563893556595,0.9995821714401245,0.4594283998012543,0.5391027331352234,0.05318077281117439,0.9997429251670837,0.5072389841079712,0.7120575904846191,-0.0278344564139843,0.9894533157348633,0.4426957964897156,0.7013608813285828,0.03340133652091026,0.9925982356071472,0.5124011039733887,0.8664872646331787,0.1418711245059967,0.9899075627326965,0.45566481351852417,0.8635050654411316,0.18296460807323456,0.9915429353713989,0.5477103590965271,0.5684985518455505,-0.1950766146183014,0.9836558699607849,0.4232143759727478,0.5480831861495972,-0.043023936450481415,0.8746883273124695,178.59841247899018,0.4843251258134842,0.5421340465545654,140.8857753534798,129.57829254367135,0.8013520162817654,-0.015723057048860605,0.0032546929153252054,-0.040259001867819735,-0.03498450653352677,174.01665836150391,0.6979291935380342,10,1762115192.0966964
0.45253610610961914,0.17357487976551056,-0.24279992282390594,0.9999762177467346,0.5336039066314697,0.27844151854515076,-0.20137479901313782,0.9999571442604065,0.4446529448032379,0.28838828206062317,-0.01707557402551174,0.9998373985290527,0.5064168572425842,0.5453904271125793,-0.05626146122813225,0.9995476007461548,0.45846739411354065,0.5391092300415039,0.05624629184603691,0.9997074604034424,0.5058948397636414,0.7098511457443237,-0.0299140103161335,0.9890879392623901,0.4422387182712555,0.7008451819419861,0.025239229202270508,0.9920498132705688,0.5124213099479675,0.8663135170936584,0.14466513693332672,0.9895052909851074,0.4594039022922516,0.8611624240875244,0.18495680391788483,0.9910781979560852,0.546033501625061,0.5691177248954773,-0.20436158776283264,0.9825352430343628,0.4239644408226013,0.5491420030593872,-0.03603868931531906,0.8382577300071716,178.52024765349515,0.48244212567806244,0.5422498285770416,140.93180951328264,123.44399827733237,0.8022379466130009,-0.021099372725864103,0.0012973594644126118,-0.060242634202251774,-0.02193229158762468,173.61952052659504,0.5643958488926921,11,1762115192.1859407
0.4493955671787262,0.17406469583511353,-0.2309657335281372,0.999971866607666,0.5303913354873657,0.2780909836292267,-0.20761771500110626,0.9999577403068542,0.44460567831993103,0.28890061378479004,-0.017513427883386612,0.9998154044151306,0.503522515296936,0.5454565286636353,-0.05863260477781296,0.9995309710502625,0.45595234632492065,0.5390779972076416,0.05858958885073662,0.9996902346611023,0.502098798751831,0.7090797424316406,-0.04145604744553566,0.9889434576034546,0.4419268071651459,0.7013503909111023,0.015029432252049446,0.9916421175003052,0.5116468667984009,0.8664474487304688,0.13425765931606293,0.9893989562988281,0.4615616798400879,0.8611466884613037,0.16183242201805115,0.9907103776931763,0.54301518201828,0.5708186030387878,-0.21082809567451477,0.9821575284004211,0.4234938621520996,0.5509186387062073,-0.01835319772362709,0.8139633536338806,178.28209943542373,0.47973743081092834,0.5422672629356384,137.75452885988625,121.62069810623488,0.7878860328771525,-0.03385502932091857,0.00021822821075249564,-0.15966426870574132,-0.013507631000348089,172.81815727443072,0.5318548471129457,12,1762115192.2658312
0.44528311491012573,0.17331315577030182,-0.23085594177246094,0.99996018409729,0.5264517068862915,0.27804887294769287,-0.2185603678226471,0.9999552369117737,0.44441333413124084,0.2890365719795227,-0.02275860868394375,0.9997609257698059,0.5004282593727112,0.5454458594322205,-0.05727197974920273,0.9995110630989075,0.4540163576602936,0.539038360118866,0.057233817875385284,0.9996532201766968,0.5012955069541931,0.7094974517822266,-0.03590552881360054,0.9888063073158264,0.441952645778656,0.7016351819038391,0.030290132388472557,0.9912230372428894,0.5109795331954956,0.866374135017395,0.1404433250427246,0.9893019199371338,0.4635035991668701,0.8587286472320557,0.1956639587879181,0.9903892278671265,0.5393348932266235,0.573013961315155,-0.201075479388237,0.9791375994682312,0.42388495802879333,0.5517938137054443,-0.016222156584262848,0.7699323296546936,178.18224286098263,0.4772223085165024,0.5422421097755432,139.03692088736568,123.37196558698554,0.7974576557194151,-0.03237337353464678,-0.0003237586693672129,0.019071118857739246,-0.006976179154341172,172.37156425270513,0.5256725899648608,13,1762115192.3435223
0.44045504927635193,0.17124207317829132,-0.23022302985191345,0.9999408721923828,0.5220001339912415,0.27807945013046265,-0.22162456810474396,0.9999513626098633,0.4442022740840912,0.2898702323436737,-0.01936854049563408,0.9996374249458313,0.4967249929904938,0.5460737347602844,-0.05816615745425224,0.9994741082191467,0.451602041721344,0.5402188301086426,0.05813179537653923,0.9995638728141785,0.4987882077693939,0.7111573815345764,-0.02370966598391533,0.9884579181671143,0.44212260842323303,0.7020884156227112,0.07403837144374847,0.99022376537323,0.5099447965621948,0.8664008975028992,0.15827426314353943,0.9889162182807922,0.4631848931312561,0.8597458004951477,0.24287442862987518,0.9895586371421814,0.5354013442993164,0.5751070380210876,-0.20211204886436462,0.9763594269752502,0.4249914288520813,0.5524605512619019,-0.01639549992978573,0.7189713716506958,178.02490249375276,0.4741635173559189,0.5431462824344635,142.22144637665016,137.819500277606,0.8162983562365943,-0.036343677851588506,0.010743119785838728,-0.047174015319233265,0.13149347055193014,171.3820280855483,0.5547761876485984,14,1762115192.4276853
0.4351326823234558,0.1683092713356018,-0.2211744785308838,0.9999276399612427,0.5182665586471558,0.2779189348220825,-0.22218985855579376,0.9999476671218872,0.44349542260169983,0.2892007827758789,-0.005604716949164867,0.9995603561401367,0.4933280050754547,0.5468325018882751,-0.0608879029750824,0.9994405508041382,0.4487110674381256,0.5418253540992737,0.06086009740829468,0.9994995594024658,0.4962266981601715,0.7129709124565125,-0.011885471642017365,0.9879974722862244,0.4418802261352539,0.7023170590400696,0.09651175141334534,0.9894101023674011,0.509168803691864,0.86641526222229,0.15780065953731537,0.9884749054908752,0.46280747652053833,0.8600701093673706,0.25492730736732483,0.9889093041419983,0.5289114713668823,0.5780667662620544,-0.19448715448379517,0.9749585390090942,0.42796629667282104,0.5405718684196472,0.005086652934551239,0.6782147884368896,177.83428839640146,0.47101953625679016,0.5443289279937744,148.49472496927936,146.53375598858307,0.8175009875181912,-0.03755129311326772,0.01412536165026426,-0.01442359646244014,0.040397048082192764,171.41964605710876,0.5822887274905282,15,1762115192.5114102
0.4302500784397125,0.16849742829799652,-0.20091059803962708,0.9999145269393921,0.5118427276611328,0.27742889523506165,-0.2268732339143753,0.9999485611915588,0.4432079792022705,0.2880949079990387,0.008149434812366962,0.9994379281997681,0.4867575764656067,0.5482770204544067,-0.0645386204123497,0.99942547082901,0.44533205032348633,0.5436251163482666,0.06447871774435043,0.9994004368782043,0.49269479513168335,0.7145599126815796,-0.008358826860785484,0.9871730804443359,0.44137683510780334,0.7027676105499268,0.13463355600833893,0.9863608479499817,0.5073856115341187,0.8675059676170349,0.14470279216766357,0.9875728487968445,0.46199434995651245,0.8598711490631104,0.2814904451370239,0.9861931204795837,0.5230804681777954,0.5780186653137207,-0.1876365691423416,0.9752423763275146,0.4298761487007141,0.5376263856887817,0.032896313816308975,0.6324981451034546,177.50229172932362,0.4660448133945465,0.5459510684013367,153.60721250157147,159.58175128129696,0.8109601628472602,-0.06797421179168757,0.022164795642457373,-0.41569630607231867,0.10985017738740151,171.16674685838126,0.6502652130618608,16,1762115192.5845957
0.42538946866989136,0.1723756343126297,-0.15976709127426147,0.999904990196228,0.5063203573226929,0.2772640287876129,-0.22195379436016083,0.999950647354126,0.44317084550857544,0.28802934288978577,0.022654157131910324,0.9992719888687134,0.4821295142173767,0.5510215759277344,-0.06630467623472214,0.9993823766708374,0.4446876049041748,0.5490875244140625,0.06623614579439163,0.999214231967926,0.48835426568984985,0.7197762131690979,-0.008572472259402275,0.9855577945709229,0.44141602516174316,0.7052419185638428,0.13365110754966736,0.9762380719184875,0.5056849718093872,0.8680159449577332,0.12441916763782501,0.9845260381698608,0.4632388949394226,0.857880175113678,0.26238736510276794,0.975231945514679,0.5166420340538025,0.5778645277023315,-0.16962110996246338,0.9765846729278564,0.4303559362888336,0.5389643311500549,0.0573708601295948,0.5901105403900146,177.57233808487646,0.46340855956077576,0.5500545501708984,156.83984641678109,161.69376387957485,0.7778876093460443,-0.029393039613382743,0.04575196844114348,0.4301626450536507,0.2629863238350718,170.32559292157924,0.5790767519097704,17,1762115192.6742854
0.4222491383552551,0.17960970103740692,-0.1623397171497345,0.9998977780342102,0.49948978424072266,0.2772294282913208,-0.2342909872531891,0.9999536275863647,0.4436238706111908,0.28773316740989685,0.023683272302150726,0.9990715384483337,0.47794923186302185,0.5549814701080322,-0.0678047239780426,0.9993537664413452,0.4437289237976074,0.5539200305938721,0.06771547347307205,0.999090313911438,0.48903387784957886,0.724840521812439,0.0003933990956284106,0.9847116470336914,0.4414554536342621,0.7108736634254456,0.1483985185623169,0.9695117473602295,0.5055848360061646,0.8696845769882202,0.12764400243759155,0.9831141829490662,0.4651315212249756,0.8579515814781189,0.27279502153396606,0.9692599773406982,0.5104657411575317,0.5808579325675964,-0.16731926798820496,0.9783602356910706,0.43607568740844727,0.5399086475372314,0.07182657718658447,0.5427005887031555,177.74326042301706,0.46083907783031464,0.5544507503509521,160.5696783791091,164.87112206864725,0.7768996398423618,-0.03149603566585617,0.05388747311325166,-0.025777976114261355,0.09972289052488205,169.35173385714108,0.5328366470004128,18,1762115192.7558665
0.41834864020347595,0.18237926065921783,-0.16945546865463257,0.9998945593833923,0.49346596002578735,0.2766364514827728,-0.24735160171985626,0.9999555945396423,0.4440714716911316,0.2873796820640564,0.00950806587934494,0.9989006519317627,0.47624334692955017,0.5554965734481812,-0.06692811846733093,0.9992831349372864,0.4440137445926666,0.5552256107330322,0.06683669984340668,0.9989314675331116,0.4874216914176941,0.7245834469795227,0.002476222114637494,0.9844456911087036,0.4417784810066223,0.7138938307762146,0.14574578404426575,0.9627804756164551,0.5056362748146057,0.8697766661643982,0.12414328753948212,0.9821975231170654,0.46678847074508667,0.8607653975486755,0.2622619867324829,0.9634267687797546,0.5012677907943726,0.583929181098938,-0.1737421602010727,0.9798993468284607,0.44250959157943726,0.542695939540863,0.051222365349531174,0.49999091029167175,178.1895919495901,0.4601285457611084,0.5553610920906067,162.29256264942984,165.43058119528436,0.7761878374877086,-0.009429928647143513,0.012081731453794674,0.292853516012513,-0.5548309189337481,167.72935787140997,0.3997619737420309,19,1762115192.8312151
0.41491109132766724,0.18469086289405823,-0.1316376030445099,0.9998950362205505,0.48821765184402466,0.2758605182170868,-0.23480264842510223,0.9999586939811707,0.4457002580165863,0.28349098563194275,0.02591126225888729,0.9987975358963013,0.47090721130371094,0.5565616488456726,-0.06668484956026077,0.9992226958274841,0.44263458251953125,0.5559043288230896,0.06661205738782883,0.998781681060791,0.48359212279319763,0.725676953792572,0.0017412053421139717,0.983730673789978,0.44242119789123535,0.7171581983566284,0.13275378942489624,0.9516269564628601,0.5057100653648376,0.8676567673683167,0.10065484046936035,0.9802709221839905,0.46679893136024475,0.8619264960289001,0.25075680017471313,0.9519047737121582,0.49228835105895996,0.584124743938446,-0.1772838979959488,0.9816176295280457,0.4418719708919525,0.5451987981796265,0.06625543534755707,0.46043869853019714,177.8902418701865,0.4567708969116211,0.5562329888343811,166.80014193357903,161.56234567511464,0.7497245609839338,-0.045383502357312505,0.01178495122635034,-0.48596478380352826,-0.004011415950741935,169.82561149868178,0.43821794490450383,20,1762115192.905199
0.41135531663894653,0.18500308692455292,-0.14527498185634613,0.9998968839645386,0.48505932092666626,0.2747099697589874,-0.2542616128921509,0.9999620318412781,0.4469706416130066,0.2803756296634674,0.01769554242491722,0.9987684488296509,0.46783775091171265,0.5566407442092896,-0.07127588987350464,0.9992398619651794,0.4407939016819,0.5553635358810425,0.07116828113794327,0.9987661838531494,0.48156994581222534,0.7261720299720764,0.0004897632170468569,0.984200656414032,0.4423573911190033,0.7168440818786621,0.15202440321445465,0.9464161396026611,0.5086883306503296,0.8674620985984802,0.09914539754390717,0.980807900428772,0.46636542677879333,0.8620141744613647,0.26990967988967896,0.9486305117607117,0.4839502274990082,0.5851636528968811,-0.20016935467720032,0.9831793904304504,0.4430846571922302,0.5478354692459106,0.05934230610728264,0.42531779408454895,177.5941973566545,0.45431582629680634,0.556002140045166,167.20823987785363,165.8033513722193,0.7593494235906479,-0.030754587512170646,-0.0028918350646014897,0.18325592718112274,-0.18385561118231306,171.5393367760153,0.45763803610995246,21,1762115192.9850268
0.40822944045066833,0.18742404878139496,-0.15382683277130127,0.9998986721038818,0.47842544317245483,0.2737453579902649,-0.266338050365448,0.9999653100967407,0.4474579691886902,0.2759077548980713,0.013118085451424122,0.9987484812736511,0.4618627429008484,0.556431770324707,-0.07478315383195877,0.9992745518684387,0.43833595514297485,0.5551449060440063,0.07465410232543945,0.9987632632255554,0.4732627272605896,0.7265966534614563,-0.001285517355427146,0.9842319488525391,0.44114214181900024,0.7152734398841858,0.1643477976322174,0.9403111338615417,0.5090620517730713,0.8684120774269104,0.09524118155241013,0.9813072681427002,0.464564710855484,0.8616979122161865,0.2901345491409302,0.9442363977432251,0.4749360978603363,0.584524929523468,-0.21817795932292938,0.9845569729804993,0.441607803106308,0.5468308925628662,0.05208761617541313,0.3909921944141388,177.38291427643244,0.4500993490219116,0.5557883381843567,166.41215011541058,167.11020029956182,0.7651350016857924,-0.05827809577475928,-0.002955065214095999,-0.38041652925179614,-0.0008739363378130317,176.00563374976508,0.4336883777505447,22,1762115193.0573778
0.4059165120124817,0.18837116658687592,-0.16053467988967896,0.9999001026153564,0.4732390344142914,0.2714076042175293,-0.28038010001182556,0.9999683499336243,0.447355180978775,0.27250683307647705,0.010652340948581696,0.9987595081329346,0.46205657720565796,0.5536328554153442,-0.07948678731918335,0.9993079304695129,0.4386976361274719,0.5520783066749573,0.07934968918561935,0.9987603425979614,0.46970170736312866,0.7263784408569336,-0.009557785466313362,0.9840016961097717,0.44097763299942017,0.7121922969818115,0.17057350277900696,0.9301284551620483,0.508396327495575,0.8730136156082153,0.08333656936883926,0.9817267656326294,0.4630225598812103,0.8617410659790039,0.2982509732246399,0.9386846423149109,0.4680146276950836,0.5822142362594604,-0.2265164852142334,0.9857009649276733,0.4408317506313324,0.5545154809951782,0.0457567535340786,0.3590613603591919,177.9774247257257,0.45037710666656494,0.5528555810451508,165.54584499141,167.79385281244882,0.7686663627148969,0.00396285461596027,-0.04184255731682427,0.8880109775753336,-0.5548199322281843,177.5682387077882,0.32662984456563926,23,1762115193.127468
0.403129518032074,0.18810036778450012,-0.16382676362991333,0.999900221824646,0.4678588807582855,0.2686387300491333,-0.2887187898159027,0.9999711513519287,0.4477441906929016,0.27141448855400085,0.009490838274359703,0.9987615942955017,0.4600485861301422,0.5517232418060303,-0.08462540805339813,0.99935382604599,0.43911322951316833,0.5497831702232361,0.08445300161838531,0.9987722635269165,0.46731218695640564,0.7340664267539978,-0.011534485034644604,0.9834570288658142,0.44099560379981995,0.7113810181617737,0.1918400526046753,0.9140000343322754,0.5051549673080444,0.8864828944206238,0.081697016954422,0.9822035431861877,0.46300387382507324,0.8602794408798218,0.33069586753845215,0.9297497272491455,0.4600105881690979,0.5803154706954956,-0.23362615704536438,0.9865665435791016,0.4411194920539856,0.554206371307373,0.043823353946208954,0.33057063817977905,178.32266437774345,0.4495809078216553,0.5507532060146332,166.29715377682146,169.06457479758453,0.7829941470227981,-0.010059250021838467,-0.026561601045836686,-0.17715656997719098,0.19306101821848803,172.14300117291444,0.2746936990570523,24,1762115193.206619
0.40132999420166016,0.1873452514410019,-0.15958735346794128,0.9999015927314758,0.46406713128089905,0.26476091146469116,-0.28360095620155334,0.9999737739562988,0.44768422842025757,0.2714024782180786,0.009593075141310692,0.9987993240356445,0.461132675409317,0.5489903688430786,-0.08580045402050018,0.9994017481803894,0.441779762506485,0.547035276889801,0.08561013638973236,0.9988099932670593,0.4656499922275543,0.7368242740631104,-0.01253239344805479,0.9823130369186401,0.44316259026527405,0.7106167078018188,0.19741660356521606,0.8901737332344055,0.5025193691253662,0.9005727767944336,0.074292853474617,0.9824967980384827,0.46443885564804077,0.8600825071334839,0.3379422128200531,0.9166973233222961,0.451105535030365,0.5787217020988464,-0.23816411197185516,0.9873141646385193,0.44069570302963257,0.5454232692718506,0.043631818145513535,0.30935412645339966,179.0955081569952,0.451456218957901,0.5480128228664398,168.05149456229347,169.5487772420566,0.7878534986200062,0.026508398433550597,-0.03873659519685092,0.5169007831809983,-0.17209922643948078,157.93255285393641,0.15200825757825825,25,1762115193.277363
0.39891359210014343,0.18524035811424255,-0.15191514790058136,0.9999004006385803,0.4607310891151428,0.26289111375808716,-0.28543806076049805,0.9999761581420898,0.44759589433670044,0.27140218019485474,0.02255065180361271,0.9988232254981995,0.457157701253891,0.547387421131134,-0.09149851649999619,0.9994474649429321,0.4418788552284241,0.5457245111465454,0.09128741174936295,0.9988467693328857,0.46168485283851624,0.737442672252655,-0.018550002947449684,0.9816328287124634,0.4431731700897217,0.7088097333908081,0.2186986207962036,0.8625847101211548,0.4971124529838562,0.9075981378555298,0.060408808290958405,0.9828974008560181,0.46380615234375,0.8578816056251526,0.3738018870353699,0.899672269821167,0.4423893094062805,0.5774087905883789,-0.257261723279953,0.9881494641304016,0.4396664500236511,0.5431560277938843,0.04950554668903351,0.29241862893104553,179.04753853033736,0.44951827824115753,0.5465559661388397,169.80705565935784,170.3897518935272,0.7933041034597569,-0.026286333119894444,-0.019760883766355562,-0.7161106057574841,0.25738758030079495,147.05842079066448,0.1657152876645383,26,1762115193.3510873
0.39813241362571716,0.18446621298789978,-0.1443059742450714,0.99990314245224,0.45680850744247437,0.2635420560836792,-0.2782086431980133,0.9999783635139465,0.4475691318511963,0.2717446982860565,0.026248633861541748,0.9988637566566467,0.4568125605583191,0.5487687587738037,-0.0912969782948494,0.9994919300079346,0.4424705505371094,0.5467504858970642,0.09106148779392242,0.9988817572593689,0.45650917291641235,0.7443450689315796,-0.016913261264562607,0.981727123260498,0.44271284341812134,0.7101353406906128,0.22134451568126678,0.837398886680603,0.491408109664917,0.9178053140640259,0.0707697868347168,0.9832391142845154,0.460033655166626,0.8577714562416077,0.3749597668647766,0.8792670965194702,0.43122968077659607,0.5813453197479248,-0.24435535073280334,0.9890443682670593,0.42972826957702637,0.5495431423187256,0.0511932298541069,0.28087180852890015,179.4789896625354,0.44964155554771423,0.547759622335434,168.12510897196833,171.1521969771531,0.797180286263713,0.0014704146807566743,0.01435684954101307,0.33107414978575544,0.4069460741034384,138.40159279860669,0.09755568024563462,27,1762115193.4349258
0.39706775546073914,0.18264475464820862,-0.1345948576927185,0.9999037981033325,0.453244149684906,0.2628374695777893,-0.273325651884079,0.9999803304672241,0.44685935974121094,0.270039826631546,0.031243909150362015,0.9988875389099121,0.45404988527297974,0.5487788915634155,-0.08979814499616623,0.9995215535163879,0.4425959587097168,0.546703577041626,0.08955471962690353,0.9988558888435364,0.44960394501686096,0.7439717650413513,-0.005932960659265518,0.9801896810531616,0.44215697050094604,0.7112677693367004,0.19857096672058105,0.8017324805259705,0.4831604063510895,0.9190050959587097,0.0871712788939476,0.9821438789367676,0.4582745432853699,0.8626494407653809,0.3398565649986267,0.8461419343948364,0.4229143559932709,0.5826011300086975,-0.23793800175189972,0.9899453520774841,0.426696240901947,0.5522363185882568,0.06564012169837952,0.2698323428630829,179.64787536200086,0.44832292199134827,0.5477412343025208,168.1945624521063,169.4538450257708,0.7925443056089946,-0.009336285202559786,-0.00013019228788996494,-0.07651438242415722,-0.10257220711780071,131.5565447487098,0.06960429721828633,28,1762115193.5761633
0.3949788808822632,0.1810411810874939,-0.13589170575141907,0.9999011754989624,0.4489904046058655,0.26291030645370483,-0.2709980905056,0.9999815225601196,0.44667020440101624,0.2665526270866394,0.026494354009628296,0.998879611492157,0.4518600404262543,0.5493064522743225,-0.08773531019687653,0.9995399713516235,0.44424137473106384,0.5469750165939331,0.08751339465379715,0.9988254308700562,0.4485551416873932,0.7478735446929932,0.02304595336318016,0.9776455163955688,0.44142788648605347,0.7133585810661316,0.19544507563114166,0.7734978795051575,0.4690193235874176,0.9193620681762695,0.14219114184379578,0.9811519384384155,0.4549540579319,0.8719313740730286,0.33056458830833435,0.8255860805511475,0.4120456576347351,0.5827721357345581,-0.22451373934745789,0.9903081059455872,0.42508435249328613,0.5524092316627502,0.058393776416778564,0.2509501278400421,-179.95544195304558,0.44805070757865906,0.5481407344341278,171.4487280945696,171.26566301027208,0.8085392741236745,-0.0032793453659769535,0.004812746291977344,0.07296747218075023,0.05954718769686634,122.49760597791632,0.012967803257138881,29,1762115193.659172
0.3921656608581543,0.1804635226726532,-0.12967850267887115,0.9998844861984253,0.44446811079978943,0.26317036151885986,-0.27273452281951904,0.9999819993972778,0.446702241897583,0.2660718560218811,0.03412317484617233,0.9989210963249207,0.44767555594444275,0.5493282079696655,-0.08864877372980118,0.9995166659355164,0.44741111993789673,0.5468205809593201,0.08840691298246384,0.9987289905548096,0.44070106744766235,0.7473655939102173,0.01783784106373787,0.9743427634239197,0.4422772526741028,0.7187313437461853,0.19465701282024384,0.7362176179885864,0.459105908870697,0.9357597231864929,0.13743524253368378,0.9766067266464233,0.455571711063385,0.8801522254943848,0.3340776264667511,0.7955953478813171,0.40154916048049927,0.5824372172355652,-0.2274804413318634,0.9903741478919983,0.4218735098838806,0.5480855107307434,0.05536658316850662,0.23739536106586456,-179.60419365098116,0.44754333794116974,0.5480743944644928,172.29357217192037,169.60375876453537,0.8167224130079075,-0.00752500008840201,-0.0009839143702771226,-0.06296898710704885,-0.08597257063262798,52.40397269440812,0.12353825263169282,30,1762115193.7265966
0.39171549677848816,0.1794528365135193,-0.1111905574798584,0.9998514652252197,0.4408755302429199,0.2632816433906555,-0.2663549780845642,0.999980628490448,0.44666561484336853,0.26455923914909363,0.049001120030879974,0.998938798904419,0.44176143407821655,0.5485678911209106,-0.08892528712749481,0.9994842410087585,0.44937509298324585,0.546028196811676,0.08869323879480362,0.998589277267456,0.42939454317092896,0.7463200688362122,0.016782473772764206,0.9729512929916382,0.44501811265945435,0.7189944982528687,0.1966857761144638,0.7051738500595093,0.4464852213859558,0.934974730014801,0.13689914345741272,0.971176266670227,0.456956684589386,0.879550576210022,0.3399645686149597,0.7739073634147644,0.3945091962814331,0.5798486471176147,-0.20522113144397736,0.9901698231697083,0.42149215936660767,0.5401522517204285,0.05491538718342781,0.22010259330272675,-179.6365318790006,0.4455682635307312,0.5472980439662933,171.29674744902158,169.28482059562916,0.809656480209582,-0.022995571081982868,-0.009038962264674695,-0.18012213265563023,-0.09378402426026469,12.443064873465481,0.12384523426382024,31,1762115193.812486
0.39061450958251953,0.17862416803836823,-0.12317099422216415,0.9998364448547363,0.43540769815444946,0.2655510902404785,-0.2811095118522644,0.9999797344207764,0.44807714223861694,0.26507315039634705,0.04143901914358139,0.9989778995513916,0.432856947183609,0.5502283573150635,-0.08916006237268448,0.999489963054657,0.45311135053634644,0.5461848378181458,0.08897782862186432,0.998580276966095,0.42016419768333435,0.7481371760368347,0.030116593465209007,0.9749776721000671,0.4471278190612793,0.71940016746521,0.22962713241577148,0.706182062625885,0.4353605806827545,0.9435216188430786,0.16128990054130554,0.9710719585418701,0.4606596827507019,0.8781244158744812,0.403839647769928,0.7803347706794739,0.38917049765586853,0.5794256925582886,-0.20774123072624207,0.9903306365013123,0.4195195138454437,0.5350995659828186,0.05365999415516853,0.20438368618488312,-179.74850921268902,0.4429841488599777,0.5482065975666046,172.60312508299057,170.1482607379217,0.8390655076496805,-0.03020309678534008,0.010619162003700649,-0.08424146144329193,0.22976388649303278,-2.1603913260371552,0.086440515244635,32,1762115193.8986325
0.3905097246170044,0.17816483974456787,-0.10275854915380478,0.9998270869255066,0.4292597770690918,0.2678379416465759,-0.27873387932777405,0.9999798536300659,0.449260413646698,0.26514461636543274,0.04514482244849205,0.9990124106407166,0.42726224660873413,0.5511858463287354,-0.08877790719270706,0.9995145201683044,0.45514535903930664,0.5469979643821716,0.08860340714454651,0.9985877871513367,0.41763728857040405,0.747448205947876,0.04238348454236984,0.976042628288269,0.44786882400512695,0.7158427834510803,0.23653003573417664,0.7102982997894287,0.4252406060695648,0.9474878907203674,0.17470023036003113,0.9709802269935608,0.463683545589447,0.8744528889656067,0.41554513573646545,0.784390926361084,0.38145554065704346,0.5786951780319214,-0.1837654560804367,0.9903403520584106,0.4198785424232483,0.5263348817825317,0.06113426014780998,0.1881883144378662,-179.60592982467477,0.4412038028240204,0.5490919053554535,175.82658615531162,170.8218542372518,0.8355981722066103,-0.02267735396389146,0.011276705589383058,0.09585997910312717,0.008375533934439985,-7.669426329630637,0.16598669705008898,33,1762115193.9820826
0.39089998602867126,0.1774527132511139,-0.07591675221920013,0.9998058080673218,0.42455965280532837,0.2691170871257782,-0.26901891827583313,0.9999803304672241,0.45260435342788696,0.2653808891773224,0.04942253232002258,0.9990249872207642,0.4228680729866028,0.5540891289710999,-0.0877198576927185,0.9995384216308594,0.4556700587272644,0.5512760877609253,0.0874948650598526,0.9985779523849487,0.4128786623477936,0.749165415763855,0.053280144929885864,0.9758013486862183,0.44817543029785156,0.7158114910125732,0.2435455024242401,0.7159083485603333,0.4180324971675873,0.9518922567367554,0.18600627779960632,0.9712638854980469,0.46560898423194885,0.8743225336074829,0.41717439889907837,0.7867534160614014,0.3758683502674103,0.578792154788971,-0.18531475961208344,0.9903911352157593,0.41912293434143066,0.5292276740074158,0.07482416182756424,0.17454324662685394,-179.86208450419096,0.4392690658569336,0.5526826083660126,175.52387305408166,172.6030527063332,0.8284276297408816,-0.025291803023219574,0.046939379772479355,-0.0341773231956869,0.4661994607351021,-7.588429652005792,0.060830573842559785,34,1762115194.0530481
0.39184045791625977,0.17458342015743256,-0.06509166955947876,0.9997729659080505,0.42102688550949097,0.27139079570770264,-0.26074934005737305,0.9999802112579346,0.4533516466617584,0.2655121982097626,0.05611986666917801,0.9990089535713196,0.4207201898097992,0.5609235763549805,-0.08838577568531036,0.9995640516281128,0.4561708867549896,0.5574530959129333,0.08813916891813278,0.9985563158988953,0.41044753789901733,0.7525006532669067,0.04337453097105026,0.9763985276222229,0.44803327322006226,0.7157744765281677,0.26306718587875366,0.7184752225875854,0.42007121443748474,0.9585905075073242,0.16594134271144867,0.9722487330436707,0.4657965302467346,0.8740367293357849,0.45008325576782227,0.7847198247909546,0.37374067306518555,0.5787597298622131,-0.1911216825246811,0.9899236559867859,0.41822734475135803,0.530712366104126,0.07485519349575043,0.1625518798828125,-179.75242680965346,0.4384455382823944,0.5591883361339569,173.86068394704046,173.57891177680258,0.831853830638698,-0.00964050372181427,0.07615833968288524,0.18321961987837182,0.34204743164966955,-10.307193982982486,0.09173575114064894,35,1762115194.1384718
0.392356812953949,0.17217904329299927,-0.034445278346538544,0.9997386932373047,0.41379737854003906,0.2755190134048462,-0.24330253899097443,0.9999796152114868,0.4530642032623291,0.2683757245540619,0.061931103467941284,0.9989712238311768,0.41764751076698303,0.5659372806549072,-0.08791129291057587,0.9995839595794678,0.45610347390174866,0.563289225101471,0.0876535102725029,0.998515784740448,0.4090560972690582,0.7540750503540039,0.03631638363003731,0.9769591093063354,0.44980937242507935,0.7161815166473389,0.2463049590587616,0.7237785458564758,0.4200893044471741,0.9616861343383789,0.15145282447338104,0.9729510545730591,0.4671643376350403,0.8741772174835205,0.41488271951675415,0.7831070423126221,0.36857110261917114,0.5809423923492432,-0.1864052712917328,0.9898055195808411,0.41337713599205017,0.5327013731002808,0.08096612989902496,0.15277008712291718,-179.3256551195128,0.43687549233436584,0.5646132528781891,173.43124929817407,174.00407253940884,0.8121906503605916,-0.019898020849070858,0.06875283275419247,-0.12999892768370092,-0.09385389736529322,-10.31030714056659,0.24266858165528138,36,1762115194.2173765
0.3924993872642517,0.17119821906089783,-0.017932577058672905,0.9996934533119202,0.40745148062705994,0.278370201587677,-0.24079148471355438,0.9999784231185913,0.45371121168136597,0.27178093791007996,0.07098221778869629,0.9989514946937561,0.4154074192047119,0.5680242776870728,-0.08905698359012604,0.9995942711830139,0.45571938157081604,0.5660754442214966,0.08879746496677399,0.9984697699546814,0.40773552656173706,0.7539674639701843,0.03352769464254379,0.9767792224884033,0.4496169984340668,0.7168757319450378,0.24449750781059265,0.7292280197143555,0.41911011934280396,0.9602938890457153,0.15116173028945923,0.973558783531189,0.466974675655365,0.8753069639205933,0.40631103515625,0.7821217775344849,0.36611878871917725,0.5807212591171265,-0.18430018424987793,0.988705575466156,0.4071555733680725,0.5333932638168335,0.11364360898733139,0.14300502836704254,-179.02243796580393,0.435563400387764,0.5670498609542847,173.99328454097517,173.98524638088676,0.8049732440952545,-0.016250738225306365,0.030178281411486787,0.04517292809090775,-0.47775991435085136,-8.106711960782217,0.3467674127890462,37,1762115194.298117
0.39272886514663696,0.16783349215984344,0.03404930233955383,0.9996427893638611,0.40188416838645935,0.27801692485809326,-0.216720849275589,0.9999711513519287,0.45490115880966187,0.2745745778083801,0.0789986401796341,0.9989469647407532,0.4137868881225586,0.5669529438018799,-0.08980538696050644,0.999591052532196,0.45549631118774414,0.5648539066314697,0.0895552784204483,0.9984622001647949,0.405792772769928,0.755618691444397,-0.0022793589159846306,0.9783791303634644,0.45076194405555725,0.7168574929237366,0.2208695113658905,0.7334866523742676,0.4201876223087311,0.961914598941803,0.07238782197237015,0.9747090935707092,0.46690884232521057,0.8751261234283447,0.3491039276123047,0.7865510582923889,0.3654370903968811,0.5769601464271545,-0.10787949711084366,0.9852142333984375,0.40761861205101013,0.5304240584373474,0.11454155296087265,0.1342991590499878,-178.7639066725378,0.43464159965515137,0.5659034252166748,172.22300357652855,173.8335130108638,0.7728745448797356,-0.011687729178569594,-0.014535929456077823,0.05785546929049254,-0.5669420391675651,-3.714950471649808,0.40917939057633673,38,1762115194.376986
0.39353787899017334,0.16278696060180664,0.03602089732885361,0.9995201826095581,0.3928138017654419,0.2779150903224945,-0.21826624870300293,0.9999632239341736,0.4594780504703522,0.2796408534049988,0.04206310957670212,0.9988929033279419,0.4080447256565094,0.5659946203231812,-0.08440513908863068,0.9995827078819275,0.45501479506492615,0.5637675523757935,0.08419350534677505,0.9984140992164612,0.4032842218875885,0.7567421197891235,0.021843602880835533,0.979143500328064,0.45060357451438904,0.7168372273445129,0.22274348139762878,0.7284668684005737,0.4173130989074707,0.9613314270973206,0.10529126226902008,0.9745962619781494,0.4667366147041321,0.8750696182250977,0.3512152433395386,0.7828875780105591,0.3621482849121094,0.5768565535545349,-0.12153171002864838,0.9796037077903748,0.4191998541355133,0.5310990214347839,0.12737467885017395,0.12663182616233826,-178.92194610633973,0.4315297603607178,0.5648810863494873,171.51898223362156,173.46862170197102,0.7809954642970716,-0.04163702543456971,-0.013679096311939542,-0.40072750935086915,0.011464596992358998,1.4829067114099783,0.3569718220220263,39,1762115194.4517233
0.3959200978279114,0.15688489377498627,0.10016276687383652,0.9993959665298462,0.38237684965133667,0.27449730038642883,-0.18017783761024475,0.9999445676803589,0.4605204164981842,0.281029611825943,0.031888339668512344,0.9987516403198242,0.40682244300842285,0.5646407604217529,-0.07991167902946472,0.999577522277832,0.4548202455043793,0.5632594227790833,0.07979686558246613,0.9983747601509094,0.4020824432373047,0.7580922245979309,0.016972379758954048,0.9804781079292297,0.4505329132080078,0.7160030007362366,0.2224913090467453,0.7369040250778198,0.41776299476623535,0.9631396532058716,0.09846563637256622,0.9756613373756409,0.46676141023635864,0.8745612502098083,0.3604714870452881,0.7903358340263367,0.3601314425468445,0.5702282190322876,-0.08708174526691437,0.9514262676239014,0.43361908197402954,0.5236717462539673,0.14018024504184723,0.1181892454624176,-178.12421388196432,0.43082134425640106,0.5639500916004181,172.74115735022792,174.0437596528991,0.7742474350744848,-0.00913373161764706,-0.012003476662404092,0.4190706007448048,0.021604054564618377,4.778457532816032,0.5874273397701907,40,1762115194.5292838
0.3978082835674286,0.1519913226366043,0.09978616237640381,0.9992343187332153,0.3742346167564392,0.27069005370140076,-0.1671954095363617,0.9999109506607056,0.4616815149784088,0.2807314693927765,0.01747276820242405,0.9985681772232056,0.40457478165626526,0.5635558366775513,-0.07655465602874756,0.9995688199996948,0.4546262323856354,0.5612602829933167,0.07643278688192368,0.998294472694397,0.40214142203330994,0.761702835559845,0.006836184300482273,0.9817975759506226,0.4511982798576355,0.7170054912567139,0.2232414186000824,0.7449973225593567,0.4170140326023102,0.9658534526824951,0.08990935981273651,0.977098822593689,0.46729546785354614,0.8747442364692688,0.37803179025650024,0.7970704436302185,0.3571915626525879,0.5678521990776062,-0.07899273931980133,0.9044176936149597,0.4479559361934662,0.5251074433326721,0.12407839298248291,0.11381570994853973,-177.67456328175433,0.4296005070209503,0.562408059835434,175.42487249295445,174.77470219696667,0.7811968471353263,-0.015508021187929301,-0.0195880831526282,-0.08097116867297748,-0.09634555265598065,6.550510876768022,0.75180917434459,41,1762115194.6080067
0.400020033121109,0.14818865060806274,0.08471319079399109,0.9991083741188049,0.36874696612358093,0.2693430483341217,-0.15650446712970734,0.9998714327812195,0.46280694007873535,0.28086724877357483,-0.01559431105852127,0.9984149932861328,0.40218791365623474,0.5633425712585449,-0.07083725929260254,0.9995685815811157,0.4544837474822998,0.561045229434967,0.07071691006422043,0.9982113242149353,0.40274477005004883,0.7642520666122437,0.01517166942358017,0.9829769730567932,0.45114749670028687,0.7174268364906311,0.2420348823070526,0.7457334399223328,0.4170023500919342,0.9660385251045227,0.13215501606464386,0.978224515914917,0.4663626253604889,0.8742255568504333,0.44476670026779175,0.7991352677345276,0.3546261787414551,0.5717651844024658,-0.06815548241138458,0.8552607297897339,0.4576037526130676,0.5369901061058044,0.0802893191576004,0.12205357104539871,-177.49515720534643,0.4283358305692673,0.562193900346756,172.30048092133597,173.69707836761214,0.7994657403656352,-0.01638780500614801,-0.002775100252717173,-0.011400327444498022,0.21786432804118988,6.985049885919281,0.8521799211009479,42,1762115194.6851785
0.40115243196487427,0.14295944571495056,0.14198938012123108,0.9988663792610168,0.36526644229888916,0.2632684111595154,-0.10672567784786224,0.9998058676719666,0.46273359656333923,0.280634343624115,-0.001032927306368947,0.9982889294624329,0.400844007730484,0.5596399903297424,-0.06484337151050568,0.999553918838501,0.45401471853256226,0.5573217868804932,0.06487753987312317,0.9979855418205261,0.40114516019821167,0.7640212774276733,-0.0037123505026102066,0.984006941318512,0.4509064555168152,0.7171669006347656,0.22165973484516144,0.751479983329773,0.4176870882511139,0.9646629095077515,0.07773774862289429,0.9786528944969177,0.464829683303833,0.874632716178894,0.39010775089263916,0.8023598194122314,0.3563951551914215,0.5482149124145508,-0.03021949902176857,0.7942720055580139,0.4659534990787506,0.5402056574821472,0.022890077903866768,0.13652636110782623,-177.31656944995524,0.42742936313152313,0.5584808886051178,173.06557537511077,175.06434331181757,0.7831379518427666,-0.010835119237608864,-0.04438209611964799,0.06637195103314605,-0.49733365211530306,10.102500119750506,0.8815620185204777,43,1762115194.7688386
0.4051586091518402,0.1402524709701538,0.18433445692062378,0.9988002181053162,0.3614482879638672,0.25992536544799805,-0.07244078814983368,0.9997685551643372,0.4625793993473053,0.2779982089996338,0.006184106692671776,0.9983100891113281,0.4001704752445221,0.5589032769203186,-0.0587071068584919,0.9995704889297485,0.45328110456466675,0.5563511252403259,0.05884537100791931,0.9979793429374695,0.40137267112731934,0.7646273374557495,-0.01049141027033329,0.9851802587509155,0.4508516788482666,0.7177292704582214,0.2146528959274292,0.7683606147766113,0.41784730553627014,0.9636952877044678,0.056229740381240845,0.9796609282493591,0.464851051568985,0.8796513676643372,0.3690051734447479,0.8137260675430298,0.36010900139808655,0.5343358516693115,-0.018301861360669136,0.737943708896637,0.47391265630722046,0.5434689521789551,-0.005258579272776842,0.17544811964035034,-177.0824224432073,0.4267257899045944,0.5576272010803223,173.22490670221526,175.76737511394862,0.7827695961840572,-0.00833710023731495,-0.010115902926884393,0.02960066415699164,0.40604257874669775,10.132202420531605,0.9654772809582207,44,1762115194.8532293
0.4053556025028229,0.13524708151817322,0.16788414120674133,0.9988120198249817,0.3600112497806549,0.26034197211265564,-0.08011933416128159,0.999748170375824,0.4623667299747467,0.27565765380859375,-0.010301243513822556,0.998370885848999,0.4001671373844147,0.5589139461517334,-0.049555666744709015,0.9995898008346558,0.4532521665096283,0.5559667944908142,0.049655791372060776,0.9980396628379822,0.4020169675350189,0.7652296423912048,0.013771170750260353,0.9861313700675964,0.45085468888282776,0.7188320755958557,0.20697613060474396,0.7849917411804199,0.4165921211242676,0.9632821679115295,0.08607213199138641,0.9804151058197021,0.4646286070346832,0.8832778334617615,0.3577551543712616,0.8249410390853882,0.3618563413619995,0.5373823642730713,-0.0036590895615518093,0.6869623064994812,0.4771016538143158,0.5462679862976074,0.0051467204466462135,0.2065754234790802,-176.93056990181398,0.4267096519470215,0.5574403703212738,175.40944571267326,175.5860665179086,0.790669315827187,-0.00020200038199148876,-0.0023385787529171614,0.10182783483518444,0.09734952189040263,8.510158120528311,1.0948906772239173,45,1762115194.93312
0.4068365693092346,0.13289473950862885,0.16185060143470764,0.998865008354187,0.36060696840286255,0.2607135474681854,-0.06909637153148651,0.9997377395629883,0.4635714888572693,0.27333393692970276,-0.006609208881855011,0.9984664916992188,0.3985214829444885,0.5588873028755188,-0.04366631805896759,0.9995928406715393,0.4514342248439789,0.555731475353241,0.04373232275247574,0.9980812668800354,0.4027339816093445,0.7669196128845215,0.006460735108703375,0.9865107536315918,0.4528030455112457,0.721687376499176,0.15649613738059998,0.7999402284622192,0.4166276454925537,0.9629282355308533,0.0652361586689949,0.9803304672241211,0.4650675356388092,0.8963162899017334,0.254393994808197,0.8346495628356934,0.36305996775627136,0.5355302095413208,0.02553742006421089,0.6439723372459412,0.4792211949825287,0.5501188039779663,0.029060736298561096,0.23433434963226318,-177.45774840288055,0.4249778538942337,0.5573093891143799,175.80318708729666,174.1657725055297,0.7974557286547728,-0.022098631249733797,-0.0016713873694074123,-0.2794122388455373,0.008513704200929968,6.987904289585036,0.9853631028976567,46,1762115195.0114868
0.4082072675228119,0.13411249220371246,0.16114500164985657,0.9989191889762878,0.3614535629749298,0.2610347270965576,-0.0609058253467083,0.9997268915176392,0.46445736289024353,0.2731274962425232,-0.015132111497223377,0.9985723495483398,0.39855894446372986,0.5585829615592957,-0.03828039392828941,0.9995976090431213,0.45083022117614746,0.5552042126655579,0.03833150491118431,0.9981287121772766,0.40320461988449097,0.7672430872917175,0.0038464784156531096,0.9868435859680176,0.4544519782066345,0.721983790397644,0.1395614892244339,0.8126323223114014,0.41734305024147034,0.9651975035667419,0.05839022994041443,0.9802985191345215,0.46795958280563354,0.8965830206871033,0.22906148433685303,0.8426976203918457,0.3662838935852051,0.5245734453201294,0.036627210676670074,0.6037244200706482,0.4847516417503357,0.5570506453514099,0.0005244644708000124,0.281156986951828,-177.68044997782502,0.42469458281993866,0.5568935871124268,175.17620551916747,174.9654913579514,0.797712124610672,-0.0038944064768834915,-0.005716439680744711,0.25027140889150606,-0.05561131845109158,6.69594173618823,0.8491829459882548,47,1762115195.0842247
0.4102599024772644,0.13378572463989258,0.1833481788635254,0.9989839792251587,0.3612230122089386,0.2610991299152374,-0.052769243717193604,0.9997270107269287,0.46442174911499023,0.27313560247421265,-0.010189393535256386,0.9986776113510132,0.39727920293807983,0.5575311183929443,-0.03827621787786484,0.9996053576469421,0.4497256875038147,0.5536742806434631,0.03837453946471214,0.9981910586357117,0.40341848134994507,0.7653683423995972,-0.004259390290826559,0.9868606925010681,0.4586372971534729,0.7224820256233215,0.1363198459148407,0.8243845701217651,0.4177629053592682,0.9668263792991638,0.03884696587920189,0.9796319007873535,0.4715835154056549,0.901393711566925,0.21042156219482422,0.850318193435669,0.3703562617301941,0.505626916885376,0.03518203645944595,0.5641094446182251,0.48691678047180176,0.5575098991394043,-0.0014408733695745468,0.3255145251750946,-177.8798114744492,0.42350244522094727,0.5556026995182037,176.3636659430332,172.28072229325022,0.8032126854129313,-0.013550166254305404,-0.01467258606065369,-0.10975004094023742,-0.10179804122304024,6.652573623611778,0.7826332428096588,48,1762115195.1722043
0.4121968746185303,0.1341213583946228,0.15588577091693878,0.9990630745887756,0.3604784607887268,0.261259526014328,-0.04903319478034973,0.9997244477272034,0.4642184376716614,0.2728886306285858,-0.036542750895023346,0.9987825751304626,0.39709922671318054,0.5576798915863037,-0.03017006255686283,0.9996070265769958,0.4491654932498932,0.5530605316162109,0.030250784009695053,0.9982572793960571,0.4036042094230652,0.7652178406715393,0.0005474586505442858,0.9860252737998962,0.4604465961456299,0.7271122336387634,0.12072392553091049,0.8308078646659851,0.41728490591049194,0.967378556728363,0.050014935433864594,0.9777236580848694,0.4723125994205475,0.9101489782333374,0.18581938743591309,0.85362309217453,0.3807894289493561,0.5016698837280273,0.05457233637571335,0.5234150290489197,0.4884628355503082,0.5562684535980225,0.0006244850228540599,0.36762914061546326,-177.85781156752904,0.42313235998153687,0.5553702116012573,174.30482132150092,172.11220498497414,0.8061971869575575,-0.005929982465054266,-0.0037252209059339936,0.12210040130954797,0.17541278736070964,6.396073779945299,0.8441847022866449,49,1762115195.2346134
0.41453585028648376,0.13431063294410706,0.14648132026195526,0.9991368055343628,0.3605497479438782,0.26093941926956177,-0.031995635479688644,0.9997187256813049,0.46412134170532227,0.2722165584564209,-0.03950062394142151,0.998874306678772,0.3965371549129486,0.5578081607818604,-0.023326901718974113,0.9995949864387512,0.4488101601600647,0.552236020565033,0.023391785100102425,0.9982779622077942,0.4037443995475769,0.7665220499038696,0.0052109891548752785,0.9854121208190918,0.4640176296234131,0.7323943972587585,0.10479984432458878,0.8373021483421326,0.41717424988746643,0.9692023992538452,0.052524227648973465,0.9749566316604614,0.47359663248062134,0.9221636652946472,0.15877363085746765,0.855221152305603,0.38552314043045044,0.5092436671257019,0.059529054909944534,0.48419785499572754,0.4903990626335144,0.5571550130844116,0.0050737615674734116,0.4005082845687866,-177.947343047058,0.42267365753650665,0.5550220906734467,174.36603401239253,171.41292709241154,0.8129847180659572,-0.005307999503393478,-0.004028375544887712,0.007197444198051348,-0.0035080359619879074,6.214031078321177,0.8985423203004327,50,1762115195.3210306
0.41826874017715454,0.134303480386734,0.14025506377220154,0.9991921782493591,0.35980674624443054,0.25998613238334656,-0.0032685822807252407,0.9997034072875977,0.46403202414512634,0.2716042101383209,-0.07262033224105835,0.9989636540412903,0.39484381675720215,0.5577818155288696,0.002799322595819831,0.9995641708374023,0.44794583320617676,0.5515391826629639,-0.0027657845057547092,0.9982808828353882,0.4034595489501953,0.7663209438323975,0.026475939899683,0.984798014163971,0.46533578634262085,0.7360119223594666,0.07915838062763214,0.8458222150802612,0.4163986146450043,0.9699556231498718,0.0585932731628418,0.9722654819488525,0.47333192825317383,0.9368858337402344,0.1309213936328888,0.8592885136604309,0.3841136395931244,0.5110881924629211,0.0696636289358139,0.449997216463089,0.4920435845851898,0.5587262511253357,-0.010433816350996494,0.4334248900413513,-178.12124175875488,0.42139482498168945,0.5546604990959167,177.19795465770122,170.13395380135347,0.8208108704272554,-0.015798687814791906,-0.004467099643604018,-0.12960188491429317,-0.005419994233283838,6.360549708988438,0.9051292765979344,51,1762115195.401976
0.42337387800216675,0.1341841220855713,0.11330310255289078,0.9992337822914124,0.358869731426239,0.2579551637172699,0.002981620142236352,0.999676525592804,0.46402278542518616,0.27140915393829346,-0.10909722745418549,0.9990504384040833,0.3941953778266907,0.5577751398086548,0.027137193828821182,0.9995401501655579,0.447408527135849,0.551540732383728,-0.027194742113351822,0.9983202815055847,0.4035030007362366,0.763034999370575,0.0708591639995575,0.983131468296051,0.4648504853248596,0.7395786046981812,0.06597669422626495,0.8558785915374756,0.4157654643058777,0.9646417498588562,0.11747101694345474,0.9696514010429382,0.4723704755306244,0.9457699060440063,0.12325920164585114,0.8670639991760254,0.3864274322986603,0.5090532302856445,0.0886743888258934,0.416426420211792,0.4933818280696869,0.5612193942070007,-0.04204028099775314,0.46695125102996826,-178.15206667289388,0.42080195248126984,0.5546579360961914,178.63588768526472,168.8399387618838,0.821312826444552,-0.008366037424807224,-3.616654779367237e-05,0.10488229979314186,0.06252499834303286,7.291193777989902,0.9457621789070916,52,1762115195.4728427
0.4269797205924988,0.13432712852954865,0.10141744464635849,0.9992660284042358,0.3588322103023529,0.25690919160842896,0.005992029793560505,0.9996381402015686,0.4642554819583893,0.2714170217514038,-0.12169529497623444,0.9991282224655151,0.3941259980201721,0.5577600002288818,0.03531668335199356,0.9995083212852478,0.447462797164917,0.551532506942749,-0.0354219488799572,0.9983592629432678,0.4035300314426422,0.7564175724983215,0.0859319418668747,0.9816473126411438,0.46408218145370483,0.7405155897140503,0.05840061977505684,0.8650453090667725,0.4141604006290436,0.9597469568252563,0.14113733172416687,0.967214822769165,0.46837225556373596,0.949830174446106,0.11506328731775284,0.8744811415672302,0.3848286271095276,0.5121738910675049,0.10942487418651581,0.386428564786911,0.49545788764953613,0.5638472437858582,-0.0433298796415329,0.4968138635158539,-178.17600951124513,0.42079439759254456,0.5546462535858154,178.98947530803582,168.25953296413155,0.8210195199933719,-0.00013395857905617066,-0.00020714699404346704,0.14596609228207935,-0.003031718726626416,7.8355466900830075,1.2398172709940856,53,1762115195.52924
0.43743667006492615,0.13919413089752197,0.07620225101709366,0.999276340007782,0.3593812882900238,0.2568170428276062,0.021018508821725845,0.9996126294136047,0.4640449583530426,0.27180853486061096,-0.14751343429088593,0.9992064237594604,0.3937392830848694,0.5578795671463013,0.05317903310060501,0.9995014667510986,0.44641679525375366,0.55262690782547,-0.0532744936645031,0.9984466433525085,0.40370312333106995,0.7535633444786072,0.11743239313364029,0.9753332734107971,0.464738667011261,0.7418608665466309,0.04923418164253235,0.8748489022254944,0.4141867160797119,0.9541062116622925,0.1903703808784485,0.9621667861938477,0.4671591818332672,0.9486832618713379,0.11492031812667847,0.8836904764175415,0.3838021159172058,0.5137335062026978,0.11982661485671997,0.35722610354423523,0.4960489273071289,0.571460485458374,-0.04289025813341141,0.5336049795150757,-178.35312559752384,0.4200780391693115,0.5552532374858856,178.15216144431363,168.3871338548044,0.815796448252608,-0.008981926288192898,0.007610554258502507,-0.11093859049651293,0.09802078696384536,8.151313165165362,1.296272451161385,54,1762115195.6089954
0.4422469139099121,0.14326317608356476,0.07955031096935272,0.9992244243621826,0.35993820428848267,0.25658735632896423,0.03593718260526657,0.9995602369308472,0.46401315927505493,0.27208346128463745,-0.14666953682899475,0.9992750287055969,0.393981397151947,0.5580043196678162,0.058200620114803314,0.9994723200798035,0.44660845398902893,0.5528249740600586,-0.05832171440124512,0.9985037446022034,0.4068012833595276,0.7531871199607849,0.1150088757276535,0.9703123569488525,0.4680706560611725,0.7434066534042358,0.03626066818833351,0.8833151459693909,0.41550689935684204,0.9534303545951843,0.1758839190006256,0.9571043848991394,0.4656069278717041,0.950101375579834,0.09747491776943207,0.891589879989624,0.3825632929801941,0.5125599503517151,0.13732828199863434,0.3315717875957489,0.4966197907924652,0.5720067024230957,-0.05250426009297371,0.5673145651817322,-178.36289308092356,0.420294925570488,0.5554146468639374,178.543219172223,168.2121843215378,0.8105203200054394,0.0031098088348910508,0.002314355843321186,0.17337640585559888,-0.07593913004009502,8.468763968495084,2.6647640203480965,55,1762115195.678738
0.44460612535476685,0.14400988817214966,0.08474789559841156,0.9991741180419922,0.36029988527297974,0.25681477785110474,0.025959232822060585,0.9995083212852478,0.4641779959201813,0.2724476754665375,-0.14639875292778015,0.9993332624435425,0.3949100077152252,0.5580567121505737,0.054265089333057404,0.9994598627090454,0.4474804401397705,0.5533989667892456,-0.05443139746785164,0.9985623359680176,0.409567266702652,0.7506359815597534,0.12212671339511871,0.9684256315231323,0.46790775656700134,0.7438161969184875,0.0506378710269928,0.8914015293121338,0.4164631962776184,0.9530176520347595,0.1926441639661789,0.955010175704956,0.46396762132644653,0.9501410722732544,0.12177599966526031,0.8994791507720947,0.38137489557266235,0.513276994228363,0.11278034746646881,0.308741956949234,0.4986252784729004,0.5724703073501587,-0.06492725759744644,0.5960503816604614,-178.23771428258462,0.42119522392749786,0.5557278394699097,177.6955008605616,168.2446229117663,0.8108258149137656,0.014401257780082987,0.005009858585550403,0.1806190866663653,0.04311751713808493,8.55837220047525,6.056055505089056,56,1762115195.7412534
0.4482342600822449,0.1469944566488266,0.08455117046833038,0.9991775751113892,0.36054518818855286,0.26077061891555786,0.028946299105882645,0.9994813799858093,0.46420007944107056,0.2724859416484833,-0.15226802229881287,0.9993908405303955,0.39795607328414917,0.5587553381919861,0.05965999886393547,0.9994626045227051,0.45036500692367554,0.554889440536499,-0.05987998843193054,0.9986413717269897,0.41045936942100525,0.7493012547492981,0.14750169217586517,0.9616842865943909,0.4683375358581543,0.7463616132736206,0.06144368648529053,0.8977044224739075,0.4169607162475586,0.9505442380905151,0.2416679561138153,0.9489537477493286,0.4634833335876465,0.94926518201828,0.14129796624183655,0.905640721321106,0.3785225450992584,0.5268542766571045,0.09606081992387772,0.2899380326271057,0.5002877116203308,0.573068380355835,-0.05330802872776985,0.6229293346405029,-177.67388052713886,0.42416054010391235,0.5568223893642426,178.1960469600551,167.67159329367257,0.8100391834969906,0.032887004312681295,0.0121391666027653,0.2050172021372052,0.07906798788386832,6.448341235152772,14.29578292077288,57,1762115195.8314202
0.4500945508480072,0.14753276109695435,0.08528119325637817,0.9991843700408936,0.3606400191783905,0.2617454528808594,0.030955825001001358,0.999445915222168,0.4642718434333801,0.2722867429256439,-0.1472550332546234,0.9994407296180725,0.4005490839481354,0.5590822696685791,0.05733687803149223,0.9994593262672424,0.4514729380607605,0.5562048554420471,-0.05758143588900566,0.9987064003944397,0.41194742918014526,0.7471749782562256,0.13957354426383972,0.955929696559906,0.468925803899765,0.7465507388114929,0.060120224952697754,0.9036394357681274,0.4179040789604187,0.9496963620185852,0.22968189418315887,0.9445962905883789,0.4627142548561096,0.9504705667495728,0.14227701723575592,0.9117698073387146,0.37662431597709656,0.5302899479866028,0.09367035329341888,0.27540990710258484,0.5009511113166809,0.5755776166915894,-0.05825061351060867,0.647228479385376,-177.32961773144493,0.42601101100444794,0.5576435625553131,178.2777041377002,168.48028663841842,0.808902667288578,0.024561044726998854,0.010899318367372771,-0.11050931182973173,-0.016456334414852322,5.808073312443782,105.5283656334111,58,1762115195.906762
0.45076775550842285,0.14942550659179688,0.08756600320339203,0.9991682171821594,0.3613818287849426,0.26286402344703674,0.026935284957289696,0.9994007349014282,0.4648438096046448,0.27195867896080017,-0.14386427402496338,0.9994857311248779,0.4036311209201813,0.5598482489585876,0.055754125118255615,0.9994664788246155,0.45381489396095276,0.5573367476463318,-0.05604149028658867,0.998777449131012,0.414823442697525,0.7436329126358032,0.14779743552207947,0.9531072974205017,0.4698077142238617,0.7465492486953735,0.06652067601680756,0.9103138446807861,0.4185510277748108,0.9482616186141968,0.2450338900089264,0.9431297183036804,0.46274352073669434,0.950043797492981,0.15176180005073547,0.918272852897644,0.37649399042129517,0.5335869789123535,0.09220284223556519,0.2615823447704315,0.5013952851295471,0.5745189189910889,-0.06974974274635315,0.6709638237953186,-176.93131733227014,0.428723007440567,0.5585924983024597,177.49537374710172,168.21646034737122,0.8074340332567955,0.03259518562881115,0.011405153936087296,0.09656145213720975,0.006079581831419943,5.023578893030772,9.351314277871213,59,1762115195.9899642
0.4536920189857483,0.15159641206264496,0.08942915499210358,0.999134361743927,0.3639826774597168,0.26337283849716187,0.049694567918777466,0.9993268847465515,0.46488484740257263,0.27172091603279114,-0.14933493733406067,0.9995279908180237,0.40533939003944397,0.5606089234352112,0.06533543765544891,0.9994128942489624,0.45459723472595215,0.5581913590431213,-0.06554699689149857,0.9987984299659729,0.4178193509578705,0.7426784038543701,0.14491990208625793,0.9444609880447388,0.47146159410476685,0.7489660382270813,0.03698834776878357,0.915503978729248,0.4195704460144043,0.9461053609848022,0.2294018268585205,0.9370251297950745,0.46280065178871155,0.9510542154312134,0.11284162104129791,0.9235139489173889,0.3842342495918274,0.5330482721328735,0.11967579275369644,0.2433815598487854,0.5009379386901855,0.5746943354606628,-0.08400322496891022,0.6913827061653137,-176.9531777594738,0.42996831238269806,0.5594001412391663,176.66588465842574,169.77048251881243,0.801256881074324,0.015252854514659502,0.009892243896741034,-0.2124138791070281,-0.018530559016674986,4.72955865214503,4.495050127201109,60,1762115196.0716083
0.46272772550582886,0.15365639328956604,0.0634387880563736,0.9990241527557373,0.3686780333518982,0.26408228278160095,0.06301558762788773,0.99925696849823,0.46482110023498535,0.2704256772994995,-0.16240465641021729,0.9995671510696411,0.4060317575931549,0.5617366433143616,0.07281698286533356,0.9993181824684143,0.4544712007045746,0.5584759712219238,-0.07297249138355255,0.998792827129364,0.420449823141098,0.7432063817977905,0.14674913883209229,0.9195376634597778,0.4732171893119812,0.7528612017631531,0.015565579757094383,0.9186712503433228,0.41956067085266113,0.944374680519104,0.23337212204933167,0.9261519312858582,0.4620373249053955,0.9507333636283875,0.09767933189868927,0.9276753067970276,0.3936486542224884,0.5266643166542053,0.14448004961013794,0.22436939179897308,0.5006793737411499,0.5759228467941284,-0.11414696276187897,0.7120652198791504,-177.3602560692587,0.43025147914886475,0.5601063072681427,175.40125035724208,171.75471675917078,0.8007346983752152,0.0032093156792542053,0.008003445247584949,-0.13649736705126198,-0.021407000552185276,3.774829846986703,2.237079559502293,61,1762115196.159841
0.4686492085456848,0.15571241080760956,0.04357302933931351,0.9988749623298645,0.37503156065940857,0.26506152749061584,0.06478700041770935,0.9991808533668518,0.46460628509521484,0.2695262134075165,-0.16502609848976135,0.9996030330657959,0.4076719284057617,0.5630693435668945,0.07521604001522064,0.9991750717163086,0.4542803168296814,0.5595604181289673,-0.07537010312080383,0.998767614364624,0.42254725098609924,0.7436519861221313,0.1448907107114792,0.8948950171470642,0.47571247816085815,0.7530521750450134,0.006470846943557262,0.9224059581756592,0.41938838362693787,0.9418606162071228,0.23064939677715302,0.9164661765098572,0.46154624223709106,0.9509196877479553,0.09360628575086594,0.9317923784255981,0.400543749332428,0.5228392481803894,0.13933777809143066,0.20580698549747467,0.5003250241279602,0.5781121253967285,-0.12163038551807404,0.7293688654899597,-177.82684277739955,0.43097612261772156,0.5613148808479309,174.27195467706014,170.382184803046,0.8000129705526416,0.008826335185115275,0.014720722630556436,0.06841667527656535,0.08181808608174414,2.853440399117329,1.2878320811306627,62,1762115196.2419412
0.46959084272384644,0.156055748462677,0.04231969639658928,0.9987840056419373,0.3776804208755493,0.2654574513435364,0.0627954751253128,0.999138355255127,0.46461838483810425,0.26916295289993286,-0.16434749960899353,0.999636173248291,0.4083593785762787,0.5637728571891785,0.07494662702083588,0.9990788698196411,0.45410361886024475,0.5600440502166748,-0.07509718835353851,0.9987621307373047,0.4231659770011902,0.7439649105072021,0.14278194308280945,0.8737191557884216,0.4764222204685211,0.7534077763557434,0.0069358572363853455,0.9259128570556641,0.41896289587020874,0.9410402178764343,0.2262345552444458,0.9082074761390686,0.46119117736816406,0.9510889649391174,0.0925370380282402,0.9355754256248474,0.4022042155265808,0.5229971408843994,0.13266634941101074,0.18919004499912262,0.5001189112663269,0.5793693661689758,-0.1180320754647255,0.7447404861450195,-178.03991988285742,0.4312314987182617,0.5619084537029266,173.996970757812,169.87445510837196,0.7991805231032482,0.00393600602642071,0.009148492476160728,-0.07537261708941977,-0.0858824746008508,2.4406043716551657,1.037459499788412,63,1762115196.3068233
0.4726904332637787,0.15752629935741425,0.029964987188577652,0.9986265897750854,0.3869641423225403,0.26516836881637573,0.06824461370706558,0.9990741610527039,0.464507520198822,0.26900166273117065,-0.16605481505393982,0.9996638298034668,0.4110780358314514,0.5643202662467957,0.0748145654797554,0.9990158677101135,0.45410704612731934,0.5603278875350952,-0.07494745403528214,0.9987583160400391,0.4253367781639099,0.7441410422325134,0.1373739391565323,0.8571649193763733,0.47750648856163025,0.7548249959945679,0.010775270871818066,0.9284890294075012,0.4182562828063965,0.941495418548584,0.20958659052848816,0.901207685470581,0.4612441658973694,0.9506892561912537,0.10560940206050873,0.9381191730499268,0.4096168875694275,0.520237147808075,0.13265952467918396,0.17350555956363678,0.49968966841697693,0.5834012627601624,-0.11596556752920151,0.7530033588409424,-178.6695868843824,0.4325925409793854,0.5623240768909454,173.70744156255552,169.24075202224174,0.7995071223468433,0.019096031684970045,0.0058313792261401,0.21270194070359938,-0.04654058256261067,2.830066517931956,0.5874288428642965,64,1762115196.3780968
0.47644883394241333,0.16015975177288055,0.01702776551246643,0.9983430504798889,0.39372920989990234,0.26472336053848267,0.0709502249956131,0.9989170432090759,0.4641264081001282,0.2685442566871643,-0.1763937622308731,0.9996867775917053,0.4148394465446472,0.5646883845329285,0.07826646417379379,0.9989427328109741,0.45563435554504395,0.561491072177887,-0.07845364511013031,0.99876469373703,0.42661648988723755,0.7427835464477539,0.14435499906539917,0.8361525535583496,0.4775889813899994,0.7545204758644104,0.019255386665463448,0.9299209713935852,0.4143466353416443,0.9416447877883911,0.22688281536102295,0.8930184841156006,0.4610309600830078,0.9505658745765686,0.12524059414863586,0.9402761459350586,0.4147292673587799,0.5187628865242004,0.14335915446281433,0.15910321474075317,0.499530166387558,0.585660457611084,-0.13753452897071838,0.7609997987747192,-178.78083126699147,0.4352369010448456,0.5630897283554077,172.83974433704944,169.83156532013308,0.802810430944312,0.03956667070969399,0.011456185475067602,0.3062952901488871,0.08416208502165975,3.106751885781083,0.43767736476497243,65,1762115196.4449298
0.4811238646507263,0.1617770940065384,-0.00016711812349967659,0.9981468915939331,0.4030211567878723,0.2641363739967346,0.08790987730026245,0.9986287951469421,0.46344566345214844,0.2685515582561493,-0.19216738641262054,0.99970543384552,0.41996699571609497,0.5650664567947388,0.08517677336931229,0.9988836646080017,0.45792531967163086,0.5642256140708923,-0.08541394770145416,0.9987778067588806,0.4280948042869568,0.7414112687110901,0.15199598670005798,0.8121713995933533,0.4786345064640045,0.7542420029640198,0.018603581935167313,0.9325028657913208,0.41171470284461975,0.9392774701118469,0.2446388453245163,0.8842942714691162,0.4608820378780365,0.9504770636558533,0.13537050783634186,0.9427368640899658,0.4198860228061676,0.5227179527282715,0.14018796384334564,0.14737622439861298,0.49898236989974976,0.5878959894180298,-0.1907922923564911,0.7718355059623718,-178.9028694307566,0.4389461576938629,0.5646460354328156,171.96388708520385,169.87645214134753,0.8071062614053229,0.050446169460089556,0.021165893327885914,0.147962001429231,0.1320527572232023,4.179142831472447,0.33471917584521593,66,1762115196.5184588
0.48788896203041077,0.1614939421415329,-0.04985317587852478,0.9981108903884888,0.4089299142360687,0.26374635100364685,0.076027512550354,0.9983623027801514,0.46234846115112305,0.26854678988456726,-0.20789769291877747,0.9997227191925049,0.42574238777160645,0.5652221441268921,0.08536254614591599,0.998745322227478,0.46152669191360474,0.5674235820770264,-0.08560091257095337,0.9987561106681824,0.4305883049964905,0.7413217425346375,0.17056246101856232,0.7878817915916443,0.48170241713523865,0.7543063759803772,0.02438250742852688,0.9325566291809082,0.4099319875240326,0.9367714524269104,0.2805166244506836,0.8752848505973816,0.4613458216190338,0.9502886533737183,0.17853344976902008,0.9448801875114441,0.4268004298210144,0.5231080651283264,0.10552654415369034,0.13498297333717346,0.4991123676300049,0.5922741889953613,-0.20798158645629883,0.7803560495376587,-178.47425776785877,0.4436345398426056,0.5663228631019592,172.42947045263625,167.38798089505582,0.8320833689767845,0.05663004506904347,0.02025407133292056,0.07469381618781504,-0.011013718385494855,5.135071641729953,0.38987536807501055,67,1762115196.6012485
0.4920281767845154,0.16143569350242615,-0.08361202478408813,0.9981216192245483,0.416209876537323,0.26160770654678345,0.0707945004105568,0.9981402158737183,0.46162763237953186,0.26791223883628845,-0.22698135673999786,0.9997360110282898,0.4296514391899109,0.5650323629379272,0.09068726748228073,0.9985490441322327,0.46274691820144653,0.5685113668441772,-0.09095880389213562,0.998692512512207,0.4311659336090088,0.7412195801734924,0.21324603259563446,0.764883816242218,0.4824751317501068,0.7542045712471008,0.034358490258455276,0.932222843170166,0.40559864044189453,0.9315899610519409,0.3518544137477875,0.8693177103996277,0.46327629685401917,0.9495078921318054,0.21770596504211426,0.9473099112510681,0.43323224782943726,0.5235705971717834,0.0932144895195961,0.12339594215154648,0.4992786943912506,0.5954898595809937,-0.23081961274147034,0.7823342084884644,-178.61907157114538,0.4461991786956787,0.5667718648910522,173.27547352583042,167.0561013541389,0.8637400900192698,0.03234663960306721,0.0056630581867388365,-0.30627570193825315,-0.18402990468525812,7.902844044319856,0.32525033108255325,68,1762115196.6805346
0.49547043442726135,0.16048166155815125,-0.10303565114736557,0.998188853263855,0.4217093884944916,0.2591498792171478,0.06789575517177582,0.9979808330535889,0.4601714015007019,0.2667742073535919,-0.23549552261829376,0.9997501373291016,0.43147891759872437,0.564430832862854,0.0915634036064148,0.9983556270599365,0.4635658264160156,0.5684824585914612,-0.09182408452033997,0.998648464679718,0.4346056878566742,0.7393568158149719,0.21958713233470917,0.7461239695549011,0.48213276267051697,0.7529447674751282,0.03249921649694443,0.9324401021003723,0.40670084953308105,0.9211267828941345,0.36618122458457947,0.8650938868522644,0.46317529678344727,0.9477119445800781,0.20357461273670197,0.949970006942749,0.44237154722213745,0.5265183448791504,0.08179496973752975,0.11259889602661133,0.5002523064613342,0.598215639591217,-0.22850584983825684,0.7848374247550964,-178.7576042785705,0.44752237200737,0.5664566457271576,171.89476246940956,168.43752387993246,0.8678252538708656,0.018763396690806067,-0.00446993055696425,-0.19261567668035434,-0.1436897283123004,11.212391083174973,0.28089511284265195,69,1762115196.7510545
0.4967498183250427,0.15909495949745178,-0.11562208831310272,0.9982474446296692,0.42669177055358887,0.2571360766887665,0.06421845406293869,0.9978013038635254,0.4579172730445862,0.26498109102249146,-0.24956998229026794,0.9997606873512268,0.43400996923446655,0.5627399682998657,0.092688649892807,0.9981351494789124,0.4632439613342285,0.5682410597801208,-0.0929359644651413,0.9985890984535217,0.43941912055015564,0.7371763586997986,0.22651703655719757,0.7270326018333435,0.4817076623439789,0.7522088885307312,0.028119947761297226,0.9329941868782043,0.407151997089386,0.9102030396461487,0.38515788316726685,0.8620566725730896,0.46318522095680237,0.9445873498916626,0.19224606454372406,0.9524566531181335,0.44671711325645447,0.5410153269767761,0.06710345298051834,0.10318364202976227,0.5005470514297485,0.5988085269927979,-0.24697370827198029,0.7876128554344177,-178.81025206329085,0.44862696528434753,0.5654905140399933,169.48800060997087,168.536266544949,0.8703766105001778,0.01303517217512654,-0.011401203636230633,-0.06759808734666216,-0.08179511849671885,14.10295182771448,0.2489564361400323,70,1762115196.835794
0.49889811873435974,0.1565466821193695,-0.12575966119766235,0.9982786774635315,0.4334379732608795,0.25541767477989197,0.052444297820329666,0.997596800327301,0.4550124704837799,0.26257798075675964,-0.2567315995693207,0.9997693300247192,0.4387940466403961,0.5608068108558655,0.09186537563800812,0.9979525804519653,0.46312910318374634,0.5680922865867615,-0.0920734629034996,0.9985519647598267,0.44549959897994995,0.7341234683990479,0.21471068263053894,0.7029628753662109,0.4814125895500183,0.7525272965431213,0.025751251727342606,0.933043897151947,0.4143908619880676,0.9033532738685608,0.3676990866661072,0.856633186340332,0.46307817101478577,0.94224613904953,0.1826932281255722,0.9543592929840088,0.45510047674179077,0.5506462454795837,0.0493868812918663,0.09483816474676132,0.5004567503929138,0.5976737141609192,-0.2586285471916199,0.7930997610092163,-178.73661853338223,0.45096157491207123,0.5644495487213135,168.27011505996165,168.554358676675,0.8669076795180256,0.035536814046242565,-0.015845300438763622,0.34251407747712526,-0.06764687329294578,18.36036045050402,0.27247777736475787,71,1762115196.9014895
0.5004291534423828,0.1541772484779358,-0.1284393072128296,0.998330295085907,0.4383007884025574,0.25424811244010925,0.04676410183310509,0.9974119663238525,0.45412856340408325,0.2612130343914032,-0.25917115807533264,0.9997789859771729,0.4424189031124115,0.5578112602233887,0.09149736911058426,0.9978179931640625,0.4630500376224518,0.567297637462616,-0.09166868031024933,0.9985431432723999,0.4495822489261627,0.7322518825531006,0.2113397866487503,0.6829054951667786,0.4812192916870117,0.7531055808067322,0.02588120475411415,0.9347327947616577,0.4231172502040863,0.8960013389587402,0.3660598397254944,0.851420521736145,0.4633858799934387,0.9402285814285278,0.17999528348445892,0.9562651515007019,0.460217148065567,0.5526658892631531,0.042219288647174835,0.08740802109241486,0.5005999803543091,0.5972408652305603,-0.2700995206832886,0.7993396520614624,-178.77470307539625,0.45273447036743164,0.5625544488430023,167.6127547223852,168.5549783912818,0.8648963815097063,0.020980815242846097,-0.022427007917115754,-0.1722587311314789,-0.07788930146345954,23.751620302104687,0.2943446529248482,72,1762115196.9859903
0.5007147789001465,0.15262076258659363,-0.1524859517812729,0.9983357191085815,0.4448656439781189,0.2537333071231842,0.028018515557050705,0.9971230030059814,0.4529271125793457,0.26054269075393677,-0.2747030258178711,0.9997826814651489,0.44555211067199707,0.556849479675293,0.09184938669204712,0.9976230263710022,0.46307283639907837,0.5667344927787781,-0.09200798720121384,0.9985207915306091,0.45363545417785645,0.7312876582145691,0.21796703338623047,0.665293276309967,0.48105818033218384,0.7530803084373474,0.02846095897257328,0.9372556209564209,0.43066415190696716,0.8937657475471497,0.37944066524505615,0.8472521305084229,0.46516045928001404,0.9396296739578247,0.18861958384513855,0.9582478404045105,0.4685426354408264,0.5562729835510254,0.024492880329489708,0.0805925652384758,0.5005699992179871,0.5972532629966736,-0.2753816545009613,0.8029825687408447,-178.98151107019342,0.4543124735355377,0.5617919862270355,168.0761340919599,168.6090680361418,0.8815599632453683,0.0223760188781944,-0.010811687982392973,0.019783929154558212,0.16470475052820233,40.18720401687308,0.2786700628790743,73,1762115197.0565124
0.5001765489578247,0.1505950391292572,-0.15409931540489197,0.9981569647789001,0.45121926069259644,0.253754585981369,0.026716867461800575,0.9964343905448914,0.4505027234554291,0.26000770926475525,-0.28161516785621643,0.9997774958610535,0.45659223198890686,0.5566729307174683,0.09203831851482391,0.9971100091934204,0.46285027265548706,0.5646572709083557,-0.0921207144856453,0.9982936978340149,0.4721335768699646,0.7316908836364746,0.2068362534046173,0.6349101066589355,0.4791008532047272,0.7545837163925171,0.009624538943171501,0.9364675879478455,0.4478376507759094,0.8994117975234985,0.37605398893356323,0.8136021494865417,0.4650266170501709,0.9414312839508057,0.13659922778606415,0.9550087451934814,0.4773041307926178,0.5538623332977295,0.022871149703860283,0.07541456073522568,0.49842047691345215,0.5969890356063843,-0.285368949174881,0.809469997882843,-178.32936652552524,0.45972125232219696,0.560665100812912,164.34932668103067,170.0812024746223,0.873496339616585,0.08208553900373049,-0.017102011426669225,0.9061727862207558,-0.09546417237561705,96.5369368724784,0.46180667072024717,74,1762115197.1224043
0.5011690855026245,0.1511729657649994,-0.156919464468956,0.9979643821716309,0.45484986901283264,0.25432491302490234,0.02752259373664856,0.9956138134002686,0.4492783546447754,0.2601167857646942,-0.2897565960884094,0.9997758269309998,0.46359381079673767,0.5567095279693604,0.09402993321418762,0.9963394403457642,0.46074503660202026,0.5643163323402405,-0.09406132996082306,0.9979735612869263,0.47951140999794006,0.7322489619255066,0.2043035477399826,0.6172917485237122,0.47401848435401917,0.7612294554710388,0.0008907578885555267,0.9375409483909607,0.4584806561470032,0.902166485786438,0.35134729743003845,0.7872911095619202,0.4626016616821289,0.9429064393043518,0.12241898477077484,0.9533603191375732,0.4780729413032532,0.5535562038421631,0.02723335660994053,0.07118991762399673,0.4954545497894287,0.5949355363845825,-0.29139846563339233,0.8177780508995056,-178.09168241959873,0.46216942369937897,0.5605129301548004,166.92038290563434,169.68329487693063,0.8670252388121945,0.038441344274814875,-0.0023893934515831954,-0.6853039500455591,0.2310184728224052,133.88906165864094,0.6228316639797266,75,1762115197.1860902
0.5015291571617126,0.1512434184551239,-0.18335886299610138,0.9980554580688477,0.4606053829193115,0.25461047887802124,0.009993605315685272,0.9955557584762573,0.44794851541519165,0.261677086353302,-0.30426445603370667,0.999786376953125,0.47151118516921997,0.5568185448646545,0.09552466124296188,0.9960002303123474,0.45981264114379883,0.5640107989311218,-0.09555254876613617,0.9978926181793213,0.48183831572532654,0.7301463484764099,0.21634943783283234,0.6023708581924438,0.4705943465232849,0.760540783405304,0.0076324669644236565,0.9394733905792236,0.4640984535217285,0.8924546837806702,0.3712567687034607,0.763677179813385,0.4602132737636566,0.9405763149261475,0.1375061422586441,0.9528990387916565,0.48218464851379395,0.5524047017097473,0.0073912618681788445,0.07058507204055786,0.49038171768188477,0.5905029773712158,-0.31199905276298523,0.8280861973762512,-177.8429871732542,0.4656619131565094,0.5604146718978882,168.56615006764906,170.22440181885918,0.8825011050788583,0.04580137605212802,-0.0012885832384906888,0.09652128870427744,0.014436299135831611,150.8244163237163,0.8096568871026332,76,1762115197.2623432
0.5013207197189331,0.15240298211574554,-0.2154432237148285,0.9981623291969299,0.4617701470851898,0.256278395652771,-0.012397293001413345,0.9956436157226562,0.445914089679718,0.2645259499549866,-0.32625097036361694,0.9998020529747009,0.4751601219177246,0.5569013953208923,0.09761122614145279,0.9957025051116943,0.4596683084964752,0.564088761806488,-0.09763619303703308,0.9978919625282288,0.4798969328403473,0.7305189967155457,0.24008838832378387,0.5888469219207764,0.46732062101364136,0.76603102684021,0.01858886145055294,0.9420784711837769,0.4667012095451355,0.8843220472335815,0.4110051989555359,0.7426369786262512,0.4585529863834381,0.9404871463775635,0.17166846990585327,0.9533562064170837,0.4846816658973694,0.5517345666885376,-0.013041417114436626,0.07047011703252792,0.48692840337753296,0.5865546464920044,-0.3372187316417694,0.8397590517997742,-177.41048750923704,0.4674142152070999,0.5604950785636902,170.2555369886851,167.95394749863414,0.9142897123065619,0.021330832053912705,0.0009787930589133292,-0.2978807586956309,0.027600848259379033,152.5187296355328,1.2357728811641524,77,1762115197.344492
0.5012504458427429,0.15345999598503113,-0.2172354757785797,0.9982891082763672,0.4633861184120178,0.2584976851940155,-0.021492762491106987,0.995732843875885,0.4444350302219391,0.2685227394104004,-0.31452953815460205,0.9998158812522888,0.4775705933570862,0.5569664239883423,0.09653158485889435,0.9953966736793518,0.4595978260040283,0.5640599727630615,-0.09659932553768158,0.997909426689148,0.478442519903183,0.7307237386703491,0.22927340865135193,0.5787963271141052,0.4657509922981262,0.7653086185455322,0.02362341247498989,0.9446053504943848,0.46475011110305786,0.8797637820243835,0.3896030783653259,0.7261409163475037,0.4587323069572449,0.9395641684532166,0.17064978182315826,0.9542349576950073,0.4881799817085266,0.5495068430900574,-0.014918619766831398,0.07244475185871124,0.4822452962398529,0.5852717161178589,-0.32132333517074585,0.8510066866874695,-177.17156271838482,0.46858420968055725,0.5605131983757019,169.56737684728802,170.13585357874123,0.9059659504894174,0.013674803125470241,0.0002117829336394897,-0.0894830622660828,-0.008964753848253532,152.12132842104964,1.4168462967132336,78,1762115197.4300504
0.5009822845458984,0.15534186363220215,-0.2331395447254181,0.9984294772148132,0.4687439501285553,0.26008641719818115,-0.023256536573171616,0.9959421753883362,0.44117432832717896,0.2726195752620697,-0.32087332010269165,0.999830424785614,0.48166996240615845,0.5570233464241028,0.09574117511510849,0.995147705078125,0.45959678292274475,0.5645342469215393,-0.09582037478685379,0.9979351162910461,0.4802064299583435,0.7284084558486938,0.224102184176445,0.5756027102470398,0.4648239016532898,0.7647642493247986,0.016512874513864517,0.9465872645378113,0.4642776846885681,0.8714438676834106,0.3774626851081848,0.713665783405304,0.4576255679130554,0.9392648339271545,0.15106333792209625,0.9547213315963745,0.49475494027137756,0.5389721989631653,-0.012073983438313007,0.08572497963905334,0.4784354269504547,0.5842111706733704,-0.3423181176185608,0.8627281188964844,-176.95264326020708,0.4706333726644516,0.560778796672821,169.09876812720304,171.0688925417213,0.9008498695508187,0.02616062732087417,0.0033907591160893653,0.1594002020030422,0.0405843809519518,155.55344142338194,1.3553703050433616,79,1762115197.5083804
0.5005463361740112,0.16206690669059753,-0.22712001204490662,0.9985560178756714,0.47202062606811523,0.2628428637981415,-0.015590501017868519,0.9960296750068665,0.4379428029060364,0.2737389802932739,-0.30463743209838867,0.999845027923584,0.4847795367240906,0.5570749640464783,0.09237430989742279,0.9946699738502502,0.45960307121276855,0.5647497177124023,-0.09236712008714676,0.9979492425918579,0.4808380603790283,0.7238307595252991,0.21075470745563507,0.5843930840492249,0.4643940031528473,0.7610288858413696,-0.003526778193190694,0.9490556120872498,0.4666662812232971,0.8649455308914185,0.34284624457359314,0.7079468965530396,0.45745640993118286,0.938764214515686,0.1013069748878479,0.9548757672309875,0.4963006377220154,0.5304433703422546,-0.008193368092179298,0.0962507575750351,0.4751666188240051,0.5841849446296692,-0.32714030146598816,0.8738629221916199,-176.63420962715512,0.47219130396842957,0.5609123408794403,171.6674751102998,173.03041989297267,0.8663399645482448,0.02077029131768408,0.001780407177254017,-0.0718637906566145,-0.02146916157869346,162.26873071375894,1.6303619844042365,80,1762115197.583388
0.5001884698867798,0.1638973206281662,-0.22956964373588562,0.9986579418182373,0.47190457582473755,0.2631851136684418,-0.009854462929069996,0.9960238337516785,0.43734869360923767,0.27329307794570923,-0.2984609305858612,0.9998582005500793,0.48478764295578003,0.5565292835235596,0.09175939857959747,0.9940425753593445,0.46012163162231445,0.5646531581878662,-0.0917448028922081,0.9979241490364075,0.4791524410247803,0.7226905226707458,0.19750630855560303,0.5778766870498657,0.46312084794044495,0.7555644512176514,-0.013687570579349995,0.9496225714683533,0.4663500189781189,0.8658022284507751,0.32176706194877625,0.6928765177726746,0.45651763677597046,0.9379174709320068,0.08636774867773056,0.9536946415901184,0.49341121315956116,0.5283315777778625,-0.017175057902932167,0.10479914397001266,0.46820083260536194,0.5835224390029907,-0.3275686204433441,0.884495735168457,-176.51035224149808,0.47245463728904724,0.5605912208557129,171.2194581375727,172.95595713394724,0.8568148614996935,0.003998161099286159,-0.004875530312902712,-0.2546494246685898,-0.10105637330667046,163.69523880655333,1.8372155304161604,81,1762115197.6492517
0.4993666708469391,0.1638762503862381,-0.2571868300437927,0.9987879395484924,0.47771650552749634,0.2665736675262451,-0.011591780930757523,0.9963033199310303,0.43525761365890503,0.27304500341415405,-0.27019304037094116,0.9998714923858643,0.48763924837112427,0.5575805902481079,0.0884251520037651,0.9943333268165588,0.460575670003891,0.5662755966186523,-0.08844441920518875,0.9980571866035461,0.47766223549842834,0.7232775092124939,0.2060655802488327,0.5937511324882507,0.4592839181423187,0.7555572390556335,-0.007331454660743475,0.9531081914901733,0.46624699234962463,0.865360677242279,0.3230563998222351,0.7022098898887634,0.45338863134384155,0.9379523396492004,0.11165671050548553,0.9557752013206482,0.5035178065299988,0.5263222455978394,-0.0386754535138607,0.13903415203094482,0.45817047357559204,0.5837947130203247,-0.33682554960250854,0.8952662348747253,-176.54814095115256,0.47410745918750763,0.5619280934333801,175.82503922109322,170.00064323278684,0.8781089031976056,0.028352136091480174,0.022932412315142,0.41776262402523934,0.4770112100697652,171.33400569117853,2.0355661070870137,82,1762115197.707548
0.49826130270957947,0.16370317339897156,-0.2646162211894989,0.998907208442688,0.48018088936805725,0.2666725516319275,-0.008297106251120567,0.996588945388794,0.4348648488521576,0.27206552028656006,-0.2597595453262329,0.9998835325241089,0.4874028265476227,0.5576050281524658,0.08765141665935516,0.9946433901786804,0.46039295196533203,0.5661471486091614,-0.08769743144512177,0.9981812834739685,0.47698235511779785,0.7235007286071777,0.20617394149303436,0.6112470030784607,0.4565521776676178,0.7567600011825562,-0.0026710962411016226,0.9563058614730835,0.4644719660282135,0.8673685789108276,0.3312411606311798,0.7141298651695251,0.45160213112831116,0.93877112865448,0.11225233227014542,0.9578198194503784,0.5091662406921387,0.5263654589653015,-0.032356344163417816,0.18199476599693298,0.45034509897232056,0.583728551864624,-0.33903831243515015,0.9051333665847778,-176.79583358328279,0.47389788925647736,0.5618760883808136,174.47386521926384,171.76021484941631,0.885906324039823,-0.0026507600956565533,-0.0006577895857395741,-0.39214232527839715,-0.2983823372939183,173.21326707846384,1.875456608043615,83,1762115197.7866082
0.4964052140712738,0.16137811541557312,-0.24830356240272522,0.9990146160125732,0.4832267165184021,0.26669546961784363,0.0062758163549005985,0.9968443512916565,0.4340813159942627,0.26979362964630127,-0.22652669250965118,0.9998941421508789,0.4866427481174469,0.5558661818504333,0.08526892960071564,0.9949730634689331,0.45926928520202637,0.5643695592880249,-0.08535914868116379,0.9983024597167969,0.47646111249923706,0.7241562604904175,0.18938027322292328,0.6300985217094421,0.4537540376186371,0.7577043175697327,-0.008802305907011032,0.9589441418647766,0.4632291793823242,0.8691916465759277,0.302866667509079,0.7274048924446106,0.4490698277950287,0.9385524988174438,0.0945916548371315,0.959517240524292,0.5125064849853516,0.5265213251113892,-0.026791874319314957,0.22222569584846497,0.44390591979026794,0.5794956684112549,-0.3320806622505188,0.9139147996902466,-177.1947098326758,0.47295601665973663,0.5601178705692291,173.5916280658355,171.83524028166315,0.8676151536096234,-0.014765740342746081,-0.027563587433889626,-0.18992659220052174,-0.42180229695074534,176.39280787330065,1.5963708349553094,84,1762115197.850396
0.4948921203613281,0.16014225780963898,-0.25504574179649353,0.9991116523742676,0.4889300763607025,0.2671980857849121,0.0013108751736581326,0.9970994591712952,0.4331662058830261,0.267640620470047,-0.22755217552185059,0.9999037981033325,0.4868970513343811,0.5520357489585876,0.0825771912932396,0.9953100681304932,0.4580163359642029,0.5606445074081421,-0.08270981907844543,0.9984243512153625,0.4763617515563965,0.724220871925354,0.18262770771980286,0.6474691033363342,0.45262160897254944,0.7510169744491577,-0.010288750752806664,0.9611921310424805,0.462455689907074,0.8691914081573486,0.29512137174606323,0.7401558756828308,0.4471403658390045,0.9354732036590576,0.09145987778902054,0.9611892700195312,0.5153871774673462,0.524687647819519,-0.04097229987382889,0.27600589394569397,0.44000688195228577,0.5766605138778687,-0.3252413868904114,0.9219852089881897,-177.73874863692484,0.472456693649292,0.5563401281833649,172.24241443176498,171.93926913616465,0.8680202194262813,-0.007875635052251967,-0.059584917438506635,0.10867505323097522,-0.5050604593197472,179.54531783263,1.1767881989774462,85,1762115197.913797
0.49239811301231384,0.15910543501377106,-0.2591218948364258,0.9991995692253113,0.490231990814209,0.26745331287384033,-0.005778082646429539,0.9973369240760803,0.43316584825515747,0.26471376419067383,-0.22520247101783752,0.999912679195404,0.48658519983291626,0.5482177138328552,0.07788415253162384,0.9956369400024414,0.4570447504520416,0.5570094585418701,-0.07800696790218353,0.998548150062561,0.4777643084526062,0.7148341536521912,0.18805906176567078,0.6699778437614441,0.4506255090236664,0.7480597496032715,-0.01321565080434084,0.9640334844589233,0.464754194021225,0.854222297668457,0.3099353015422821,0.7559593915939331,0.4409811496734619,0.9339050054550171,0.07720041275024414,0.963124692440033,0.5163962244987488,0.5212751030921936,-0.037409402430057526,0.3227238357067108,0.4351218342781067,0.5752056837081909,-0.3234204649925232,0.9293019771575928,-177.97798989960773,0.47181497514247894,0.5526135861873627,172.16744824846546,172.73491585508359,0.864091573503765,-0.00808889159363843,-0.04697323500066116,-0.0026881086124136066,0.15897084308781728,-177.25153733818615,0.8929947091782354,86,1762115197.9931302
0.4917432367801666,0.15651683509349823,-0.2814163863658905,0.9992790222167969,0.49451255798339844,0.26862218976020813,-0.02780086360871792,0.9975550770759583,0.43309658765792847,0.2633417248725891,-0.2354055643081665,0.9999209046363831,0.4868767261505127,0.5442613959312439,0.07568024098873138,0.9959741830825806,0.4568978250026703,0.5501046180725098,-0.07583440840244293,0.9986756443977356,0.47921448945999146,0.7074205875396729,0.20191283524036407,0.6911998391151428,0.4503886103630066,0.7440578937530518,-0.014826858416199684,0.9667733311653137,0.46554166078567505,0.8454517126083374,0.33915916085243225,0.7724620699882507,0.4400266110897064,0.9292203187942505,0.0706012025475502,0.9654121994972229,0.5184643864631653,0.5217439532279968,-0.05850011110305786,0.3661132752895355,0.4325679838657379,0.5749064683914185,-0.32804638147354126,0.9359011650085449,-178.3535720035739,0.4718872755765915,0.5471830070018768,172.64364712152928,172.61070615397014,0.8786915490633552,0.0011396862621297194,-0.0856033102577401,0.14547192600311096,-0.6089336338837922,-175.08586892595133,0.6725265724364847,87,1762115198.056569
0.4889557957649231,0.1564537137746811,-0.29052311182022095,0.9993506073951721,0.4971088767051697,0.269472599029541,-0.028000418096780777,0.9977465867996216,0.432603657245636,0.2626151442527771,-0.22836773097515106,0.9999282360076904,0.4863804876804352,0.5432838797569275,0.07474811375141144,0.996286928653717,0.45553264021873474,0.5474549531936646,-0.07493176311254501,0.9987917542457581,0.47894367575645447,0.7058299779891968,0.2089478224515915,0.707859456539154,0.44971078634262085,0.7351449728012085,-0.012295858934521675,0.969164252281189,0.4649065136909485,0.8430205583572388,0.35125142335891724,0.7865481376647949,0.4360886514186859,0.9172446131706238,0.08396247774362564,0.9674801826477051,0.5213302969932556,0.5224946737289429,-0.05892498046159744,0.4063494801521301,0.42920494079589844,0.5711658596992493,-0.32516321539878845,0.9418356418609619,-178.74889452932842,0.47095656394958496,0.545369416475296,173.18017975764963,170.36534915538337,0.8850911276318412,-0.01172574313039926,-0.022848856768674382,-0.1620874994377016,0.7906236266415622,-173.93176173555395,0.4410709285620831,88,1762115198.1359425
0.48786887526512146,0.15667667984962463,-0.28435420989990234,0.9994151592254639,0.5007043480873108,0.27002716064453125,-0.026761194691061974,0.9979397654533386,0.4320361018180847,0.2626292109489441,-0.21575403213500977,0.9999348521232605,0.4872719645500183,0.5414775609970093,0.0723768100142479,0.9965773224830627,0.4546831548213959,0.5445570349693298,-0.07255835831165314,0.9988960027694702,0.4789796769618988,0.7056242227554321,0.20371539890766144,0.7246217727661133,0.44822922348976135,0.728749692440033,-0.015501086600124836,0.9714688062667847,0.4648090898990631,0.8440061211585999,0.34444567561149597,0.8007252216339111,0.43354931473731995,0.9112169742584229,0.07131339609622955,0.969498336315155,0.5252957344055176,0.5228434801101685,-0.058481037616729736,0.44994571805000305,0.4250912666320801,0.5648263692855835,-0.31139397621154785,0.9471704363822937,-179.0460179719885,0.4709775596857071,0.5430172979831696,172.93564656403836,171.470249002048,0.8738066347575034,0.00033079341587282507,-0.03705825344832767,0.18995394515046124,-0.2238728300742875,-173.85097594980923,0.3193716593882878,89,1762115198.1994133
0.4864717423915863,0.15667076408863068,-0.3164426386356354,0.9994734525680542,0.5032554864883423,0.27215632796287537,-0.04441673681139946,0.9981223344802856,0.4303223490715027,0.26267993450164795,-0.22589953243732452,0.9999409317970276,0.48912757635116577,0.5388288497924805,0.07232527434825897,0.9968762397766113,0.4540521204471588,0.5415459275245667,-0.07252245396375656,0.9989983439445496,0.48142924904823303,0.6994101405143738,0.22859492897987366,0.7440729737281799,0.4456881880760193,0.7242118120193481,-0.014756396412849426,0.9739410281181335,0.46615496277809143,0.8408884406089783,0.3951250910758972,0.8168922066688538,0.43101564049720764,0.9068133234977722,0.07222986221313477,0.9719401597976685,0.5273009538650513,0.522912859916687,-0.07091726362705231,0.4900316298007965,0.4214206635951996,0.5610948801040649,-0.3220740556716919,0.9519764184951782,-178.9916581303465,0.4715898483991623,0.5401873886585236,174.1987839751404,171.9102760061637,0.9046628351119402,0.009644742969595001,-0.04457659836558106,0.14671289459265388,-0.11842861494943348,-172.59688446407273,0.32060885198089983,90,1762115198.2628975
0.4860050082206726,0.15671135485172272,-0.3156127631664276,0.999525785446167,0.5056377053260803,0.273884654045105,-0.049655474722385406,0.9982815384864807,0.42893725633621216,0.26283326745033264,-0.22501568496227264,0.9999462366104126,0.489745557308197,0.53778076171875,0.07010217756032944,0.9971412420272827,0.45178914070129395,0.5406739115715027,-0.0703020915389061,0.9990859627723694,0.4816230237483978,0.700337290763855,0.21847084164619446,0.7625872492790222,0.4427623152732849,0.7243847250938416,-0.0021969820372760296,0.9760845303535461,0.46577662229537964,0.8439015746116638,0.37073516845703125,0.8318834900856018,0.42886605858802795,0.902276337146759,0.1198500394821167,0.9740592241287231,0.5283917188644409,0.5231185555458069,-0.08214887976646423,0.5241287350654602,0.41681328415870667,0.5596664547920227,-0.3212791085243225,0.9563154578208923,-179.26395692786056,0.4707673490047455,0.5392273366451263,175.15641322857422,165.8651792710084,0.9106635626227209,-0.01295208032978915,-0.015118151919264732,-0.3558371866999315,0.4638886877649515,-171.80096375918575,0.23398273111240647,91,1762115198.3264008
0.48507586121559143,0.15695936977863312,-0.3225526809692383,0.9995729327201843,0.5085691213607788,0.27865055203437805,-0.06600897014141083,0.9984346628189087,0.42708539962768555,0.26442310214042664,-0.22226087749004364,0.9999509453773499,0.4895254075527191,0.5371090769767761,0.06459169834852219,0.9973933696746826,0.4497305750846863,0.5389721989631653,-0.06478922814130783,0.9991667866706848,0.4821856617927551,0.6971070766448975,0.2022271603345871,0.7813457250595093,0.4405384063720703,0.7224242091178894,0.0077650537714362144,0.9780892133712769,0.46618276834487915,0.8434532284736633,0.3669360876083374,0.8465135097503662,0.4273591935634613,0.8952711224555969,0.14170019328594208,0.9760891199111938,0.5320954918861389,0.52396559715271,-0.10216370970010757,0.5599631667137146,0.415052592754364,0.5563132762908936,-0.31058257818222046,0.960070788860321,-179.6128659255063,0.4696279913187027,0.5380406379699707,172.02823173522614,163.80715731178697,0.9174775016329986,-0.014324118757868234,-0.014919294406810142,-0.017249404313427887,0.0025000565311382233,-170.09572576046978,0.12340489776488398,92,1762115198.405942
0.4824890196323395,0.1579899787902832,-0.3045036792755127,0.9996154308319092,0.5099388360977173,0.2817988693714142,-0.05587426945567131,0.9985801577568054,0.4262697100639343,0.2647998332977295,-0.18586091697216034,0.9999552369117737,0.48923569917678833,0.5370426774024963,0.05711621046066284,0.9976246953010559,0.44803231954574585,0.5371866822242737,-0.05727282911539078,0.9992403388023376,0.4823731780052185,0.6968508958816528,0.16425985097885132,0.7990016341209412,0.4379982352256775,0.7212756872177124,-0.00454640481621027,0.9798922538757324,0.4662299156188965,0.8445731997489929,0.3188703954219818,0.8598645925521851,0.42641299962997437,0.8912032842636108,0.12638148665428162,0.9778540134429932,0.5341590046882629,0.5244292616844177,-0.09879676252603531,0.5960928201675415,0.41359400749206543,0.5485233664512634,-0.2739531397819519,0.9634178876876831,-179.8849512933656,0.4686340093612671,0.537114679813385,167.34252377784415,158.39591125282402,0.8849459154494823,-0.012628433086059255,-0.011764198065628095,0.021543502758012943,0.0400851572069597,-168.51554584764276,0.03820604165021906,93,1762115198.4846518
0.4802810251712799,0.15884335339069366,-0.3274121880531311,0.999653697013855,0.5102097988128662,0.2821420431137085,-0.08529739081859589,0.9987124800682068,0.42499810457229614,0.26571181416511536,-0.19704243540763855,0.9999589920043945,0.48957544565200806,0.5363851189613342,0.05015292018651962,0.997842013835907,0.44706422090530396,0.5360652208328247,-0.05034219101071358,0.9993073344230652,0.4822426438331604,0.6960335373878479,0.1684800386428833,0.8158189058303833,0.4363119602203369,0.7140166163444519,0.028631985187530518,0.9814871549606323,0.4661492705345154,0.842858612537384,0.3222478926181793,0.8722637891769409,0.42564326524734497,0.8772718906402588,0.18597012758255005,0.9794577956199646,0.5354987382888794,0.5258960723876953,-0.12284054607152939,0.6319891214370728,0.41125601530075073,0.5511577725410461,-0.28227683901786804,0.9664483070373535,-179.84362498401325,0.468319833278656,0.5362251698970795,169.98193569113766,160.0062740665057,0.9116256720538816,-0.0036439278929510633,-0.010316857884738226,0.10420554233613581,0.016786775148196362,-169.08635735857897,0.05349572260906835,94,1762115198.5708709
0.4775846004486084,0.1593209058046341,-0.3205392062664032,0.9996880888938904,0.5099404454231262,0.2825664281845093,-0.08498115837574005,0.9988343715667725,0.42402467131614685,0.2666374742984772,-0.18590047955513,0.999962329864502,0.4897190034389496,0.5367260575294495,0.046015068888664246,0.9980441331863403,0.4455380439758301,0.536659300327301,-0.04622649401426315,0.9993688464164734,0.482113778591156,0.6969821453094482,0.16316770017147064,0.8314221501350403,0.43478021025657654,0.7127511501312256,0.037273332476615906,0.9829384088516235,0.46606531739234924,0.8432611227035522,0.31705111265182495,0.883610188961029,0.425405353307724,0.8725377321243286,0.20000644028186798,0.9808664917945862,0.5356813669204712,0.5264347195625305,-0.11972461640834808,0.6653356552124023,0.4098127484321594,0.5527430772781372,-0.2700275778770447,0.9689769744873047,-179.85878549405447,0.46762852370738983,0.5366926789283752,169.50840603073775,159.85020438928564,0.9079350500822833,-0.01193962783917777,0.008074362162963452,-0.14327527657692116,0.31763529973381044,-169.49651435851067,0.050812763403927326,95,1762115198.6287713
0.47536659240722656,0.15967266261577606,-0.31199532747268677,0.9997188448905945,0.5092884302139282,0.2842055559158325,-0.0741836354136467,0.9989418387413025,0.42237910628318787,0.2685166299343109,-0.16510125994682312,0.9999649524688721,0.48956218361854553,0.5367286205291748,0.04121461510658264,0.9982233047485352,0.44382914900779724,0.5359181761741638,-0.04139538109302521,0.9994222521781921,0.48207536339759827,0.6965200901031494,0.14924141764640808,0.8455054759979248,0.4336087107658386,0.7088744044303894,0.037166934460401535,0.9841572046279907,0.46601757407188416,0.843562126159668,0.3023725152015686,0.893692672252655,0.4251955449581146,0.8698517084121704,0.19871532917022705,0.9820348620414734,0.5354093313217163,0.5264500379562378,-0.11019685119390488,0.6940147876739502,0.40858644247055054,0.5508140921592712,-0.24808362126350403,0.9708802103996277,-179.81003807283804,0.4666956663131714,0.5363233983516693,167.73099858016363,159.323206698876,0.8962102538733596,-0.012257716117066936,-0.004852334885119767,-0.004179669727331408,-0.16985638290350197,-169.76713511246584,0.07043677887806087,96,1762115198.704875
0.4736567437648773,0.15995174646377563,-0.284681111574173,0.9997460246086121,0.508601725101471,0.283926784992218,-0.06820118427276611,0.9990364909172058,0.4203092157840729,0.26942649483680725,-0.14365379512310028,0.9999663233757019,0.4893713593482971,0.5368940234184265,0.03826150298118591,0.9983832240104675,0.4414699673652649,0.5363873839378357,-0.03841795027256012,0.9994680285453796,0.48169222474098206,0.696897029876709,0.14461728930473328,0.8584334850311279,0.4314344823360443,0.7094197869300842,0.04018918797373772,0.9852455258369446,0.465949147939682,0.8441535234451294,0.3002089560031891,0.9028361439704895,0.42484039068222046,0.865662157535553,0.20580074191093445,0.9830405712127686,0.5339236259460449,0.5264716744422913,-0.10257716476917267,0.7188988327980042,0.4073542654514313,0.5472965836524963,-0.2229817807674408,0.9713338613510132,-179.78727357357457,0.465420663356781,0.5366407036781311,166.91064720769023,157.7387527832233,0.8791296286538701,-0.01999958862049493,0.004977224534673683,-0.12143835780524562,0.15418563834011118,-170.673561513953,0.0864126089516738,97,1762115198.7686265
0.47115206718444824,0.16007183492183685,-0.2866058647632599,0.9997706413269043,0.507881760597229,0.2835853695869446,-0.07094354182481766,0.9991232752799988,0.41831809282302856,0.269451767206192,-0.14990723133087158,0.9999675154685974,0.4887492060661316,0.5368370413780212,0.03658067435026169,0.9985288381576538,0.4392273426055908,0.5358792543411255,-0.03672892227768898,0.9995096325874329,0.4813992381095886,0.6962316036224365,0.143814817070961,0.8699188232421875,0.42987990379333496,0.7057926654815674,0.045776888728141785,0.9861781597137451,0.4658966064453125,0.844072699546814,0.30418604612350464,0.9108991026878357,0.42458590865135193,0.8602465987205505,0.21849027276039124,0.9838517308235168,0.5330661535263062,0.5268105268478394,-0.10261009633541107,0.7418407201766968,0.40440043807029724,0.5421373844146729,-0.2261720895767212,0.9714117646217346,-179.80411617239452,0.4639882743358612,0.5363581478595734,166.48731628437963,157.66582206422672,0.8831192254156436,-0.014666410340913252,-0.0028931243668143592,0.05460707945063909,-0.08058548678434924,-171.03238507134358,0.08542368051578116,98,1762115198.866291
0.46879997849464417,0.1597268432378769,-0.2984735369682312,0.9997930526733398,0.5076348185539246,0.2833479344844818,-0.0836457833647728,0.9992008209228516,0.41567039489746094,0.2694791257381439,-0.16202287375926971,0.9999690055847168,0.4872732162475586,0.5364792943000793,0.03649120777845383,0.9986605644226074,0.43689101934432983,0.535202145576477,-0.03665807843208313,0.9995481967926025,0.4813641905784607,0.6934531331062317,0.14850786328315735,0.8803669214248657,0.42920762300491333,0.7021563053131104,0.051722485572099686,0.9870637059211731,0.46597304940223694,0.8420305848121643,0.3094443678855896,0.918245255947113,0.42438140511512756,0.8573092222213745,0.22585637867450714,0.9846255779266357,0.5329987406730652,0.5273544788360596,-0.11124781519174576,0.7621926069259644,0.40095868706703186,0.5431213974952698,-0.23601536452770233,0.9715384244918823,-179.9051404399401,0.4620821177959442,0.5358407199382782,168.0184114547434,159.5708881192078,0.8927909848098612,-0.026418398704688893,-0.00717129828503453,-0.1628768192252507,-0.059293401109891744,-171.42406221131668,0.04248513208052276,99,1762115198.9384437
