nose_x,nose_y,nose_z,nose_visibility,left_shoulder_x,left_shoulder_y,left_shoulder_z,left_shoulder_visibility,right_shoulder_x,right_shoulder_y,right_shoulder_z,right_shoulder_visibility,left_hip_x,left_hip_y,left_hip_z,left_hip_visibility,right_hip_x,right_hip_y,right_hip_z,right_hip_visibility,left_knee_x,left_knee_y,left_knee_z,left_knee_visibility,right_knee_x,right_knee_y,right_knee_z,right_knee_visibility,left_ankle_x,left_ankle_y,left_ankle_z,left_ankle_visibility,right_ankle_x,right_ankle_y,right_ankle_z,right_ankle_visibility,left_wrist_x,left_wrist_y,left_wrist_z,left_wrist_visibility,right_wrist_x,right_wrist_y,right_wrist_z,right_wrist_visibility,trunk_lateral_inclination,center_mass_x,center_mass_y,left_knee_angle,right_knee_angle,person_height,center_mass_velocity_x,center_mass_velocity_y,center_mass_acceleration_x,center_mass_acceleration_y,body_orientation,torso_leg_ratio,frame,timestamp
0.5020192861557007,0.37847208976745605,-0.24654388427734375,0.9999947547912598,0.5445550084114075,0.4682658612728119,-0.134978249669075,0.9999855756759644,0.4583562910556793,0.46242743730545044,-0.12288869917392731,0.999967098236084,0.5198631286621094,0.6752573251724243,-0.007570081390440464,0.9998748302459717,0.47071757912635803,0.6721586585044861,0.007346068974584341,0.9997707009315491,0.5226307511329651,0.8395785689353943,-0.0010355995036661625,0.9888730645179749,0.4772889018058777,0.832503616809845,0.04275577887892723,0.9761967658996582,0.5294344425201416,0.9603374004364014,0.11893975734710693,0.9809989333152771,0.4757916331291199,0.9460052251815796,0.16884247958660126,0.9575639963150024,0.5639727711677551,0.7002317905426025,-0.11037449538707733,0.9785894751548767,0.4293878674507141,0.6750417351722717,-0.10252131521701813,0.9705675840377808,178.3051443808001,0.4952903538942337,0.6737079918384552,137.45979293029512,144.34140714826222,0.694779850653032,0.0,0.0,0.0,0.0,-176.12515223249792,2.3228353036804053,0,1762115248.3880022
0.5022419691085815,0.3769875764846802,-0.23982103168964386,0.9999949932098389,0.5445519685745239,0.4679330289363861,-0.1294170469045639,0.9999863505363464,0.4579828679561615,0.46257588267326355,-0.11742587387561798,0.9999672174453735,0.5208342671394348,0.6782763004302979,-0.007539892103523016,0.9998745322227478,0.47085970640182495,0.6760254502296448,0.007327196653932333,0.9997702836990356,0.5226298570632935,0.8391109108924866,0.0032416037283837795,0.9892024993896484,0.47721362113952637,0.8328988552093506,0.05981917306780815,0.9768484830856323,0.5294330716133118,0.9603582620620728,0.129633828997612,0.9811410307884216,0.4758550226688385,0.9453889727592468,0.20419399440288544,0.9574902653694153,0.5639733076095581,0.6976290345191956,-0.11004824936389923,0.9799501299858093,0.4292641580104828,0.6755666732788086,-0.09058015048503876,0.9712892770767212,178.53466078650763,0.4958469867706299,0.6771508753299713,137.6281733753413,146.3267824269281,0.7050377351422563,0.008327759942928482,0.05150882825040128,0.12459124965102446,0.7706213103833461,-176.45888710613218,1.9903850081458894,1,1762115248.4548428
0.5028200745582581,0.37668225169181824,-0.2209533005952835,0.9999952912330627,0.5445268750190735,0.46793925762176514,-0.1241191178560257,0.9999870657920837,0.4576813280582428,0.4627958834171295,-0.1141100525856018,0.9999678134918213,0.5213319063186646,0.6809901595115662,-0.007510754279792309,0.9998761415481567,0.4710628390312195,0.679621160030365,0.007307962980121374,0.9997721314430237,0.5226198434829712,0.8388230204582214,0.003140366170555353,0.9895610809326172,0.47714701294898987,0.8334317803382874,0.06962725520133972,0.9774404764175415,0.5294300317764282,0.960345447063446,0.11879818141460419,0.9812400937080383,0.475943386554718,0.9423453211784363,0.21015354990959167,0.9569216370582581,0.5639833807945251,0.6969572901725769,-0.10514199733734131,0.9812379479408264,0.4287991523742676,0.676597535610199,-0.08855345845222473,0.972456693649292,178.6922465248207,0.496197372674942,0.6803056597709656,140.24508945752896,149.73349049901742,0.6919489690442785,0.004341118817496515,0.03908631578325496,-0.04939263422195514,-0.15390916691578355,-176.61065167686863,1.7497279879995553,2,1762115248.535556
0.5033382177352905,0.3768596947193146,-0.23266318440437317,0.9999955296516418,0.5444923639297485,0.4682661294937134,-0.1255750209093094,0.9999877214431763,0.45692071318626404,0.4638271629810333,-0.11982916295528412,0.9999682307243347,0.5215178728103638,0.6831197142601013,-0.007374457083642483,0.9998771548271179,0.4711637496948242,0.681473970413208,0.007190302945673466,0.9997704029083252,0.5225875973701477,0.8388494849205017,-0.0015768535668030381,0.9898918867111206,0.47700804471969604,0.8350868821144104,0.06982287019491196,0.9776912927627563,0.5294226408004761,0.9619373679161072,0.11850707232952118,0.981374204158783,0.4759800434112549,0.9421233534812927,0.2220218926668167,0.9561053514480591,0.5639638304710388,0.6963365077972412,-0.10776267200708389,0.9822359085083008,0.428337424993515,0.6804904937744141,-0.09198310226202011,0.9732763171195984,178.84345180165633,0.496340811252594,0.6822968423366547,137.80931721977922,147.21950141408246,0.7022623479649631,0.002241273330104683,0.03111285996349141,-0.032810752625077336,-0.12458777945333055,-177.09818704442014,1.5030799273991082,3,1762115248.5995548
0.5037345290184021,0.3770594298839569,-0.23438993096351624,0.9999957084655762,0.5444827079772949,0.4685347378253937,-0.12637856602668762,0.9999880790710449,0.45645958185195923,0.4642398953437805,-0.12042000144720078,0.9999686479568481,0.5217804312705994,0.6836501359939575,-0.007197809871286154,0.9998744130134583,0.4713076949119568,0.6819027066230774,0.007032198365777731,0.9997662901878357,0.5225556492805481,0.8388543128967285,-0.0017732344567775726,0.990193247795105,0.47696906328201294,0.8353185057640076,0.06539904326200485,0.9780840277671814,0.529411792755127,0.9629650712013245,0.11254546791315079,0.9814662337303162,0.47600191831588745,0.9423745274543762,0.20656433701515198,0.9557621479034424,0.5639587640762329,0.6960734724998474,-0.10522764921188354,0.9830416440963745,0.42801088094711304,0.6814326047897339,-0.09406736493110657,0.9740551114082336,178.96029646698682,0.4965440630912781,0.6827764213085175,139.31294547829754,147.9256962476074,0.6975104911816565,0.003209713855421687,0.007573418674698795,0.015293426088475946,-0.37173031910899107,-177.20662783905462,1.3332482830249504,4,1762115248.6628788
0.5047721862792969,0.3771118223667145,-0.20120182633399963,0.9999959468841553,0.5444669723510742,0.46913769841194153,-0.11108247190713882,0.9999883770942688,0.4558772146701813,0.4645780324935913,-0.1073736920952797,0.999969482421875,0.5220789909362793,0.6856980919837952,-0.006721143610775471,0.9998732805252075,0.4714342951774597,0.6842070817947388,0.006573476828634739,0.9997676014900208,0.52250075340271,0.8408655524253845,-0.0030499075073748827,0.9905499219894409,0.47696274518966675,0.8368759155273438,0.06360533833503723,0.978846549987793,0.5294647812843323,0.9656988382339478,0.091225266456604,0.981742799282074,0.4760032296180725,0.9441409707069397,0.17261813580989838,0.9560796618461609,0.5639569163322449,0.6968929171562195,-0.0883815735578537,0.9837683439254761,0.42575711011886597,0.6817964315414429,-0.08772385120391846,0.9752551317214966,179.10279854737584,0.4967566430568695,0.684952586889267,144.22441280314277,154.91427894987137,0.6669614820045473,0.002680659863986483,0.02744171923009855,-0.006671436778044948,0.2505417465672384,-177.05361778316447,1.1372491314322386,5,1762115248.74218
0.506245493888855,0.37783291935920715,-0.21127939224243164,0.9999961256980896,0.5444574356079102,0.4695376455783844,-0.11369144916534424,0.9999886751174927,0.4552852213382721,0.46634340286254883,-0.10982624441385269,0.9999700784683228,0.5225734710693359,0.6880723834037781,-0.00616934010758996,0.9998717308044434,0.4717194437980652,0.6873648166656494,0.0060408166609704494,0.9997684955596924,0.5224707722663879,0.8440304398536682,0.00012134880671510473,0.9909268021583557,0.4770200252532959,0.8390586972236633,0.062433790415525436,0.9795075058937073,0.5295152068138123,0.9664169549942017,0.10766041278839111,0.9819692969322205,0.47637057304382324,0.9441516399383545,0.18348121643066406,0.9562374949455261,0.5638495087623596,0.6963763236999512,-0.08972103148698807,0.9844589829444885,0.4245249629020691,0.6850907206535339,-0.08946189284324646,0.9763663411140442,179.28966703893127,0.49714645743370056,0.6877186000347137,140.93318030227323,151.28039551387872,0.6788247722357799,0.004899830678634041,0.0347678199499528,0.027894202689840757,0.09208652937257462,-177.94848194661662,0.8519238901832199,6,1762115248.8217368
0.5082382559776306,0.37881579995155334,-0.18276584148406982,0.9999963045120239,0.5444186925888062,0.4708229601383209,-0.09459222853183746,0.9999886751174927,0.454865038394928,0.4694195091724396,-0.1013365238904953,0.9999702572822571,0.5233269929885864,0.69225013256073,-0.004957875236868858,0.9998720288276672,0.4720695912837982,0.6917792558670044,0.004853127058595419,0.9997749328613281,0.5224108099937439,0.8478337526321411,0.010701444931328297,0.9912339448928833,0.4771948754787445,0.8404170274734497,0.062210071831941605,0.9802764058113098,0.5295107364654541,0.9662742018699646,0.10884097963571548,0.9823441505432129,0.47636669874191284,0.9455896019935608,0.16776983439922333,0.9570459127426147,0.5634806156158447,0.6961511373519897,-0.07454999536275864,0.9851697683334351,0.4225223660469055,0.6881548166275024,-0.08871571719646454,0.9775854349136353,179.49815689489216,0.4976982921361923,0.6920146942138672,145.97906872457912,155.89663529845097,0.6604376025682861,0.007485261111973507,0.05827358545482769,0.035069599271310196,0.3188396663825894,-179.10215573275747,0.619589061664211,7,1762115248.8954597
0.5116389393806458,0.3812416195869446,-0.22384612262248993,0.9999961256980896,0.5443253517150879,0.4714406430721283,-0.1038280501961708,0.9999874830245972,0.45490628480911255,0.47246840596199036,-0.12980276346206665,0.9999699592590332,0.5242359638214111,0.6948063969612122,0.001017965842038393,0.9998549222946167,0.4729408323764801,0.6940151453018188,-0.0010486444225534797,0.999768853187561,0.5246860980987549,0.8557571172714233,0.031889766454696655,0.9907201528549194,0.4772850573062897,0.8407681584358215,0.05091289430856705,0.9797729849815369,0.5282594561576843,0.9586434364318848,0.20085039734840393,0.9787352681159973,0.4769372344017029,0.9486128091812134,0.1908685714006424,0.9537028074264526,0.5631672739982605,0.6960629224777222,-0.07221179455518723,0.9849829077720642,0.4211323857307434,0.6947848796844482,-0.12474951893091202,0.9784087538719177,179.73537978151705,0.4985883980989456,0.6944107711315155,132.1903047350177,147.07064234793125,0.7098315560429781,0.010587260265037758,0.028499853954155784,0.03689636262387382,-0.35414013347794476,179.3414840361411,0.6366593167992035,8,1762115248.979533
0.5128523111343384,0.38244858384132385,-0.21399140357971191,0.9999958872795105,0.5443013310432434,0.47180354595184326,-0.09224394708871841,0.9999865293502808,0.4549362063407898,0.4736563265323639,-0.1281670778989792,0.9999691247940063,0.5250374674797058,0.6960294246673584,0.0036906306631863117,0.9998345971107483,0.47350645065307617,0.6947186589241028,-0.0037028149235993624,0.9997583627700806,0.5258311033248901,0.8592449426651001,0.028772469609975815,0.989899218082428,0.47759824991226196,0.8435162901878357,0.03369301185011864,0.9786238074302673,0.527091383934021,0.9579745531082153,0.18671934306621552,0.9733648896217346,0.477195680141449,0.9550438523292542,0.1690995991230011,0.9476833939552307,0.562614381313324,0.696086585521698,-0.06157224252820015,0.9851825833320618,0.4206276834011078,0.6967073082923889,-0.1155686154961586,0.9792165756225586,179.91075123357916,0.499271959066391,0.6953740417957306,130.74435788805712,143.54737920528186,0.695159382923192,0.007186502853733917,0.010127183538830584,-0.0357532890336441,-0.19315796930871246,178.81227378552433,0.806805288867093,9,1762115249.0746503
0.5152133107185364,0.3842223584651947,-0.22649025917053223,0.9999954104423523,0.5443099141120911,0.47186070680618286,-0.09904094785451889,0.9999855160713196,0.45597848296165466,0.4749852418899536,-0.1301420032978058,0.9999674558639526,0.5261009931564331,0.6972640752792358,0.008746955543756485,0.9998117089271545,0.47496476769447327,0.6949753165245056,-0.008771015331149101,0.9997454285621643,0.5310792326927185,0.8622073531150818,0.03831227496266365,0.988244354724884,0.47764450311660767,0.8439064025878906,0.027578329667448997,0.977466344833374,0.5239602327346802,0.951793909072876,0.2230846881866455,0.9661521911621094,0.4775255620479584,0.95843505859375,0.1725035309791565,0.9434077143669128,0.5622332692146301,0.6938241124153137,-0.07090076059103012,0.9856017827987671,0.42046260833740234,0.701797366142273,-0.1261206567287445,0.9798134565353394,-179.8999993847212,0.5005328804254532,0.6961196959018707,125.91103156278128,142.01898106760572,0.7114382877226155,0.013152569117862837,0.007777857912027515,0.06223155658102771,-0.024505626353950653,177.97412925164,0.10737156204659028,10,1762115249.170519
0.5182220935821533,0.38596001267433167,-0.23772673308849335,0.9999949336051941,0.5442016124725342,0.471377432346344,-0.10246209800243378,0.9999842047691345,0.4580826163291931,0.47543448209762573,-0.14113394916057587,0.9999664425849915,0.5264676809310913,0.698081910610199,0.014474354684352875,0.99979168176651,0.4770202040672302,0.6972916722297668,-0.014532608911395073,0.9997337460517883,0.5343002676963806,0.8633784055709839,0.04494136944413185,0.9867992997169495,0.4782913327217102,0.8445866107940674,0.020001478493213654,0.976828396320343,0.5185117125511169,0.9510156512260437,0.21922144293785095,0.9614280462265015,0.477541446685791,0.9598938822746277,0.16243208944797516,0.9419073462486267,0.561355471611023,0.6897633671760559,-0.0750000849366188,0.9861897230148315,0.42030707001686096,0.7060104608535767,-0.14232833683490753,0.9807881712913513,-179.84625468606887,0.5017439424991608,0.6976867914199829,126.68091778380912,142.17840150426352,0.7130148914648871,0.014033103572119236,0.01815861811752355,0.010203136126268558,0.12028638852101789,177.3028007261187,0.07277050130703715,11,1762115249.2568195
0.5210794806480408,0.3864571750164032,-0.27352195978164673,0.9999942183494568,0.5442911982536316,0.471139132976532,-0.11911022663116455,0.9999837875366211,0.4617975354194641,0.47728589177131653,-0.15066803991794586,0.9999628067016602,0.5274899005889893,0.6978969573974609,0.013130431063473225,0.9997756481170654,0.47967687249183655,0.6973593831062317,-0.01317043136805296,0.9997096061706543,0.5337315797805786,0.8627695441246033,0.03996295481920242,0.9856742024421692,0.4790898263454437,0.846392035484314,0.018451428040862083,0.9758990406990051,0.5158103704452515,0.9586073756217957,0.19700810313224792,0.959045946598053,0.47733578085899353,0.9628609418869019,0.15725865960121155,0.9387585520744324,0.5610988736152649,0.688313901424408,-0.10960869491100311,0.9865913987159729,0.4204348623752594,0.7139990329742432,-0.1605042666196823,0.9807605743408203,-179.8617666528964,0.5035833865404129,0.6976281702518463,130.09905732712633,141.97521980686997,0.730400475384933,0.02161359115867324,-0.0006888026669654863,0.08907123881172625,-0.22145846141322698,175.73865784772883,0.05478606733989172,12,1762115249.3419254
0.525098443031311,0.38648712635040283,-0.2990210950374603,0.9999898076057434,0.545655369758606,0.47112807631492615,-0.13550032675266266,0.9999811053276062,0.46657830476760864,0.47768521308898926,-0.1653672605752945,0.9999489784240723,0.5298693180084229,0.6975333094596863,0.011667001061141491,0.9997450709342957,0.48307663202285767,0.6966524124145508,-0.011698724702000618,0.9996623396873474,0.5330485701560974,0.8617501258850098,0.039657220244407654,0.9845682382583618,0.47961097955703735,0.8490915298461914,0.024394068866968155,0.9740816354751587,0.5148671865463257,0.9650633335113525,0.19900992512702942,0.9579615592956543,0.477304607629776,0.9631121158599854,0.1710948497056961,0.9342690110206604,0.5626168847084045,0.6878930330276489,-0.12927845120429993,0.9859678745269775,0.42289334535598755,0.721798300743103,-0.17803452908992767,0.978115975856781,-179.90836804767875,0.5064729750156403,0.6970928609371185,132.23786055705418,141.17579070260308,0.754182547818722,0.038797801744007376,-0.007187467988117189,0.2307282165376886,-0.08725599887051794,175.25983015577765,0.03476251845848306,13,1762115249.4164035
0.5265260934829712,0.3866523802280426,-0.28354933857917786,0.9999876618385315,0.5463072061538696,0.4711095094680786,-0.13409769535064697,0.9999780058860779,0.46770063042640686,0.4781016409397125,-0.16363903880119324,0.9999434351921082,0.5310257077217102,0.6979297995567322,0.011148056015372276,0.9997226595878601,0.4846166670322418,0.6972256302833557,-0.011190676130354404,0.9996423721313477,0.5324167013168335,0.8611602783203125,0.047578342258930206,0.9840412139892578,0.481137216091156,0.8515122532844543,0.027139883488416672,0.9737192392349243,0.5136760473251343,0.9658993482589722,0.20065049827098846,0.9581860303878784,0.47728580236434937,0.9633903503417969,0.16859576106071472,0.9338452816009521,0.5628663301467896,0.6869367957115173,-0.119718536734581,0.9851174354553223,0.42439040541648865,0.7245043516159058,-0.16959360241889954,0.9774128794670105,-179.7899923292431,0.507821187376976,0.697577714920044,136.57926477240213,142.29912489791914,0.7444625959863674,0.016790471425559776,0.006038312048861743,-0.2740765931701225,0.16471224278912455,174.91686283207105,0.07234368746875779,14,1762115249.4966998
0.5301610231399536,0.38654959201812744,-0.281110942363739,0.9999852180480957,0.5473686456680298,0.4701055884361267,-0.1305747777223587,0.9999737739562988,0.470599889755249,0.47852104902267456,-0.1688651144504547,0.99993497133255,0.5331934690475464,0.6984845995903015,0.015459869988262653,0.999691367149353,0.4866049289703369,0.6988558173179626,-0.01549486257135868,0.9996107816696167,0.5312544107437134,0.8610353469848633,0.06871259957551956,0.9820621609687805,0.4834038317203522,0.8549708724021912,0.028379732742905617,0.9725478291511536,0.5127462148666382,0.9658879637718201,0.2277216613292694,0.9552669525146484,0.4772893786430359,0.9636816382408142,0.1726938784122467,0.9311368465423584,0.5663939714431763,0.686272919178009,-0.11286236345767975,0.984769344329834,0.43275919556617737,0.7337614893913269,-0.1815367490053177,0.9757712483406067,-179.76634811013759,0.5098991990089417,0.6986702084541321,141.29717914368678,142.69082033307046,0.753165789200124,0.030166871452305136,0.015859926623286724,0.19418762334825615,0.14258215871510796,173.74416319605606,0.07431020023853621,15,1762115249.5655837
0.5342280864715576,0.3860878050327301,-0.2777647376060486,0.9999813437461853,0.547562837600708,0.470166951417923,-0.09078734368085861,0.9999694228172302,0.4742211401462555,0.4798789918422699,-0.17070326209068298,0.9999294877052307,0.5353912115097046,0.7029092907905579,0.02800615504384041,0.9996736645698547,0.48995304107666016,0.7056804895401001,-0.028015220537781715,0.9995864629745483,0.5304005146026611,0.8627739548683167,0.0736299380660057,0.9765134453773499,0.4868336319923401,0.8701454997062683,0.00614942517131567,0.9697109460830688,0.5112213492393494,0.970699667930603,0.25461307168006897,0.945912778377533,0.4771457314491272,0.9648019671440125,0.1861112415790558,0.9205461144447327,0.5687676668167114,0.6863227486610413,-0.09219671040773392,0.983390212059021,0.44327425956726074,0.747184693813324,-0.20077261328697205,0.9741933345794678,-179.55514695271108,0.5126721262931824,0.704294890165329,136.68488521864876,129.4813848857625,0.7668545028564799,0.03930763407281232,0.07973268240256316,0.12957489158671562,0.9054283268309279,172.45667685775243,0.12332490600593324,16,1762115249.636128
0.5382852554321289,0.3851691782474518,-0.27567511796951294,0.9999508857727051,0.5474881529808044,0.4702189266681671,-0.041987404227256775,0.9998784065246582,0.47847288846969604,0.4808375835418701,-0.17985422909259796,0.9999043941497803,0.5380370616912842,0.7042168378829956,0.041396211832761765,0.9996059536933899,0.4953840672969818,0.7088455557823181,-0.04136086627840996,0.9995300769805908,0.53021240234375,0.8669402003288269,0.06045518442988396,0.9715121388435364,0.4944995045661926,0.883683443069458,-0.05173495411872864,0.9687474370002747,0.5111073851585388,0.9706268310546875,0.2719806432723999,0.9322943687438965,0.47749656438827515,0.9576842188835144,0.19343434274196625,0.9020971059799194,0.5700622200965881,0.6801786422729492,-0.023729491978883743,0.9428192973136902,0.45308917760849,0.7462102174758911,-0.21370938420295715,0.9672261476516724,-179.07491570216567,0.516710564494133,0.7065311968326569,122.8929730870464,103.38922706566159,0.7717594170537009,0.06671907065232377,0.03694604079928469,0.4528645686343828,-0.7068784569819136,171.25308848355627,0.20659364016261306,17,1762115249.696657
0.5425000786781311,0.3834032416343689,-0.21767368912696838,0.9999290704727173,0.5474517941474915,0.4689614474773407,-0.009579023346304893,0.9998164176940918,0.4836804270744324,0.4810401499271393,-0.1785741150379181,0.9999029040336609,0.5383862257003784,0.7044775485992432,0.05219762772321701,0.9995853900909424,0.499307245016098,0.7092031240463257,-0.05217019468545914,0.9995207786560059,0.5304991602897644,0.867004930973053,0.0699005052447319,0.9587404131889343,0.5030192732810974,0.8870068788528442,-0.04739432781934738,0.9671176075935364,0.5089532136917114,0.970757782459259,0.2439996898174286,0.9117436408996582,0.48061293363571167,0.9499736428260803,0.1973162591457367,0.8769544959068298,0.5701159238815308,0.6493945717811584,-0.0020183951128274202,0.904850959777832,0.4634377956390381,0.7464904189109802,-0.22321657836437225,0.9674463272094727,-179.18929527772494,0.5188467353582382,0.7068403363227844,127.08107337648778,105.79068248252392,0.7261523620022112,0.02483631414378853,0.0035942281678272054,-0.4869522917538236,-0.38776677919283237,169.27486451051902,0.14927439517987948,18,1762115249.782667
0.5434421300888062,0.3828752636909485,-0.21938955783843994,0.9999140501022339,0.5470505952835083,0.4679565131664276,-0.012967368587851524,0.9997726082801819,0.4845498502254486,0.4814489483833313,-0.1856870800256729,0.9999032616615295,0.5387069582939148,0.7055476307868958,0.055322278290987015,0.9995859265327454,0.5000585913658142,0.7106749415397644,-0.0553290918469429,0.9995241165161133,0.5304568409919739,0.8674696087837219,0.07108208537101746,0.9493987560272217,0.5043177008628845,0.888332724571228,-0.04982655867934227,0.966646134853363,0.5080348253250122,0.9638900756835938,0.24990224838256836,0.8973993062973022,0.4812403619289398,0.9375090003013611,0.21524402499198914,0.8563281893730164,0.5704883337020874,0.6362723708152771,-0.0017465318087488413,0.8767790794372559,0.46453842520713806,0.7475920915603638,-0.23499885201454163,0.9684039354324341,-179.1206449289235,0.5193827748298645,0.7081112861633301,123.99376417555384,102.11510602831483,0.7273764957078694,0.008705144536422559,0.02063990180970597,-0.26196608721301223,0.27681739988859383,167.81813359690813,0.15747012838666935,19,1762115249.8442442
0.5463758707046509,0.3831300139427185,-0.21135923266410828,0.9999115467071533,0.5451421141624451,0.46723473072052,-0.003695121733471751,0.9997125267982483,0.48964327573776245,0.4819656014442444,-0.19660057127475739,0.9999098181724548,0.5383259654045105,0.7060304880142212,0.06440608203411102,0.9995845556259155,0.5064802169799805,0.7122849225997925,-0.0644601434469223,0.999534547328949,0.5284073948860168,0.8725678324699402,0.10413894802331924,0.9213178157806396,0.5131708979606628,0.8955252766609192,-0.06213559955358505,0.9659813046455383,0.5082494020462036,0.9614636898040771,0.25393393635749817,0.8700203895568848,0.48037752509117126,0.9360975623130798,0.18649829924106598,0.8279231786727905,0.5702453851699829,0.6433975696563721,0.007039873860776424,0.8349890112876892,0.47603702545166016,0.7530742883682251,-0.2468213587999344,0.9705697894096375,-178.7762878663547,0.5224030911922455,0.7091577053070068,134.17410470038516,99.62953328182473,0.7133921728975137,0.03614486621281549,0.01252275437825623,0.32837787500123145,-0.09713989289127366,165.13493417326188,0.18923806541956262,20,1762115249.9278057
0.5490223169326782,0.3833787143230438,-0.21058468520641327,0.9999045133590698,0.5425793528556824,0.46946588158607483,-0.023330045863986015,0.9996432065963745,0.49421626329421997,0.4835371673107147,-0.21478505432605743,0.9999129772186279,0.5381838083267212,0.7111890912055969,0.061253659427165985,0.9995832443237305,0.5069726705551147,0.719649076461792,-0.06128837913274765,0.9995469450950623,0.5281764268875122,0.8745125532150269,0.12588192522525787,0.8935046792030334,0.5244189500808716,0.900881290435791,-0.04028689116239548,0.9660156965255737,0.508653998374939,0.9630948305130005,0.27720656991004944,0.845542311668396,0.4841175079345703,0.9495506286621094,0.18639366328716278,0.814374566078186,0.5681419968605042,0.6490931510925293,0.009128261357545853,0.7903107404708862,0.489856094121933,0.7564992308616638,-0.25219541788101196,0.9706409573554993,-178.99757625546596,0.522578239440918,0.7154190838336945,141.94842187685492,107.37247635131394,0.725768396488738,0.002514289136833459,0.08988337668560477,-0.4827738515712908,1.1105276459244342,163.77759634342948,0.1397532980273201,21,1762115249.9974668
0.5513118505477905,0.3836776614189148,-0.14101439714431763,0.9998834133148193,0.5408862233161926,0.4771154522895813,-0.0018476631958037615,0.9995255470275879,0.5004574060440063,0.4885025918483734,-0.19854530692100525,0.9999126195907593,0.5340403318405151,0.7204369306564331,0.05808279663324356,0.9993379712104797,0.506356954574585,0.7279832363128662,-0.0580403134226799,0.9994687438011169,0.5256267786026001,0.8741597533226013,0.16494733095169067,0.8255545496940613,0.5304712057113647,0.9001011252403259,0.025774437934160233,0.9555646181106567,0.5031759142875671,0.9637280106544495,0.28813761472702026,0.7846749424934387,0.4880031645298004,0.9819768071174622,0.1772553026676178,0.7965207099914551,0.5577527284622192,0.6820923686027527,0.06003894284367561,0.7290545105934143,0.5102250576019287,0.7646416425704956,-0.2102380096912384,0.9675763845443726,179.88769438922827,0.52019864320755,0.7242100834846497,160.0516770656891,138.8398733718596,0.6999226119975147,-0.029310835971501907,0.10828372695395784,-0.3920081099232086,0.22664754674390586,164.2696491971789,0.014576859916848784,22,1762115250.0786517
0.5525854229927063,0.38431859016418457,-0.1491241753101349,0.9998443722724915,0.5358397960662842,0.48046615719795227,0.009101266041398048,0.9990630149841309,0.5064626336097717,0.49199235439300537,-0.20231494307518005,0.9999122619628906,0.5263317823410034,0.7276666164398193,0.06124206259846687,0.9980230927467346,0.5100942850112915,0.7322903275489807,-0.06118527799844742,0.9991217255592346,0.5212939977645874,0.8889995813369751,0.14085277915000916,0.7559871673583984,0.5321853756904602,0.9102991819381714,0.008821084164083004,0.9379702806472778,0.5019012689590454,1.000309705734253,0.25153276324272156,0.7172259092330933,0.4953394830226898,1.0231001377105713,0.10385062545537949,0.7776291370391846,0.5462454557418823,0.6899652481079102,0.09700264036655426,0.6592097878456116,0.52945476770401,0.779746413230896,-0.181972473859787,0.961370050907135,179.3093835141981,0.5182130336761475,0.7299784719944,160.69920678315023,152.29663530955943,0.7094606740229443,-0.03103468193014425,0.09015876476134048,-0.026943369366906347,-0.28328955303031367,158.57732607831736,0.10448608443186339,23,1762115250.142632
0.553917646408081,0.3845003843307495,-0.13846664130687714,0.9997008442878723,0.5323455333709717,0.48091956973075867,0.003119646105915308,0.9984893202781677,0.5077279210090637,0.4927535653114319,-0.21195152401924133,0.9998998641967773,0.5239499807357788,0.7282712459564209,0.061475060880184174,0.9962051510810852,0.5103123188018799,0.7326180338859558,-0.061375100165605545,0.9984949827194214,0.5208779573440552,0.8959645628929138,0.13233314454555511,0.6916545629501343,0.5309633016586304,0.9153032302856445,0.004293407313525677,0.9167723059654236,0.5021551251411438,1.0070544481277466,0.23470166325569153,0.6535405516624451,0.49505648016929626,1.0530961751937866,0.10191887617111206,0.7472038865089417,0.5430048704147339,0.7058209776878357,0.08216068893671036,0.5963805913925171,0.5285166501998901,0.7844769954681396,-0.18110494315624237,0.9555841088294983,179.31665060199228,0.5171311497688293,0.7304446399211884,159.376355010585,156.21083257860167,0.7168950132283262,-0.016096220833303775,0.0069356257582099505,0.22225376225488055,-1.238190174355961,154.32582153927754,0.10636974079372513,24,1762115250.2098455
0.5557025671005249,0.3834554851055145,-0.14104144275188446,0.9993921518325806,0.5282504558563232,0.47706180810928345,-0.00288470764644444,0.9978445172309875,0.5161635875701904,0.4892790913581848,-0.2217101752758026,0.9998788833618164,0.5199330449104309,0.7256951928138733,0.06434846669435501,0.9947723746299744,0.5148802995681763,0.7300130128860474,-0.0642872303724289,0.9980572462081909,0.5204208493232727,0.8913131952285767,0.14709767699241638,0.6349888443946838,0.5247933268547058,0.9127205610275269,0.012227615341544151,0.902959942817688,0.5084222555160522,0.9987015724182129,0.25084388256073,0.6007763147354126,0.5103162527084351,1.0251579284667969,0.12162993848323822,0.7320544123649597,0.5343788266181946,0.725551962852478,0.04191930964589119,0.5386146903038025,0.5399948358535767,0.780849814414978,-0.1844671070575714,0.9445074200630188,178.8760814910527,0.5174066722393036,0.7278541028499603,161.9148523415143,157.03520229356366,0.7100970346403334,0.003737842409814697,-0.03514420915421663,0.26907643003297477,-0.570871011946639,134.69255642496458,0.36259609285721084,25,1762115250.2835572
0.5585767030715942,0.3813294768333435,-0.12411044538021088,0.998795747756958,0.5258679986000061,0.4718450903892517,0.016076961532235146,0.997194766998291,0.5221256613731384,0.4820357859134674,-0.2151643931865692,0.9998680353164673,0.5132125616073608,0.7249755263328552,0.07168211042881012,0.9916636347770691,0.5229891538619995,0.7278016209602356,-0.07167959958314896,0.9974623322486877,0.5198572874069214,0.884945273399353,0.16445058584213257,0.5854658484458923,0.5375040173530579,0.9081383347511292,-0.01143968291580677,0.8947857022285461,0.5103546380996704,0.9978603720664978,0.272882342338562,0.5566821098327637,0.5201097726821899,1.0730880498886108,0.05841372162103653,0.7267183661460876,0.5332139134407043,0.7261888384819031,0.03389983996748924,0.4862602949142456,0.5567521452903748,0.7772023677825928,-0.1870616227388382,0.9310312271118164,178.6460053574512,0.5181008577346802,0.7263885736465454,165.19637890563357,169.11634239793074,0.7167594114413712,0.01092878484186504,-0.02307229616617496,0.11320931245831169,0.1900519969874225,110.16478990213713,0.43838027367877747,26,1762115250.3470762
0.5616620779037476,0.3771032989025116,-0.09189742803573608,0.998283863067627,0.5247873663902283,0.4656882882118225,0.03006063960492611,0.9965462684631348,0.5307236313819885,0.4754909873008728,-0.19589351117610931,0.99985671043396,0.509811520576477,0.7177273035049438,0.06995619088411331,0.9893302321434021,0.5300617218017578,0.726670503616333,-0.06998045742511749,0.9969673752784729,0.5157328248023987,0.8657846450805664,0.1609354317188263,0.5445266366004944,0.5415488481521606,0.8928519487380981,0.004832445178180933,0.894473135471344,0.5103437304496765,0.9899254441261292,0.27773624658584595,0.5225754976272583,0.5341508388519287,1.0658026933670044,0.09890879690647125,0.7319367527961731,0.5337610244750977,0.7217352986335754,0.05492294952273369,0.4390411078929901,0.5692739486694336,0.7755553126335144,-0.16470594704151154,0.9219245314598083,178.22007917999218,0.5199366211891174,0.7221989035606384,167.7173924453187,172.79747585487095,0.7096240735424407,0.03284988395508379,-0.07497162872452985,0.39226489681802224,-0.9287073711851862,58.80196975122835,1.222740531184125,27,1762115250.4029596
0.5619547963142395,0.37563884258270264,-0.0640077069401741,0.9981980323791504,0.5164533853530884,0.45906004309654236,0.04789073020219803,0.9965059757232666,0.5428751707077026,0.467760294675827,-0.15953731536865234,0.999861478805542,0.5054534673690796,0.7102385759353638,0.06804540753364563,0.9890259504318237,0.5334962606430054,0.7265918254852295,-0.06809413433074951,0.9969367384910583,0.5130245685577393,0.854063868522644,0.15747027099132538,0.51071697473526,0.5446533560752869,0.8856439590454102,0.018897799775004387,0.896949827671051,0.5101906657218933,0.9802631139755249,0.2729983627796173,0.4971138536930084,0.5408459901809692,1.0559937953948975,0.11116477102041245,0.7427797317504883,0.5304375886917114,0.7155103087425232,0.07664714753627777,0.3965480923652649,0.5862486362457275,0.7681864500045776,-0.11398635059595108,0.9195002317428589,177.71180982152376,0.5194748640060425,0.7184152007102966,168.8264280270455,175.32651131072703,0.6926053956347591,-0.005148561964840645,-0.042188035823942704,-0.4236801517273243,0.3655348864413562,18.225848718150655,3.067590500468024,28,1762115250.4926462
0.5616432428359985,0.3729715645313263,-0.06033719331026077,0.9982178807258606,0.5162584185600281,0.4576979875564575,0.050220489501953125,0.9965514540672302,0.5432803630828857,0.46303415298461914,-0.15355096757411957,0.9998674988746643,0.5042428970336914,0.7076895833015442,0.06773260235786438,0.9887851476669312,0.532583475112915,0.7258519530296326,-0.06780074536800385,0.9969637393951416,0.5122626423835754,0.8532170653343201,0.15448400378227234,0.4773682951927185,0.5447461605072021,0.8837258815765381,0.01406014896929264,0.8987471461296082,0.5101549625396729,0.9788713455200195,0.26779165863990784,0.4735819101333618,0.5428029298782349,1.0604181289672852,0.09994029253721237,0.753265380859375,0.5331577658653259,0.712074875831604,0.07537369430065155,0.3584863245487213,0.5881727337837219,0.7630892992019653,-0.10614421218633652,0.9166238307952881,177.46401817824986,0.5184131860733032,0.7167707681655884,168.2414542179815,175.26126340993076,0.6921400925848226,-0.015026050102580716,-0.023273843267465715,-0.13979722764170893,0.26769474643802527,11.170771775544987,5.603975130549744,29,1762115250.563302
0.5620522499084473,0.37298667430877686,-0.0413362942636013,0.9983106255531311,0.512250542640686,0.45811063051223755,0.05243130773305893,0.9967294931411743,0.5516226887702942,0.46211114525794983,-0.14336451888084412,0.9998744130134583,0.5045992136001587,0.7078775763511658,0.06626340001821518,0.9894322752952576,0.5371952056884766,0.7256469130516052,-0.06632676720619202,0.9970866441726685,0.5131703019142151,0.8548911809921265,0.14968355000019073,0.4734312891960144,0.5490764379501343,0.883549153804779,0.024652287364006042,0.9044288396835327,0.510133683681488,0.9789109826087952,0.26493483781814575,0.4768410325050354,0.5452495217323303,1.061171293258667,0.10104596614837646,0.7688087821006775,0.5315304398536682,0.7106011509895325,0.09114737063646317,0.32464587688446045,0.5990404486656189,0.7557536363601685,-0.09358082711696625,0.9169454574584961,177.53704115185448,0.5208972096443176,0.7167622447013855,166.0994740287829,171.73075525296633,0.6856986215693581,0.03124456453286471,-0.00010720990349609246,0.5820014036187685,0.29139472732707344,5.801783154783012,3.2158912436361473,30,1762115250.6428046
0.5614932775497437,0.37325283885002136,-0.025107845664024353,0.9984249472618103,0.5092847943305969,0.4589821696281433,0.035172488540410995,0.9969416856765747,0.5626550316810608,0.4641211926937103,-0.13643178343772888,0.9998786449432373,0.5030587911605835,0.7085694074630737,0.061968959867954254,0.9900380373001099,0.5425784587860107,0.726207971572876,-0.06209762766957283,0.9971567988395691,0.5136624574661255,0.8519544005393982,0.15531118214130402,0.4850466847419739,0.549924910068512,0.8840652704238892,0.030173953622579575,0.9098130464553833,0.5103564262390137,0.9785017967224121,0.26652759313583374,0.4835506081581116,0.5474746227264404,1.0646618604660034,0.10900385677814484,0.7827228903770447,0.5250152945518494,0.7072930932044983,0.09563781321048737,0.2953595817089081,0.6120391488075256,0.7487017512321472,-0.05537586286664009,0.9191555976867676,177.0573036214592,0.5228186249732971,0.7173886895179749,170.51398770144084,172.61869720337407,0.6831595318858931,0.029635104673440195,0.009662022276890943,-0.024823634267078815,0.1506765423791413,5.500057129785386,4.567752851644284,31,1762115250.7076404
0.5606655478477478,0.373115211725235,0.01509635616093874,0.9985272288322449,0.5064600706100464,0.4610646963119507,0.022860528901219368,0.9971641302108765,0.572050929069519,0.46407005190849304,-0.12869007885456085,0.9998824000358582,0.5028491616249084,0.7120122313499451,0.05564974620938301,0.9906194806098938,0.5480130910873413,0.7282611131668091,-0.05580555647611618,0.9972242116928101,0.5136367082595825,0.8520077466964722,0.15684518218040466,0.48263394832611084,0.5489611625671387,0.8841792345046997,0.04879963770508766,0.9072054028511047,0.5102623701095581,0.9781909584999084,0.26525062322616577,0.4749849736690521,0.5503605604171753,1.0618669986724854,0.14319726824760437,0.7836614847183228,0.5207368731498718,0.6822769045829773,0.09985636174678802,0.26938292384147644,0.6180225610733032,0.7259458899497986,-0.0225407462567091,0.9034548401832581,176.92774338991046,0.5254311263561249,0.7201366722583771,173.2385781631169,174.10651885642636,0.6746762462267262,0.03551582028211378,0.03735763042576363,0.0799457715355561,0.37650974965399997,2.623442397051536,13.985625649639697,32,1762115250.7811992
0.5567456483840942,0.37320128083229065,0.0524890311062336,0.998336672782898,0.5029041767120361,0.46728795766830444,-0.014745880849659443,0.9973179697990417,0.5844271779060364,0.46852782368659973,-0.1083344966173172,0.9998683333396912,0.5031516551971436,0.7192227840423584,0.045532893389463425,0.9908996224403381,0.5526505708694458,0.7333118915557861,-0.045665375888347626,0.9971503615379333,0.5135919451713562,0.8495956659317017,0.1607658416032791,0.4741717278957367,0.5503720045089722,0.8879674077033997,0.06215740367770195,0.8979243636131287,0.5083919763565063,0.9772130250930786,0.2721085548400879,0.4610016644001007,0.5519894957542419,1.0602308511734009,0.16556870937347412,0.771248459815979,0.5151351094245911,0.6846211552619934,0.0747077688574791,0.24724259972572327,0.6178791522979736,0.713857889175415,0.0012242791708558798,0.8621308207511902,176.5082580700938,0.5279011130332947,0.7262673377990723,174.77332516272378,175.90542779879968,0.6671388701942622,0.03537109368331564,0.08779332584476819,-0.0020725367192758986,0.7222572186878822,0.871332169385149,8.796017812765054,33,1762115250.8510299
0.5553807020187378,0.37330517172813416,0.04692026972770691,0.998257040977478,0.5033255815505981,0.46929731965065,-0.02533484436571598,0.9974699020385742,0.5859296917915344,0.46934136748313904,-0.10742145776748657,0.999859631061554,0.5035167932510376,0.7241054773330688,0.04068581387400627,0.9912080764770508,0.5552986860275269,0.7374333143234253,-0.04081495851278305,0.9971427917480469,0.5129403471946716,0.8416981101036072,0.16845354437828064,0.47170111536979675,0.5505467653274536,0.8880941867828369,0.07052598893642426,0.8913032412528992,0.5082080960273743,0.9706392288208008,0.28738948702812195,0.45238178968429565,0.5527935028076172,1.0570342540740967,0.18295177817344666,0.7616592049598694,0.5132929086685181,0.686374306678772,0.04849063977599144,0.227970153093338,0.6194612979888916,0.7139520645141602,0.00046991478302516043,0.8231820464134216,176.6683777521011,0.5294077396392822,0.7307693958282471,173.38220383204506,176.46548722629063,0.6680852494123648,0.02365909635486866,0.0706974271423009,-0.18391768219177554,-0.2684630107203154,0.030552410185797983,12.237035808491186,34,1762115250.9147105
0.5537269115447998,0.3757179379463196,0.04827752336859703,0.9983047246932983,0.5023998022079468,0.4721444845199585,-0.038661662489175797,0.9975876808166504,0.5886783003807068,0.4743809103965759,-0.11092549562454224,0.9998551607131958,0.5044252276420593,0.7317022681236267,0.037170808762311935,0.9914289712905884,0.5567613840103149,0.7433276772499084,-0.03728991001844406,0.9971916079521179,0.5126376152038574,0.8344770073890686,0.17494501173496246,0.4796551465988159,0.551972508430481,0.8895512223243713,0.07825876027345657,0.8906338810920715,0.5069686770439148,0.9576968550682068,0.29868215322494507,0.45647716522216797,0.5507848262786865,1.057924747467041,0.19165365397930145,0.7642491459846497,0.5061415433883667,0.6790010333061218,0.050835687667131424,0.21147049963474274,0.6218878030776978,0.7089825868606567,-0.0014185645850375295,0.7870871424674988,176.7628782444672,0.5305933058261871,0.7375149726867676,170.62731088984287,175.4782765332033,0.6625139546730039,0.014228313990752186,0.08095556928993271,-0.1131814774554296,0.12311085542960182,1.484832022631889,4.358236726579894,35,1762115250.998035
0.5517327785491943,0.3766052722930908,0.04761066287755966,0.998162031173706,0.5014406442642212,0.47338688373565674,-0.053083937615156174,0.997604250907898,0.5914696455001831,0.4776085615158081,-0.11289701610803604,0.9998285174369812,0.5048718452453613,0.7372617721557617,0.033934153616428375,0.9914839267730713,0.5581415295600891,0.7470819354057312,-0.0340876504778862,0.997157633304596,0.5128138065338135,0.8369876146316528,0.18907010555267334,0.4766165316104889,0.5539940595626831,0.8953498005867004,0.10270941257476807,0.8758038282394409,0.5052558183670044,0.9603389501571655,0.32816872000694275,0.4484193027019501,0.5495536923408508,1.0568252801895142,0.23567816615104675,0.7476977109909058,0.5005759000778198,0.6554227471351624,0.06513088196516037,0.19459272921085358,0.6210209131240845,0.6906301975250244,0.023011958226561546,0.7294221520423889,176.7916342968839,0.5315066874027252,0.7421718537807465,169.94353520124162,176.75090014776112,0.6744546401465427,0.014369896361201655,0.07326499724305043,0.0022274633539724094,-0.12099294107827316,2.684771089550213,2.4913357972091434,36,1762115251.061597
0.549474835395813,0.3781472146511078,0.05939885228872299,0.997984766960144,0.501549243927002,0.4743518829345703,-0.05931303650140762,0.997614324092865,0.5945039987564087,0.47911104559898376,-0.09906475245952606,0.99980628490448,0.5065969228744507,0.735383927822113,0.02586173452436924,0.991482138633728,0.5620666742324829,0.7445755004882812,-0.026047075167298317,0.9970222115516663,0.512973427772522,0.8393550515174866,0.1777041256427765,0.476525217294693,0.5553961992263794,0.8965649008750916,0.10542653501033783,0.8507954478263855,0.5053606033325195,0.962307333946228,0.3085166811943054,0.4330143928527832,0.5516725778579712,1.0559487342834473,0.22513635456562042,0.711142361164093,0.4820291996002197,0.662512481212616,0.05048813670873642,0.18741361796855927,0.6279988288879395,0.6908242106437683,0.044864051043987274,0.6819242238998413,177.02201687167184,0.5343317985534668,0.7399797141551971,170.12513126679772,175.9437329552373,0.6645316237839037,0.029185652709359605,-0.02264655172413793,0.15305858648794157,-0.9908428410819556,2.9309103116713517,2.4156437345372264,37,1762115251.158395
0.5485510230064392,0.3788745403289795,0.09078632295131683,0.9979122281074524,0.5020129680633545,0.4741797149181366,-0.060192763805389404,0.997627317905426,0.5936887264251709,0.47901853919029236,-0.06167636066675186,0.9998041391372681,0.5086349248886108,0.733727753162384,0.011813432909548283,0.9916209578514099,0.5653444528579712,0.7425300478935242,-0.012012016959488392,0.9971219897270203,0.512642502784729,0.8407347202301025,0.1672745645046234,0.4818025231361389,0.554557740688324,0.9028996229171753,0.08399254828691483,0.8367614150047302,0.5054994821548462,0.9639005661010742,0.3005385100841522,0.4139401316642761,0.5522167086601257,1.0725243091583252,0.15984652936458588,0.6815551519393921,0.46720385551452637,0.6631577014923096,0.058907199651002884,0.21285948157310486,0.633091926574707,0.6855937242507935,0.09278228878974915,0.6608284115791321,177.62191072829995,0.536989688873291,0.7381289005279541,171.0824473546084,172.70597787060902,0.6546562808230368,0.03708262093099066,-0.02582236732684465,0.11017771383666095,-0.044308662875783215,3.0213786260106414,2.2899215853960473,38,1762115251.2300699
0.5481895804405212,0.37885916233062744,0.08702558279037476,0.9978287220001221,0.5021916031837463,0.47397515177726746,-0.06461472809314728,0.9976573586463928,0.5932425856590271,0.477799654006958,-0.06441669911146164,0.9997993111610413,0.5093861818313599,0.7327624559402466,0.012355035170912743,0.9918915629386902,0.5665194392204285,0.7405499219894409,-0.012567989528179169,0.9972097277641296,0.5119373798370361,0.8412279486656189,0.16643472015857697,0.48910361528396606,0.5550973415374756,0.9019720554351807,0.08971168845891953,0.8230351805686951,0.5056150555610657,0.965409517288208,0.30336180329322815,0.40331724286079407,0.550751805305481,1.067793846130371,0.16962918639183044,0.6559262871742249,0.4676207900047302,0.6606562733650208,0.05986502766609192,0.22953248023986816,0.6310867071151733,0.6777155995368958,0.08313413709402084,0.6370669007301331,177.85560602685612,0.5379528105258942,0.7366561889648438,172.41609471509773,173.049917960254,0.655329704553696,0.0149879417493739,-0.02291809665151656,-0.3438337863655391,0.04519578558802085,2.4052360040994456,1.830255210591269,39,1762115251.2943296
0.5481253862380981,0.3786035180091858,0.08430817723274231,0.9977132081985474,0.5018380880355835,0.47391068935394287,-0.07812979817390442,0.9976772665977478,0.5926186442375183,0.47516578435897827,-0.06354106962680817,0.9997826218605042,0.5098406672477722,0.7325270175933838,0.0014756731688976288,0.9920297861099243,0.5672873854637146,0.739524781703949,-0.0016438234597444534,0.9971892237663269,0.5116168260574341,0.8458366394042969,0.13918718695640564,0.5018313527107239,0.5549123883247375,0.901798665523529,0.08401288092136383,0.8050196170806885,0.5085108280181885,0.9775416851043701,0.2698165774345398,0.3976568579673767,0.5515021681785583,1.0675245523452759,0.15257519483566284,0.6289525032043457,0.46248021721839905,0.6740490198135376,0.03847268968820572,0.25517916679382324,0.6332393884658813,0.679816722869873,0.06782148778438568,0.6277004480361938,178.10221049545075,0.5385640263557434,0.7360258996486664,173.99766699184605,173.96249368178337,0.656562346967681,0.007428686923714423,-0.007660505131875583,-0.09187480875659333,0.1854400116523313,0.7920976507682991,2.658499465446422,40,1762115251.3766074
0.5473493933677673,0.3786084055900574,0.10883940756320953,0.9976490139961243,0.5011003017425537,0.4740002453327179,-0.06858381628990173,0.9977853894233704,0.5914650559425354,0.4727991223335266,-0.040630921721458435,0.9997624754905701,0.5106750726699829,0.7271268367767334,-0.006175796966999769,0.9923341870307922,0.5697665810585022,0.7321122288703918,0.0060493540950119495,0.9971669316291809,0.5117426514625549,0.859454870223999,0.11537119001150131,0.5094506740570068,0.5551197528839111,0.9015592932701111,0.08072471618652344,0.7815014719963074,0.5129690170288086,0.9963356256484985,0.2269715517759323,0.3848194181919098,0.5522696375846863,1.072482943534851,0.14020366966724396,0.5960764288902283,0.4622008800506592,0.6909627914428711,0.0347052738070488,0.2939675748348236,0.6294212937355042,0.6747065186500549,0.09249033033847809,0.6279807686805725,178.64470393295352,0.5402208268642426,0.7296195328235626,176.5915250327846,174.13742482779378,0.660211376470341,0.026025710647541292,-0.10063387139058462,0.2921297741393279,-1.4604642597369701,-0.7615272865010135,7.4573002908922135,41,1762115251.4402676
0.5452229380607605,0.37878289818763733,0.08111374080181122,0.9972105622291565,0.49869003891944885,0.4777195453643799,-0.09778493642807007,0.9978092312812805,0.5903823971748352,0.47262030839920044,-0.050493497401475906,0.9996462464332581,0.5114103555679321,0.721349835395813,-0.013242475688457489,0.9924758076667786,0.5716933012008667,0.7265198826789856,0.013091454282402992,0.9969467520713806,0.5135170817375183,0.8625959753990173,0.10508523881435394,0.528115451335907,0.5561398267745972,0.8977416157722473,0.08368237316608429,0.7548260688781738,0.516467809677124,0.9990242719650269,0.2196987122297287,0.3903196156024933,0.5540874600410461,1.0704267024993896,0.14880886673927307,0.5675098299980164,0.46274131536483765,0.7147230505943298,-0.020015321671962738,0.31454432010650635,0.6165109276771545,0.6583654284477234,0.11694671958684921,0.5869513750076294,179.31266546291496,0.5415518283843994,0.7239348590373993,179.45919347609785,175.466765008741,0.6640763953194961,0.017210245454377302,-0.073504522501526,-0.1139865863947262,0.35079054856609915,-3.1830800631069596,6.6293164180628725,42,1762115251.5176053
0.5412846803665161,0.3801215589046478,0.07133825123310089,0.9966772198677063,0.4971601963043213,0.4818287789821625,-0.11687692254781723,0.9978387355804443,0.5890026092529297,0.47341981530189514,-0.040647443383932114,0.9992885589599609,0.5122946500778198,0.7213069200515747,-0.027378465980291367,0.992342472076416,0.5713125467300415,0.7265902757644653,0.02726278081536293,0.9960647225379944,0.5144690275192261,0.8765862584114075,0.07549860328435898,0.5614157319068909,0.5556954145431519,0.8964114785194397,0.08726555854082108,0.7362146377563477,0.5200785398483276,1.016926884651184,0.18750883638858795,0.4204504191875458,0.5532263517379761,1.0709725618362427,0.15665000677108765,0.5529782772064209,0.46311822533607483,0.7339856624603271,-0.0598892979323864,0.3473096489906311,0.5997325778007507,0.629504382610321,0.13649944961071014,0.5457839369773865,179.7027814926229,0.5418035984039307,0.72394859790802,174.79119255263961,175.22973530656583,0.6714447652411525,0.003260416505858561,0.00017791808821032156,-0.18064999415869196,0.9541860700411982,-5.231336412490272,0.8132537149545023,43,1762115251.5948255
0.5399572849273682,0.380479633808136,0.06890863180160522,0.9962100386619568,0.49650588631629944,0.4831969439983368,-0.11856117099523544,0.997879683971405,0.588071346282959,0.4739342927932739,-0.04439445585012436,0.9990394711494446,0.5124501585960388,0.7210398316383362,-0.028020698577165604,0.9921876192092896,0.5704900622367859,0.7260075211524963,0.027892496436834335,0.9951764345169067,0.5145717859268188,0.8795461058616638,0.07025765627622604,0.586020827293396,0.5553756952285767,0.8951437473297119,0.08990813791751862,0.7128700017929077,0.5220766067504883,1.0152758359909058,0.17336200177669525,0.4378776252269745,0.5529767274856567,1.0698457956314087,0.16098418831825256,0.5283212065696716,0.4628603458404541,0.735648512840271,-0.06269773840904236,0.37942636013031006,0.6003445982933044,0.6345659494400024,0.12758097052574158,0.5117692947387695,179.80855188654022,0.5414701104164124,0.7235236763954163,174.24974876532806,175.44664661228472,0.6693379596305974,-0.0050975039996501445,-0.006495103845130631,-0.12775432639308884,-0.10199994383033353,-5.776322022466141,0.32048920369367895,44,1762115251.6602473
0.5379270315170288,0.3804400861263275,0.05292215943336487,0.9957117438316345,0.49546876549720764,0.4829278290271759,-0.12521860003471375,0.9979763031005859,0.5819018483161926,0.47366130352020264,-0.04864136874675751,0.9989018440246582,0.5124303102493286,0.7210339307785034,-0.028372084721922874,0.9922950863838196,0.5694224238395691,0.7261870503425598,0.028266053646802902,0.9947949051856995,0.5146144032478333,0.8793206810951233,0.07528319954872131,0.6151993274688721,0.5547612905502319,0.8927879929542542,0.09107746928930283,0.6991706490516663,0.5227339267730713,1.0156947374343872,0.19510993361473083,0.46344617009162903,0.5529390573501587,1.0695445537567139,0.17221181094646454,0.5161299705505371,0.4633236825466156,0.7405034303665161,-0.07734286785125732,0.4141523838043213,0.5989788770675659,0.6478477716445923,0.09845350682735443,0.4827648103237152,-179.47659445228217,0.5409263670444489,0.7236104905605316,171.6864671765665,174.20948453700157,0.6749625087463736,-0.006938001003909161,0.0011077224951705886,-0.023484185227177375,0.09700976508656668,-6.119329620375876,0.7115278141081995,45,1762115251.738619
0.5329822897911072,0.380411833524704,-0.02208550274372101,0.9953900575637817,0.49564018845558167,0.48279520869255066,-0.17998000979423523,0.9979987144470215,0.5786856412887573,0.4736746549606323,-0.08135499060153961,0.9987924098968506,0.5124193429946899,0.7207788228988647,-0.035179950296878815,0.9922593235969543,0.5686928033828735,0.7248113751411438,0.035053011029958725,0.9944663643836975,0.5137459635734558,0.8776408433914185,0.06850418448448181,0.6484196782112122,0.5543659329414368,0.8845399022102356,0.11188838630914688,0.6915830373764038,0.5229641199111938,1.017199158668518,0.18731284141540527,0.4989624321460724,0.5539922714233398,1.0587024688720703,0.2021976262331009,0.5199859142303467,0.46431317925453186,0.7394551038742065,-0.12605151534080505,0.44654685258865356,0.5834634900093079,0.6523107886314392,0.0517878457903862,0.44803574681282043,-179.20509877228562,0.5405560731887817,0.7227950990200043,172.61836903329285,175.15289875559537,0.6923926780080447,-0.0051663717226284175,-0.011376412903912555,0.024717924107327302,-0.17417973082780377,-6.267450636441008,0.7671192683182735,46,1762115251.810293
0.5275970697402954,0.38081932067871094,-0.0022190255112946033,0.9954456090927124,0.49607691168785095,0.4824836254119873,-0.1649661660194397,0.9980418682098389,0.5730067491531372,0.473683625459671,-0.03542327135801315,0.9986214637756348,0.512207567691803,0.7227909564971924,-0.04971327632665634,0.9921880960464478,0.5651239156723022,0.723240852355957,0.04960944131016731,0.9940335750579834,0.512344479560852,0.8775959610939026,0.03505115583539009,0.6822294592857361,0.5528882741928101,0.8733088970184326,0.12505121529102325,0.6815647482872009,0.522430956363678,1.0161296129226685,0.1272110939025879,0.5385874509811401,0.5623879432678223,1.0234287977218628,0.21501541137695312,0.5316130518913269,0.4656464159488678,0.7394804358482361,-0.1084306612610817,0.48160257935523987,0.5673205256462097,0.6749663352966309,0.07251695543527603,0.4098173677921295,-179.03540526471318,0.5386657416820526,0.7230159044265747,173.98064731042106,171.56735123769263,0.6622184076543347,-0.024093671655397705,0.0028143280407202007,-0.2412424213848331,0.18087147764806488,-6.525696722359102,0.42106193074907533,47,1762115251.8887506
0.5228301882743835,0.38188692927360535,-0.022473685443401337,0.995550811290741,0.496387243270874,0.48224931955337524,-0.17405478656291962,0.9981467723846436,0.5625360608100891,0.47344088554382324,-0.023804042488336563,0.9985330700874329,0.5113245248794556,0.7233454585075378,-0.0541982538998127,0.9926875829696655,0.559738039970398,0.7186662554740906,0.054064445197582245,0.9940543174743652,0.5115019679069519,0.8776223659515381,0.026537561789155006,0.7120895981788635,0.5504208207130432,0.8564298748970032,0.1404532492160797,0.6600434184074402,0.5227735042572021,1.015429973602295,0.10816986858844757,0.5732454657554626,0.566706657409668,0.9913404583930969,0.23702272772789001,0.5279785990715027,0.46631330251693726,0.7380467057228088,-0.11085178703069687,0.5143184065818787,0.5549820065498352,0.6793534159660339,0.07351549714803696,0.37761354446411133,-178.57011463565004,0.5355312824249268,0.7210058569908142,174.99409241770314,170.4374500176562,0.6517610469299664,-0.03779749240995446,-0.02423855168131009,-0.16525021334387627,-0.32622246201995986,-7.58493425843065,0.4404766664409614,48,1762115251.9716783
0.5217282176017761,0.38302111625671387,-0.01972694881260395,0.9955711364746094,0.49655359983444214,0.4821252226829529,-0.1718970090150833,0.9982039332389832,0.5606421232223511,0.47335025668144226,-0.01928742229938507,0.9984531402587891,0.510908842086792,0.7241402268409729,-0.055113933980464935,0.9930923581123352,0.557844340801239,0.7168290019035339,0.0549672432243824,0.9940857291221619,0.5111304521560669,0.8779359459877014,0.025782067328691483,0.7391900420188904,0.5488985776901245,0.8547913432121277,0.14171235263347626,0.6414766907691956,0.5236161947250366,1.0144695043563843,0.10781566798686981,0.6051650047302246,0.567254900932312,0.9881590008735657,0.23914369940757751,0.5275371074676514,0.466602087020874,0.7381508946418762,-0.11081745475530624,0.541934072971344,0.5548007488250732,0.6852380633354187,0.07365281134843826,0.34838810563087463,-178.63629835818827,0.5343765914440155,0.7204846143722534,174.50041724608894,169.70189622742396,0.6482108012213388,-0.019271440565673606,-0.008699380448925834,0.30919415924760385,0.25934403212224777,-7.796428652696978,0.3747061072297775,49,1762115252.0315955
0.5196112394332886,0.38407424092292786,-0.007363812532275915,0.9956079721450806,0.49682044982910156,0.48147374391555786,-0.1642608791589737,0.9983500838279724,0.5543184876441956,0.4728708863258362,-0.00021777171059511602,0.998339831829071,0.5098271369934082,0.7292381525039673,-0.05483045428991318,0.9936056733131409,0.5543214082717896,0.7174820899963379,0.05469362810254097,0.9940564632415771,0.5105381011962891,0.8789839148521423,0.03304683417081833,0.7583534717559814,0.5463322401046753,0.8521318435668945,0.1465199589729309,0.6131216287612915,0.5231671929359436,1.017675757408142,0.1190679669380188,0.6298537254333496,0.5714536905288696,0.9817145466804504,0.23928110301494598,0.5078334808349609,0.46627718210220337,0.7435547113418579,-0.12801416218280792,0.5784321427345276,0.5269301533699036,0.6847085952758789,0.04517700895667076,0.32217171788215637,-178.48647615147075,0.5320742726325989,0.7233601212501526,175.55576194653156,168.1534210535722,0.6438578314420114,-0.029374747139828253,0.03668791959578876,-0.12890572514123097,0.5790859439456426,-8.509472268957651,0.344602165741262,50,1762115252.109973
0.5132045745849609,0.3845163583755493,-0.03570547699928284,0.9959063529968262,0.4996708035469055,0.4812970459461212,-0.171230748295784,0.9985079765319824,0.5460797548294067,0.4702780544757843,0.004838264547288418,0.9983175992965698,0.5087930560112,0.7303004860877991,-0.05567404627799988,0.9941521286964417,0.548556387424469,0.7153178453445435,0.055536799132823944,0.9941065907478333,0.5090646147727966,0.8776767253875732,0.039198391139507294,0.7747390866279602,0.5410009026527405,0.8430721759796143,0.14955167472362518,0.5868819355964661,0.5228734016418457,1.0176525115966797,0.12303473800420761,0.6547136306762695,0.571694016456604,0.964465320110321,0.23889239132404327,0.4899787902832031,0.46623659133911133,0.7418933510780334,-0.14394226670265198,0.6178483963012695,0.5038326978683472,0.6568048000335693,0.052258122712373734,0.30059677362442017,-178.65508712934383,0.5286747217178345,0.7228091657161713,174.88123558197393,165.75352707095269,0.6449811896893325,-0.042908881352259835,-0.00695412018549336,-0.1708268455708755,-0.5508466129489975,-13.356555257346855,0.26062625711405063,51,1762115252.1892002
0.5122181177139282,0.3845382332801819,-0.020588915795087814,0.9960324764251709,0.4998753070831299,0.48029136657714844,-0.1597318947315216,0.9986501932144165,0.54387366771698,0.4699144661426544,0.008063571527600288,0.9981287121772766,0.5072543621063232,0.7352763414382935,-0.053684134036302567,0.9946845173835754,0.5444552302360535,0.7158761620521545,0.053527019917964935,0.9941469430923462,0.5082033276557922,0.8757576942443848,0.04100548475980759,0.7923731803894043,0.5278589129447937,0.8385047316551208,0.16328279674053192,0.5545561909675598,0.5241575241088867,1.0171700716018677,0.1345510482788086,0.677793025970459,0.5714192390441895,0.9465823769569397,0.2695419490337372,0.46272149682044983,0.4661720395088196,0.7406316995620728,-0.1201925277709961,0.6538052558898926,0.5106397271156311,0.6508443355560303,0.05325103923678398,0.2790040969848633,-179.08958093479427,0.5258547961711884,0.725576251745224,174.8989434472941,158.0397434138513,0.6384703962833134,-0.038200455396938185,0.03748465861378464,0.06378324984855442,0.6019951801334762,-13.270555780710088,0.13375474911602955,52,1762115252.2630193
0.5074321031570435,0.3845246136188507,-0.039945490658283234,0.9963696599006653,0.5001590251922607,0.4807125926017761,-0.1578517109155655,0.9987806677818298,0.5450674295425415,0.4695031940937042,-0.005794590339064598,0.998200535774231,0.5066012144088745,0.7394891381263733,-0.05163883417844772,0.9951955080032349,0.5417836904525757,0.7161931991577148,0.051453739404678345,0.9944867491722107,0.507108747959137,0.875555694103241,0.05046587437391281,0.8114997744560242,0.5214511156082153,0.8352463841438293,0.16902092099189758,0.5389131307601929,0.5236605405807495,1.0163263082504272,0.14305239915847778,0.7068939805030823,0.5513750314712524,0.9364198446273804,0.28425198793411255,0.4580408036708832,0.46584177017211914,0.7391453385353088,-0.11229489743709564,0.6857149004936218,0.5251490473747253,0.6553744673728943,0.05355018377304077,0.2729526460170746,-179.64198717670777,0.5241924524307251,0.7278411686420441,173.4895449527967,161.57050903514713,0.6445940867631942,-0.02348518276498565,0.03199818784441061,0.20789374591183438,-0.07751150716734001,-14.014984465277225,0.06795623600270871,53,1762115252.333802
0.5055736899375916,0.3844970762729645,-0.043858807533979416,0.9966610074043274,0.5005054473876953,0.4806782901287079,-0.15637274086475372,0.9988986253738403,0.5441979169845581,0.4679180681705475,-0.011853254400193691,0.9982345700263977,0.5066806077957153,0.7399616837501526,-0.050251565873622894,0.9956516027450562,0.5405508875846863,0.7161688208580017,0.05005473643541336,0.9947386980056763,0.5067635774612427,0.8774220943450928,0.05716058611869812,0.8279876708984375,0.5268627405166626,0.8340969681739807,0.16109566390514374,0.5195128321647644,0.5224744081497192,1.0157979726791382,0.14616675674915314,0.7314205169677734,0.5490418672561646,0.9165579080581665,0.2698820233345032,0.4457676112651825,0.46555525064468384,0.7389630675315857,-0.11103031784296036,0.7151545882225037,0.5323883295059204,0.657770037651062,0.052162058651447296,0.26067614555358887,-179.7146004069694,0.5236157476902008,0.7280652523040771,172.4365343672551,163.00757625959307,0.6345934712577955,-0.00906213823565774,0.0035211729313167567,0.22663871842806738,-0.4474779337633577,-16.280246172882798,0.0667194618529124,54,1762115252.397441
0.5014210343360901,0.3845096230506897,-0.05390940234065056,0.9969238042831421,0.5008382201194763,0.4806525409221649,-0.15929898619651794,0.9990046620368958,0.5405789017677307,0.46784618496894836,-0.009873381815850735,0.99822598695755,0.505744993686676,0.739511251449585,-0.05142449215054512,0.9960472583770752,0.5352925062179565,0.7185002565383911,0.0512244887650013,0.9948052763938904,0.5060953497886658,0.8822801113128662,0.05762274190783501,0.8421640396118164,0.520357608795166,0.8382359147071838,0.15770262479782104,0.49279215931892395,0.5207436680793762,1.0345743894577026,0.1482052505016327,0.7502259016036987,0.5379067063331604,0.9397912621498108,0.2652980089187622,0.42405185103416443,0.4655987620353699,0.7404817938804626,-0.11509206146001816,0.7419188618659973,0.5367674231529236,0.6726368069648743,0.04460122808814049,0.24904826283454895,179.95731072084672,0.5205187499523163,0.729005753993988,171.91694819515962,166.90770009678803,0.6572197537307098,-0.042594651136862956,0.012935218158327922,-0.461190420418205,0.12947635296146354,-17.86143310443327,0.01178971645305568,55,1762115252.4701495
0.4936400055885315,0.383807510137558,-0.089586041867733,0.9970768690109253,0.5042272806167603,0.4821115732192993,-0.18098464608192444,0.9990869760513306,0.5332876443862915,0.467624694108963,0.023330552503466606,0.9981024861335754,0.5062310695648193,0.7389040589332581,-0.058183036744594574,0.9962100386619568,0.5283132791519165,0.7211036682128906,0.05807073786854744,0.9943569302558899,0.5065860152244568,0.8860958814620972,0.0329483337700367,0.8466185331344604,0.5164418816566467,0.8588154911994934,0.15364687144756317,0.4616718590259552,0.5205228328704834,1.0424277782440186,0.1325988620519638,0.7469034194946289,0.5227780342102051,0.9626264572143555,0.26159968972206116,0.3969001770019531,0.46764105558395386,0.743577241897583,-0.11875487864017487,0.7650183439254761,0.5154087543487549,0.7125292420387268,0.04648231342434883,0.2289646416902542,179.66645290864264,0.5172721743583679,0.7300038635730743,175.72756301156826,166.92262601797637,0.6824859033771485,-0.04828921845023423,0.014845775219776518,-0.08470038568870061,0.02841742156686594,-26.49670943841288,0.14651445881665107,56,1762115252.5373814
0.4879542291164398,0.37932613492012024,-0.09858579933643341,0.9972723722457886,0.5094584226608276,0.4819500744342804,-0.18932613730430603,0.9991638660430908,0.5246449708938599,0.465232253074646,0.02126210555434227,0.9975654482841492,0.5096313953399658,0.7381414771080017,-0.0570925772190094,0.996388852596283,0.5226498246192932,0.7211812138557434,0.05701879411935806,0.9937238097190857,0.5085166096687317,0.8890525698661804,0.032356247305870056,0.8521271347999573,0.5139333009719849,0.8614304661750793,0.1418522149324417,0.44595181941986084,0.5205051898956299,1.0431396961212158,0.12469092756509781,0.7549264430999756,0.5178071856498718,0.9726496934890747,0.23392200469970703,0.3808225393295288,0.4706753194332123,0.7457548379898071,-0.12825824320316315,0.7870303988456726,0.48849955201148987,0.6703824400901794,0.05838906019926071,0.2113719880580902,179.7961449175575,0.5161406099796295,0.7296613454818726,175.78400409975401,170.3765257154153,0.6879651938196629,-0.016868393741869905,-0.0051059666905978775,0.46839477526315326,-0.2974235003364028,-47.74784340463197,0.11485881221741362,57,1762115252.6044633
0.4835514426231384,0.3770797848701477,-0.11365051567554474,0.9974767565727234,0.515155017375946,0.4816989004611969,-0.20721189677715302,0.9992374181747437,0.5088926553726196,0.46462368965148926,0.014976171776652336,0.9974995255470276,0.5183483958244324,0.7371225953102112,-0.05899687856435776,0.9964648485183716,0.5124979019165039,0.7212203741073608,0.05897774174809456,0.9933015704154968,0.510301947593689,0.8898253440856934,0.017216233536601067,0.8594639301300049,0.512041449546814,0.8609788417816162,0.1349106729030609,0.43027782440185547,0.5203094482421875,1.0429174900054932,0.10680113732814789,0.7542243599891663,0.5171100497245789,0.9742006659507751,0.2259935438632965,0.36033597588539124,0.4779440760612488,0.744810938835144,-0.15891242027282715,0.8074206709861755,0.46987733244895935,0.6325752139091492,0.06386793404817581,0.20765545964241028,-179.23926928618064,0.5154231488704681,0.729171484708786,172.937725495337,169.46455459067397,0.6916856265185907,-0.011812607704053794,-0.008065291718515088,0.08324077268823928,-0.048723680178894786,-110.14059622635028,0.45089398663050345,58,1762115252.6652002
0.4826502203941345,0.37568366527557373,-0.11240905523300171,0.9976027607917786,0.5164090991020203,0.4816271960735321,-0.20524755120277405,0.9993005394935608,0.5076712965965271,0.46463873982429504,0.017118657007813454,0.9971222281455994,0.5201436877250671,0.7370336651802063,-0.05908597633242607,0.9965118169784546,0.5103707909584045,0.7213827967643738,0.05906138941645622,0.9924864768981934,0.5115517973899841,0.8909697532653809,0.021718939766287804,0.856026291847229,0.5108159184455872,0.8605800867080688,0.13252019882202148,0.40953123569488525,0.5204821228981018,1.0405149459838867,0.11508776247501373,0.7485125064849854,0.5161345601081848,0.9739211201667786,0.22361823916435242,0.33662113547325134,0.48046618700027466,0.7446003556251526,-0.1599372774362564,0.8254011273384094,0.4706522524356842,0.6250315308570862,0.07174326479434967,0.20115675032138824,-179.28023815417663,0.5152572393417358,0.72920823097229,172.83344645872054,168.85233328691712,0.692457230119162,-0.002039427216590321,0.00045169997450258053,0.1201358983482068,0.10469431620314346,-117.21846436285043,0.4514839524818971,59,1762115252.7465513
0.4807249903678894,0.37599554657936096,-0.12319158017635345,0.9977614283561707,0.5195841789245605,0.4820205271244049,-0.21447594463825226,0.9993648529052734,0.501788854598999,0.46450814604759216,0.012313954532146454,0.9968915581703186,0.5216394066810608,0.7325985431671143,-0.06009288504719734,0.9966849684715271,0.5033934116363525,0.7186404466629028,0.06005428358912468,0.9920980930328369,0.5115476846694946,0.8878784775733948,0.013085447251796722,0.8553524613380432,0.5026025176048279,0.8451225161552429,0.13692134618759155,0.3871634304523468,0.5198562145233154,1.0109481811523438,0.0941566452383995,0.7475686073303223,0.5096739530563354,0.963188111782074,0.23468196392059326,0.3135990500450134,0.48727431893348694,0.7441515326499939,-0.17689725756645203,0.842063844203949,0.4710966646671295,0.6350016593933105,0.07090455293655396,0.19662068784236908,-179.5845407938247,0.5125164091587067,0.7256194949150085,169.51603132071892,171.1435348846288,0.6762310783481565,-0.03746793712253804,-0.04905905436104022,-0.48431792298572174,-0.6768262557161862,-135.4591379360098,0.2379269957517065,60,1762115252.8197026
0.48045334219932556,0.37620025873184204,-0.17911763489246368,0.9979696273803711,0.5273786783218384,0.48189517855644226,-0.22501103579998016,0.9994251728057861,0.49367403984069824,0.46497833728790283,-0.0056151049211621284,0.9969741702079773,0.52414870262146,0.7230759263038635,-0.06002158671617508,0.996912956237793,0.49917882680892944,0.7129688858985901,0.059997789561748505,0.992229700088501,0.5123728513717651,0.8861382603645325,-0.012194233015179634,0.8598722219467163,0.5006805062294006,0.8387439250946045,0.1421622782945633,0.37209317088127136,0.5208455324172974,1.017558217048645,0.04477786272764206,0.7418644428253174,0.5089609622955322,0.9569500684738159,0.25289806723594666,0.2976023256778717,0.495682954788208,0.7450203895568848,-0.1963738352060318,0.8572627902030945,0.4631323218345642,0.6330373287200928,0.09570975601673126,0.21029336750507355,-179.73355725023382,0.5116637647151947,0.7180224061012268,169.77831361011977,169.74236824052764,0.694354751291887,-0.013753062111347405,-0.12254021604950141,0.3825183538971474,-1.1852431437339088,-153.3472692977626,0.13576798880799432,61,1762115252.8816993
0.4813857078552246,0.3780558705329895,-0.17767569422721863,0.9981540441513062,0.5303820371627808,0.478959321975708,-0.20994694530963898,0.9994785189628601,0.4864150583744049,0.46680209040641785,0.007496300153434277,0.9970712065696716,0.5247713327407837,0.7177910804748535,-0.06133032590150833,0.9970648288726807,0.49620094895362854,0.711631715297699,0.06132686883211136,0.9922082424163818,0.5123106241226196,0.8839337825775146,-0.04849763959646225,0.8624393939971924,0.5012261867523193,0.8405284285545349,0.13616645336151123,0.352084219455719,0.5211712718009949,1.0196635723114014,0.005957674700766802,0.7200075387954712,0.5103486180305481,0.9558520913124084,0.24925890564918518,0.2795986235141754,0.5033340454101562,0.7449573874473572,-0.18177540600299835,0.8708685636520386,0.45696622133255005,0.6371222138404846,0.08802881091833115,0.2295289933681488,-179.50540892494766,0.5104861408472061,0.7147113978862762,160.92014719542655,165.64627692111185,0.6827271643148016,-0.018472592057923752,-0.051937554696206985,-0.07403208594707636,1.107496372004399,-164.54344013060705,0.23214722422408168,62,1762115252.945449
0.48173707723617554,0.3798547089099884,-0.20101985335350037,0.9983285069465637,0.5311681032180786,0.4754757285118103,-0.20987269282341003,0.9995278716087341,0.4826110005378723,0.4658598303794861,0.004728864412754774,0.9973059296607971,0.5240798592567444,0.7147802710533142,-0.0607515349984169,0.9972183108329773,0.4925295412540436,0.7076819539070129,0.06074976176023483,0.9925076365470886,0.5123372673988342,0.8822423219680786,-0.04087519273161888,0.8741415143013,0.5000094175338745,0.8393410444259644,0.13947847485542297,0.3513876795768738,0.52174311876297,1.0095480680465698,0.006949136964976788,0.7180963158607483,0.5092419385910034,0.9449005126953125,0.259007066488266,0.2810691297054291,0.5150789022445679,0.7400938868522644,-0.20604583621025085,0.8834754228591919,0.4510444104671478,0.6385818123817444,0.08167912811040878,0.26684045791625977,-179.6629532310146,0.508304700255394,0.7112311124801636,164.06201109138266,162.3373480512093,0.6852331583880846,-0.02891004657394008,-0.04612328823391872,-0.1383247828540452,0.07705491263386534,-168.79848657198045,0.15183692100530555,63,1762115253.0209053
0.4812924265861511,0.38062766194343567,-0.1899137794971466,0.9984906315803528,0.5317227840423584,0.47433608770370483,-0.20566514134407043,0.9995726346969604,0.4810938835144043,0.4657086133956909,0.00535555649548769,0.9975377321243286,0.5236013531684875,0.7144875526428223,-0.06021746248006821,0.9973500967025757,0.49203434586524963,0.7073521614074707,0.06020403653383255,0.9928275346755981,0.5123125910758972,0.8816766738891602,-0.036710068583488464,0.8852897882461548,0.5007776021957397,0.8398654460906982,0.14012368023395538,0.35662639141082764,0.5219401121139526,1.004372000694275,0.012112971395254135,0.7182634472846985,0.5109184980392456,0.9456081986427307,0.25644394755363464,0.2885662913322449,0.5188999772071838,0.7351369261741638,-0.1999933123588562,0.8948789238929749,0.45015573501586914,0.6388261914253235,0.0800924226641655,0.3055470287799835,-179.664760409668,0.5078178495168686,0.7109198570251465,164.1425732294365,163.3838118081398,0.6779394629448487,-0.0077327395558787,-0.004943727468266231,0.33636305074026374,0.654062514911158,-170.32934103478286,0.14258836795715898,64,1762115253.083865
0.48108166456222534,0.38018375635147095,-0.22418005764484406,0.9986233711242676,0.5326096415519714,0.4726446270942688,-0.2236122339963913,0.999609649181366,0.47906509041786194,0.4643552899360657,-0.019489482045173645,0.9977392554283142,0.5230284929275513,0.7131074666976929,-0.05987218767404556,0.9974634647369385,0.4900406002998352,0.7042150497436523,0.0598502941429615,0.9932348132133484,0.5122884511947632,0.8794490098953247,-0.022070489823818207,0.8953390717506409,0.5004856586456299,0.840649425983429,0.14198608696460724,0.3711969256401062,0.5226084589958191,0.9935417175292969,0.03633726388216019,0.7204145789146423,0.5111706256866455,0.947932779788971,0.2707544267177582,0.30755332112312317,0.5319170951843262,0.738496720790863,-0.23159702122211456,0.9048090577125549,0.4470924735069275,0.6367013454437256,0.0805700421333313,0.3378746509552002,-179.83367263823607,0.5065345466136932,0.7086612582206726,163.50977671461274,160.88186912604192,0.7019348183010159,-0.02016877688514516,-0.03549682249434194,-0.19544852708483204,-0.48018168992434485,-171.19978818057865,0.0663761092701723,65,1762115253.1474931
0.4810876250267029,0.3791954517364502,-0.22844748198986053,0.998750627040863,0.5329042673110962,0.47026240825653076,-0.2227177917957306,0.9996439814567566,0.4755798876285553,0.4634799659252167,-0.023044530302286148,0.997933566570282,0.5226901769638062,0.7077261805534363,-0.05962156131863594,0.9976056218147278,0.4882930815219879,0.7009288668632507,0.05960043519735336,0.9937145113945007,0.5122714638710022,0.8743264675140381,-0.030971473082900047,0.9048056602478027,0.49997177720069885,0.8409483432769775,0.13435772061347961,0.3881179988384247,0.5233776569366455,0.9824283123016357,0.06842128187417984,0.7269729971885681,0.5117154717445374,0.9499861001968384,0.27011018991470337,0.33727824687957764,0.5392626523971558,0.7366862893104553,-0.2220306694507599,0.9138315916061401,0.44236311316490173,0.6373898983001709,0.04768156260251999,0.3713452219963074,-179.69849875109486,0.505491629242897,0.7043275237083435,146.25795969744655,156.9204441675154,0.7099914491541152,-0.013159586949654788,-0.05468329297092402,0.08844233204430443,-0.24209590669758319,-173.25231157302545,0.10936092408863583,66,1762115253.2267447
0.48179394006729126,0.3777124583721161,-0.2460317313671112,0.9988609552383423,0.5340816378593445,0.46642929315567017,-0.21306335926055908,0.9996722340583801,0.4691486358642578,0.45997700095176697,-0.04099404439330101,0.9981134533882141,0.521640419960022,0.6921344995498657,-0.054295312613248825,0.9977493286132812,0.48183363676071167,0.6863436102867126,0.05434481427073479,0.9941953420639038,0.5115967988967896,0.8675047159194946,-0.06802285462617874,0.9136645793914795,0.49908334016799927,0.838959813117981,0.10060372203588486,0.41060906648635864,0.5232638716697693,0.9726407527923584,0.07717504352331161,0.7343369126319885,0.5070425271987915,0.9504607915878296,0.25430387258529663,0.37489357590675354,0.5512251853942871,0.7271565794944763,-0.21175739169120789,0.9213429689407349,0.4380185008049011,0.6346971988677979,-0.00030878110555931926,0.4015639126300812,-179.969102839388,0.5017370283603668,0.6892390549182892,121.05232878355778,142.74181794084078,0.7152171203941226,-0.0434690873608462,-0.17468753364119918,-0.350909820366794,-1.3893553494966524,-174.32523559292932,0.012420000528243455,67,1762115253.3131187
0.48205119371414185,0.3758091330528259,-0.2643129229545593,0.9989638924598694,0.534218430519104,0.4671112895011902,-0.20965702831745148,0.9996974468231201,0.4635280966758728,0.45800963044166565,-0.06923000514507294,0.9982852935791016,0.5204219222068787,0.6877403855323792,-0.04639395326375961,0.9979014992713928,0.4768953323364258,0.6790141463279724,0.04644354432821274,0.9946660399436951,0.5115155577659607,0.860700249671936,-0.04392414167523384,0.9220271706581116,0.49314266443252563,0.8308799862861633,0.11122988164424896,0.44574058055877686,0.5232242345809937,0.969782829284668,0.08229704201221466,0.752564549446106,0.5025079846382141,0.9221138954162598,0.29518699645996094,0.41902273893356323,0.5572741031646729,0.7168307900428772,-0.220990389585495,0.9278874397277832,0.43549585342407227,0.6355476975440979,-0.03808475285768509,0.4297761917114258,179.94430789959932,0.4986586272716522,0.6833772659301758,131.18384730275113,139.48240158214364,0.7288807038666338,-0.04523518406928348,-0.08613533331464847,-0.025951689655773373,1.3012193557871221,-172.66330644893102,0.020367845528271443,68,1762115253.381172
0.4822918474674225,0.37520626187324524,-0.2643830180168152,0.9990589618682861,0.5336461663246155,0.4672076404094696,-0.20345428586006165,0.999721884727478,0.4627765119075775,0.45689332485198975,-0.06702789664268494,0.9984449148178101,0.5199437141418457,0.6878465414047241,-0.044094908982515335,0.9980542659759521,0.47643011808395386,0.6786952614784241,0.04412692040205002,0.995116114616394,0.5114730596542358,0.8592236638069153,-0.03729565814137459,0.9294919371604919,0.4925593435764313,0.8310902118682861,0.11502066999673843,0.4805963337421417,0.5231870412826538,0.9703212380409241,0.12159360945224762,0.7674088478088379,0.5037659406661987,0.9178422093391418,0.29410824179649353,0.4593786895275116,0.5597435235977173,0.7129049301147461,-0.2205984890460968,0.9336611032485962,0.4353511333465576,0.6360016465187073,-0.038169655948877335,0.45732057094573975,179.9936744763072,0.4981869161128998,0.6832709014415741,126.88699044244585,140.84678829299293,0.7399977503849785,-0.008803898010946469,-0.0019851599697414675,0.679944328036431,1.5705575964990737,-171.7193551981947,0.0021309123634803387,69,1762115253.4347517
0.48276108503341675,0.37399351596832275,-0.2699745297431946,0.9991441369056702,0.5339840054512024,0.46752119064331055,-0.19441856443881989,0.9997445940971375,0.4591573178768158,0.45725470781326294,-0.07850033789873123,0.9985841512680054,0.5201196670532227,0.6882144212722778,-0.037801265716552734,0.9981871843338013,0.47650957107543945,0.6801820397377014,0.03783928602933884,0.9955074787139893,0.5116976499557495,0.855186402797699,-0.03672517091035843,0.936159074306488,0.4914968013763428,0.8304945826530457,0.10710854828357697,0.5175132155418396,0.5218173265457153,0.9598644971847534,0.1494647115468979,0.781391441822052,0.5025419592857361,0.920355498790741,0.2977296710014343,0.49845027923583984,0.5637861490249634,0.7049628496170044,-0.21397146582603455,0.9387398958206177,0.4347456395626068,0.6393140554428101,-0.048683010041713715,0.47840383648872375,-179.5495279152931,0.49831461906433105,0.6841982305049896,119.47844031378155,140.02905238890085,0.7516424459475153,0.0016252287077971532,0.011801777473002619,0.13272767739967428,0.17546130511016295,-172.18759758166883,0.1647820698342742,70,1762115253.5133271
0.48383140563964844,0.3741293251514435,-0.2578094005584717,0.9992225766181946,0.535460352897644,0.46820268034935,-0.17456164956092834,0.9997674822807312,0.4563015103340149,0.4606174826622009,-0.07058106362819672,0.9987041354179382,0.5208959579467773,0.6881038546562195,-0.03321126848459244,0.9983126521110535,0.47660335898399353,0.6806010603904724,0.03326919302344322,0.9958555102348328,0.5121182203292847,0.8506749272346497,-0.02191009931266308,0.9421033263206482,0.48951879143714905,0.8252071142196655,0.10445950925350189,0.5533128380775452,0.5204183459281921,0.9456437230110168,0.1676068753004074,0.7939342856407166,0.5004912614822388,0.9120139479637146,0.29397672414779663,0.5363128185272217,0.567046046257019,0.6930420994758606,-0.20142149925231934,0.9442216157913208,0.43385472893714905,0.6460926532745361,-0.04433906823396683,0.4989069998264313,-179.25272871819212,0.49874965846538544,0.684352457523346,120.37669612070796,140.87825988300577,0.7396833680765312,0.006829789344452513,0.002421247464123429,0.08170766301313086,-0.14726722164632486,-174.5264872173839,0.29766921211126884,71,1762115253.5770245
0.4854235053062439,0.3741733431816101,-0.26396501064300537,0.9992935657501221,0.5365704298019409,0.46823468804359436,-0.16664983332157135,0.9997885227203369,0.4543837010860443,0.46547847986221313,-0.0766596868634224,0.9988002777099609,0.5213463306427002,0.6838635206222534,-0.026884639635682106,0.9984427094459534,0.4757256507873535,0.6793896555900574,0.026917139068245888,0.9961768984794617,0.512963056564331,0.8467385768890381,-0.011584868654608727,0.9474496841430664,0.49059057235717773,0.8257948160171509,0.08499249815940857,0.5912581086158752,0.5174990892410278,0.9442604780197144,0.16735020279884338,0.8082104921340942,0.5003305673599243,0.9086478352546692,0.294893741607666,0.5675331950187683,0.5700192451477051,0.6835059523582458,-0.18408764898777008,0.9489366412162781,0.43145155906677246,0.6491923332214355,-0.04657409340143204,0.5115487575531006,-179.18400309739255,0.49853599071502686,0.6816265881061554,123.81750492907645,133.20656207355455,0.7420761819051945,-0.0033528908892280986,-0.042774554039088926,-0.15978740697243243,-0.709216018033468,-178.0792527339319,0.42848008698544493,72,1762115253.640751
0.48757949471473694,0.37522760033607483,-0.26066598296165466,0.9993551969528198,0.5382809042930603,0.46886807680130005,-0.1547388732433319,0.9998064637184143,0.45375895500183105,0.4689010679721832,-0.07758510857820511,0.9988857507705688,0.5215681791305542,0.6838940382003784,-0.024495603516697884,0.9985584020614624,0.4750705361366272,0.6801785826683044,0.024511046707630157,0.9964733123779297,0.5134912133216858,0.843805193901062,-0.00027553955442272127,0.9520604610443115,0.4909786283969879,0.8262300491333008,0.0927983820438385,0.6248900890350342,0.5159956216812134,0.9418128132820129,0.18272104859352112,0.8210328817367554,0.4997110366821289,0.9090121984481812,0.29512467980384827,0.5997127890586853,0.5692099928855896,0.6784092783927917,-0.16562877595424652,0.9525722861289978,0.42958754301071167,0.6549424529075623,-0.049904972314834595,0.526465892791748,-179.38193134274914,0.4983193576335907,0.6820363104343414,126.68404786239702,137.29077801069351,0.7434402967575598,-0.002735059329227546,0.005172870499136099,0.007800313603389856,0.6053509922230109,179.9776359303985,0.4091939674513352,73,1762115253.7199569
0.48883622884750366,0.37583640217781067,-0.2566612958908081,0.9994082450866699,0.5388758778572083,0.46913591027259827,-0.15018177032470703,0.9998220205307007,0.453704833984375,0.47120657563209534,-0.07584517449140549,0.9989534020423889,0.5217598676681519,0.684027910232544,-0.02447640150785446,0.9986547231674194,0.4752282202243805,0.6806720495223999,0.02449348010122776,0.9967262148857117,0.513810932636261,0.8431966304779053,0.0008594334940426052,0.9561513066291809,0.4909437298774719,0.8263535499572754,0.0959019660949707,0.6536968946456909,0.5152826905250549,0.9397070407867432,0.18629318475723267,0.8318947553634644,0.49915456771850586,0.9095322489738464,0.2943866550922394,0.6288617253303528,0.5693241357803345,0.6769158244132996,-0.16444890201091766,0.9556174874305725,0.42893165349960327,0.6573349237442017,-0.051391683518886566,0.5339869856834412,-179.40494752005367,0.4984940439462662,0.6823499798774719,126.46076182368344,138.81498604670884,0.7406153985929718,0.0027440246131260016,0.004927213009153147,0.08606708198788539,-0.0038588609982527283,178.60730814119597,0.4550913816025056,74,1762115253.7836175
0.49128857254981995,0.37641212344169617,-0.26814162731170654,0.9994593262672424,0.5394424200057983,0.46919775009155273,-0.1485036313533783,0.9998366832733154,0.4537231922149658,0.4735184907913208,-0.0958779826760292,0.9990159869194031,0.5222264528274536,0.6846212148666382,-0.02165905199944973,0.9987423419952393,0.4752248227596283,0.6813167929649353,0.021686943247914314,0.9969494342803955,0.5141646265983582,0.8410418033599854,0.00157670839689672,0.9597867131233215,0.49023184180259705,0.8268056511878967,0.09611053019762039,0.6772657036781311,0.5147664546966553,0.9422589540481567,0.17778150737285614,0.840914785861969,0.49838072061538696,0.9103022217750549,0.2919352650642395,0.6527618765830994,0.5696429014205933,0.67624831199646,-0.16268058121204376,0.958695650100708,0.42582932114601135,0.668904185295105,-0.08193185180425644,0.5474602580070496,-179.4198265544197,0.49872563779354095,0.6829690039157867,128.2523045988623,140.15722695541226,0.7453844467901978,0.002490705128205128,0.006657371794871795,-0.0027243562279014345,0.01860721003993556,177.11440630073244,0.4896386237826732,75,1762115253.8766007
0.4937063157558441,0.37627002596855164,-0.28253883123397827,0.9995073080062866,0.5403872728347778,0.4692949652671814,-0.15116189420223236,0.999849259853363,0.45405513048171997,0.4743020236492157,-0.12007967382669449,0.9990748167037964,0.5226194262504578,0.6835538148880005,-0.016620643436908722,0.9988231062889099,0.47512954473495483,0.6808615922927856,0.016605021432042122,0.997154712677002,0.5148085951805115,0.8421825766563416,0.009074969217181206,0.9630123972892761,0.4896059036254883,0.8270015120506287,0.09060058742761612,0.7019143104553223,0.5151143074035645,0.9430707097053528,0.19001257419586182,0.8509537577629089,0.4980643391609192,0.9116537570953369,0.2831646502017975,0.676547646522522,0.5702825784683228,0.6742888689041138,-0.154962956905365,0.9613161087036133,0.42245301604270935,0.6762882471084595,-0.11566545814275742,0.569083034992218,-179.54980945437077,0.4988744854927063,0.6822077035903931,128.28451436140722,140.57561710304333,0.7572066398943257,0.0021250731830188166,-0.010868954742259618,-0.005220064844316665,-0.2502203710889512,176.6806998236522,0.3771973459738567,76,1762115253.9466443
0.49657243490219116,0.3746722638607025,-0.2976383566856384,0.9995490312576294,0.5419833064079285,0.4690925180912018,-0.14974002540111542,0.9998595714569092,0.45461219549179077,0.4744642972946167,-0.13478264212608337,0.999121367931366,0.5231875777244568,0.6828741431236267,-0.009235437028110027,0.9989001750946045,0.4750387668609619,0.6808261275291443,0.009177732281386852,0.9973422884941101,0.5161092877388,0.8435044884681702,0.01736506074666977,0.9650318026542664,0.48892441391944885,0.8295209407806396,0.07602697610855103,0.724126935005188,0.5153103470802307,0.9442604184150696,0.21245650947093964,0.858694314956665,0.4978218674659729,0.9129401445388794,0.27459853887557983,0.6948164105415344,0.5705128908157349,0.6717677116394043,-0.1424662470817566,0.9624186754226685,0.4203006625175476,0.6802741289138794,-0.13257068395614624,0.590172290802002,-179.77759993049503,0.49911317229270935,0.6818501353263855,126.68670037959838,137.01325468951444,0.7744653851487083,0.0033254774171474887,-0.004981780253581667,0.01672449910088068,0.08202240682205732,176.48175077763796,0.20132585532016012,77,1762115254.0184195
0.4975575804710388,0.3739522397518158,-0.29654309153556824,0.99958735704422,0.5424946546554565,0.4689370095729828,-0.14930996298789978,0.999869167804718,0.4548426568508148,0.4744212329387665,-0.13868293166160583,0.999169647693634,0.5235375761985779,0.6825001835823059,-0.00740137929096818,0.9989727735519409,0.47505608201026917,0.6808709502220154,0.007337694056332111,0.9975171089172363,0.5168922543525696,0.8441396355628967,0.01846930757164955,0.9668060541152954,0.4886818528175354,0.8316554427146912,0.07321906089782715,0.7434195876121521,0.5153666734695435,0.9446427822113037,0.2069505751132965,0.8651655912399292,0.4978662133216858,0.9137559533119202,0.27018070220947266,0.7088088393211365,0.5707297325134277,0.6718460917472839,-0.13765552639961243,0.9638561010360718,0.41969698667526245,0.6809212565422058,-0.13489602506160736,0.6130988597869873,-179.82861681041283,0.4992968291044235,0.6816855669021606,127.14362004004427,136.26284312576192,0.7711827210808139,0.0023076652307028635,-0.002067817834310947,-0.01278890650513603,0.03661421373791021,176.41977611495625,0.16399723849402506,78,1762115254.098005
0.49894747138023376,0.3739102780818939,-0.3046720623970032,0.9996232986450195,0.5432260036468506,0.4677394926548004,-0.1510443389415741,0.9998781681060791,0.45543283224105835,0.47411105036735535,-0.14557412266731262,0.9992294907569885,0.524441659450531,0.6821182370185852,-0.006714243441820145,0.9990431666374207,0.47523316740989685,0.6807141304016113,0.006629724986851215,0.9976943135261536,0.5171123743057251,0.8437058925628662,0.012055916711688042,0.9687861800193787,0.48726075887680054,0.8340283632278442,0.05442246049642563,0.7631998062133789,0.5154727697372437,0.9441441893577576,0.2058955430984497,0.872387707233429,0.49723559617996216,0.9088042378425598,0.2680297791957855,0.720694363117218,0.5695639848709106,0.6703424453735352,-0.13987940549850464,0.9648075103759766,0.42000216245651245,0.6827007532119751,-0.14644986391067505,0.6423090100288391,-179.86172352733936,0.49983741343021393,0.6814161837100983,123.99883309377478,126.68063029469417,0.7737893356466955,0.006890083809917406,-0.0034334565057524357,0.058405777889964906,-0.017405915139212347,175.84905706384075,0.12186189409019721,79,1762115254.1764634
0.49960827827453613,0.37389251589775085,-0.319568008184433,0.9996564388275146,0.5436834096908569,0.46621012687683105,-0.15247280895709991,0.9998866319656372,0.4557575583457947,0.4730473756790161,-0.1521534025669098,0.9992887377738953,0.5253674387931824,0.6808049082756042,-0.0046296073123812675,0.9991061687469482,0.47543439269065857,0.6796862483024597,0.00454676104709506,0.9978472590446472,0.5176676511764526,0.841632604598999,-0.004937171004712582,0.9687931537628174,0.4846813678741455,0.8409659266471863,0.024985378608107567,0.7786716818809509,0.5161613821983337,0.9442901611328125,0.19551584124565125,0.8729196786880493,0.49444741010665894,0.9031084775924683,0.26719337701797485,0.707667350769043,0.5685423016548157,0.6692252159118652,-0.1329631507396698,0.9646512866020203,0.4205494523048401,0.6836878657341003,-0.15126821398735046,0.6707065105438232,-179.8148973615794,0.5004009157419205,0.680245578289032,116.9943749550857,111.69443373913093,0.7783544804044891,0.0067446864370020315,-0.014011240668447366,-0.00174029399472766,-0.1266078876581741,175.5535404338758,0.164718082339705,80,1762115254.2605243
0.5013328790664673,0.37391650676727295,-0.31896719336509705,0.9996886253356934,0.5437325835227966,0.46510085463523865,-0.14717096090316772,0.9998956918716431,0.4559573233127594,0.47149428725242615,-0.1503426432609558,0.9993457198143005,0.5261144638061523,0.6805751323699951,-0.003350017126649618,0.9991681575775146,0.4755271077156067,0.6798454523086548,0.003297738265246153,0.9979897141456604,0.5190712213516235,0.8393863439559937,-0.016270196065306664,0.9688237309455872,0.4821649491786957,0.8471270799636841,0.01010594516992569,0.792453408241272,0.5178357362747192,0.9435136318206787,0.19109082221984863,0.8700360059738159,0.4898856580257416,0.8961494565010071,0.26845160126686096,0.6825050711631775,0.568034827709198,0.6667191386222839,-0.11755377054214478,0.9660653471946716,0.4216921925544739,0.6850069165229797,-0.14413988590240479,0.6985739469528198,-179.736161759367,0.5008207857608795,0.680210292339325,112.00361753249894,103.12693501048919,0.7740435744566677,0.006193618443033746,-0.0005205127754233563,-0.008128955954677254,0.19900544767482786,175.83400913206384,0.3008474434296263,81,1762115254.3278017
0.5013942122459412,0.3727485239505768,-0.3212248682975769,0.9997178316116333,0.5435367822647095,0.4635605812072754,-0.1446380317211151,0.9999045133590698,0.4562237858772278,0.46931666135787964,-0.1439690738916397,0.9993943572044373,0.5262247323989868,0.6798756718635559,-0.0034221564419567585,0.9992303252220154,0.4756278991699219,0.6796427965164185,0.0034010615199804306,0.9981201887130737,0.520044207572937,0.8375539183616638,-0.029701169580221176,0.9698671698570251,0.47897106409072876,0.8527202010154724,-0.011116962879896164,0.8075101971626282,0.5181306600570679,0.9437330365180969,0.19027361273765564,0.8704045414924622,0.4856721758842468,0.8904536962509155,0.2795991897583008,0.6509708762168884,0.5676841139793396,0.6647465229034424,-0.12839558720588684,0.9674710631370544,0.42326074838638306,0.6846427321434021,-0.14200732111930847,0.7219905257225037,-179.7190486130438,0.5009263157844543,0.6797592341899872,106.30856737913854,92.62452968716069,0.7782203559947467,0.001532481156670556,-0.0065501559746424355,-0.06768789409907686,-0.0875610018005719,176.228252619097,0.4367961897357343,82,1762115254.396664
0.5015396475791931,0.37241968512535095,-0.32279014587402344,0.999744176864624,0.543368399143219,0.4626776874065399,-0.1438562572002411,0.9999125003814697,0.4563996195793152,0.4679855704307556,-0.14376744627952576,0.9994390606880188,0.5263745188713074,0.679362952709198,-0.003381716553121805,0.9992856979370117,0.4757233262062073,0.6795121431350708,0.0033718631602823734,0.9982357025146484,0.5205453634262085,0.8364382982254028,-0.032093875110149384,0.9708006381988525,0.4781000018119812,0.8549331426620483,-0.011545528657734394,0.8207076191902161,0.5184265971183777,0.9437768459320068,0.1881343275308609,0.8702801465988159,0.48477697372436523,0.8890076279640198,0.28374719619750977,0.6213415265083313,0.5674521923065186,0.6636619567871094,-0.1293281465768814,0.9687907099723816,0.4242621064186096,0.6843817830085754,-0.14247843623161316,0.7436105608940125,-179.68826667526434,0.5010489225387573,0.6794375479221344,105.6326935555907,91.73852128299156,0.7797989280959119,0.0017714372323898299,-0.0046477621503198405,0.0034524663167321288,0.02748601633108931,176.50745321654585,0.5109037962354613,83,1762115254.465877
0.5017221570014954,0.37113410234451294,-0.3178682029247284,0.9997674822807312,0.5433167219161987,0.4613189995288849,-0.13714617490768433,0.9999194741249084,0.4565931260585785,0.4668412208557129,-0.14180448651313782,0.9994809627532959,0.5263000130653381,0.679283082485199,-0.001850240514613688,0.9993363618850708,0.4751949906349182,0.6794776320457458,0.0018481414299458265,0.9983522891998291,0.5205110907554626,0.8352432250976562,-0.03250604122877121,0.971804678440094,0.4764743745326996,0.8552128076553345,-0.006971550174057484,0.8343775868415833,0.5187082290649414,0.9435521364212036,0.18734659254550934,0.8727524876594543,0.47942012548446655,0.8922165632247925,0.2813902795314789,0.616875171661377,0.567383348941803,0.6644129753112793,-0.11790899932384491,0.9696589112281799,0.4295864999294281,0.6832208633422852,-0.14188823103904724,0.7618287205696106,-179.78907984567954,0.5007475018501282,0.6793803572654724,105.1112881909313,94.4431475308652,0.7771153089390334,-0.004649909705134854,-0.000882259909447675,-0.09905983421586002,0.05808906314350847,176.35654656975916,1.3845493875576704,84,1762115254.5307
0.5021048188209534,0.37046292424201965,-0.3203047215938568,0.9997886419296265,0.543258547782898,0.4589345157146454,-0.13410335779190063,0.9999255537986755,0.45672136545181274,0.46329715847969055,-0.1457817107439041,0.9995236396789551,0.5262441039085388,0.6771679520606995,0.0004339242004789412,0.9993786215782166,0.4747515618801117,0.6783664226531982,-0.0004435641167219728,0.9984612464904785,0.5205063819885254,0.8341869115829468,-0.0297649297863245,0.9711557030677795,0.4758501648902893,0.860242486000061,-0.02041354961693287,0.8443165421485901,0.5185720324516296,0.943753719329834,0.1887231022119522,0.8658567070960999,0.4714682996273041,0.9176861047744751,0.2525625228881836,0.6018611788749695,0.5672208070755005,0.6649859547615051,-0.10583148896694183,0.9708032608032227,0.43395090103149414,0.6828159093856812,-0.14551669359207153,0.7806328535079956,-179.86568690272463,0.5004978328943253,0.6777671873569489,105.7517665268969,95.61131729610089,0.7788211087223512,-0.0035780975583087887,-0.023118930794830968,0.015360533764363311,-0.31868190237761373,177.11396219379353,0.16076575205372148,85,1762115254.600477
0.501980185508728,0.36919400095939636,-0.2525767683982849,0.9998092651367188,0.5430618524551392,0.45593032240867615,-0.10873762518167496,0.9999313950538635,0.4564514756202698,0.46076053380966187,-0.1291961520910263,0.9995677471160889,0.5262182950973511,0.67444908618927,0.0007877458119764924,0.9994124174118042,0.474831759929657,0.677720308303833,-0.0008240771712735295,0.9985765814781189,0.5204048156738281,0.8321832418441772,-0.02684740722179413,0.9712779521942139,0.47622913122177124,0.8577848076820374,-0.0066154091618955135,0.854792058467865,0.5185637474060059,0.9436814188957214,0.15225902199745178,0.8663619756698608,0.464487224817276,0.9396451115608215,0.18674056231975555,0.6182039976119995,0.5673440098762512,0.6657402515411377,-0.06729544699192047,0.9728519320487976,0.4392988085746765,0.6825479865074158,-0.11803300678730011,0.800719678401947,-179.79781413920668,0.500525027513504,0.6760846972465515,111.96865708630126,111.04166917063063,0.7113219961758271,0.00037257915418611564,-0.02305091084885168,0.054126140848963486,0.0009319054543161441,176.80795359211288,0.11311960372885743,86,1762115254.6734672
0.5018075108528137,0.3670039176940918,-0.25624513626098633,0.9998278617858887,0.5419662594795227,0.4541705548763275,-0.10809972137212753,0.999936580657959,0.45541509985923767,0.45864012837409973,-0.1293959766626358,0.9996082782745361,0.525931715965271,0.6724826097488403,0.001974440412595868,0.9994412660598755,0.47489243745803833,0.6771929860115051,-0.0020259697921574116,0.9986869692802429,0.5203391313552856,0.8280152082443237,0.013414831832051277,0.9723963141441345,0.476540744304657,0.8517430424690247,0.019736960530281067,0.8661831021308899,0.5186792016029358,0.9411330223083496,0.17310945689678192,0.8745086789131165,0.4653968811035156,0.9484156966209412,0.18819573521614075,0.6486250758171082,0.5672942996025085,0.665417492389679,-0.06974465399980545,0.9747856855392456,0.44055861234664917,0.6819378137588501,-0.122686006128788,0.8190256953239441,-179.54847944591296,0.5004120767116547,0.6748377978801727,129.50725839370284,126.8446650366866,0.7244265003588508,-0.0017818188656536784,-0.019670057920866558,-0.033986009599090296,0.05333355257732704,177.04382448995872,0.2688466147354311,87,1762115254.736858
0.5019851922988892,0.3658944368362427,-0.25188979506492615,0.9998445510864258,0.5411440134048462,0.453106552362442,-0.1050090566277504,0.9999411702156067,0.4551340937614441,0.45734402537345886,-0.12844198942184448,0.9996441602706909,0.5257373452186584,0.6717471480369568,0.0024131161626428366,0.9994680285453796,0.4749174118041992,0.6768246293067932,-0.0024711971636861563,0.9987850189208984,0.5202710032463074,0.8262061476707458,0.015592803247272968,0.9735572934150696,0.47685161232948303,0.8489503860473633,0.0268730279058218,0.8765841722488403,0.5186785459518433,0.9394757747650146,0.18033994734287262,0.8823994994163513,0.4655051827430725,0.9478258490562439,0.1906513124704361,0.6766138672828674,0.567321240901947,0.6652422547340393,-0.07120807468891144,0.9764818549156189,0.4410092234611511,0.6814027428627014,-0.12377109378576279,0.8353461027145386,-179.42765786151168,0.5003273785114288,0.674285888671875,129.37563817583353,130.65414749012334,0.7247111954803926,-0.001069608076331327,-0.006969764942146322,0.008994127505405685,0.16038517826345086,177.17947455251996,0.338203238839499,88,1762115254.816044
0.5018749833106995,0.36482277512550354,-0.28908365964889526,0.9998594522476196,0.5390965938568115,0.4536471366882324,-0.11468211561441422,0.9999442100524902,0.4538988173007965,0.45740124583244324,-0.14543509483337402,0.9996748566627502,0.5245388150215149,0.672240138053894,0.0030730250291526318,0.9994872212409973,0.4745537340641022,0.6774583458900452,-0.0031301546841859818,0.9988662004470825,0.5199061632156372,0.8262028098106384,0.022921260446310043,0.9750015139579773,0.47569042444229126,0.8473878502845764,0.03318723663687706,0.8866671323776245,0.5186741352081299,0.9378533959388733,0.22312816977500916,0.8906497955322266,0.46597394347190857,0.9479871392250061,0.21393661201000214,0.7036314606666565,0.5667777061462402,0.6656383275985718,-0.08722587674856186,0.9775905013084412,0.44198471307754517,0.6836754083633423,-0.15735511481761932,0.8489513993263245,-179.20365281141574,0.49954627454280853,0.6748492419719696,126.48394255285912,131.08174957702525,0.769390658951875,-0.009197116099927292,0.006633208784483703,-0.09569742044472826,0.1601683433884751,177.47698153638268,0.5567903684038487,89,1762115254.9009733
0.501832127571106,0.3644165098667145,-0.2673253118991852,0.9998729825019836,0.5371102094650269,0.45374661684036255,-0.11737676709890366,0.9999474287033081,0.45102447271347046,0.4576195478439331,-0.14249595999717712,0.9997034072875977,0.5218086242675781,0.672488808631897,0.003216839861124754,0.9995118379592896,0.47150367498397827,0.6775410771369934,-0.0033164862543344498,0.9989491105079651,0.5192605257034302,0.826966404914856,0.02729102410376072,0.9763942360877991,0.47427138686180115,0.847225546836853,0.037515707314014435,0.8959788680076599,0.5187101364135742,0.9376313090324402,0.21471545100212097,0.8983335494995117,0.46607083082199097,0.95152348279953,0.20934677124023438,0.7285065650939941,0.5648430585861206,0.6678087711334229,-0.0827062800526619,0.9788885116577148,0.44096317887306213,0.6871011853218079,-0.14808134734630585,0.8619053959846497,-179.32376028158077,0.4966561496257782,0.6750149428844452,129.41289924816425,134.67896862895816,0.7526342927563779,-0.037843837998489005,0.002169718841900861,-0.37510555212640245,-0.058445774886628235,177.42404400308135,0.5915285515963083,90,1762115254.977343
0.5006612539291382,0.36310335993766785,-0.2593963146209717,0.9998852014541626,0.5343400239944458,0.45420917868614197,-0.1154802069067955,0.9999503493309021,0.4481074810028076,0.45637670159339905,-0.14093469083309174,0.9997304081916809,0.5202010273933411,0.6727672815322876,0.0028822855092585087,0.9995321035385132,0.4698360860347748,0.6780681610107422,-0.0029782443307340145,0.9990248680114746,0.5183709859848022,0.8291616439819336,0.01708727329969406,0.9770587086677551,0.4720388948917389,0.8471465110778809,0.03726821020245552,0.903275728225708,0.5194754600524902,0.9379993677139282,0.20616602897644043,0.9022995829582214,0.46608495712280273,0.9536847472190857,0.19541069865226746,0.7478601932525635,0.5617759823799133,0.6763284802436829,-0.07656552642583847,0.9798106551170349,0.4398082196712494,0.6916752457618713,-0.1426846981048584,0.8739550113677979,-179.01235685940102,0.4950185567140579,0.6754177212715149,125.10690127061632,137.28617771115415,0.7425741974644059,-0.025498901127458076,0.0062716479746962326,0.1922225740269317,0.06387099299246068,178.56012863048727,1.56439559238788,91,1762115255.0415652
0.5001021027565002,0.362038791179657,-0.3291614055633545,0.9998956918716431,0.5332931876182556,0.4543816149234772,-0.14916855096817017,0.9999523162841797,0.446052610874176,0.4555243253707886,-0.17126339673995972,0.9997520446777344,0.5180237293243408,0.6730073094367981,0.0030634799040853977,0.9995487928390503,0.4665801525115967,0.6779480576515198,-0.003173366654664278,0.9990832805633545,0.5178331136703491,0.8319228291511536,0.01342407613992691,0.9779250025749207,0.4713660776615143,0.8471364378929138,0.024729039520025253,0.9103508591651917,0.519849419593811,0.9380543828010559,0.2374323308467865,0.9069916605949402,0.4669155180454254,0.9526036381721497,0.2183416336774826,0.7653543949127197,0.5585955381393433,0.6828599572181702,-0.12148741632699966,0.9799836874008179,0.43494874238967896,0.6928266286849976,-0.1736779510974884,0.8833014965057373,-179.3169660948992,0.49230194091796875,0.6754776835441589,119.07848371492707,127.87492922250362,0.8065826304839244,-0.03428603560907649,0.000756775624302277,-0.11090121988255697,-0.06960244803748904,179.24956087699582,2.158265930768563,92,1762115255.120799
0.4998675286769867,0.36140334606170654,-0.3374714255332947,0.9999051094055176,0.5330436825752258,0.4543320834636688,-0.15889301896095276,0.999954104423523,0.4454496502876282,0.45481812953948975,-0.17912060022354126,0.9997721314430237,0.5172662734985352,0.6731463670730591,0.003613566979765892,0.9995502233505249,0.4658871591091156,0.6777737736701965,-0.0037141120992600918,0.9991282820701599,0.5177673101425171,0.8339623212814331,0.012039754539728165,0.977652907371521,0.47145548462867737,0.8463894128799438,0.021522093564271927,0.9153516888618469,0.5201035737991333,0.937019944190979,0.2340938299894333,0.90845787525177,0.4673349857330322,0.954547643661499,0.21522483229637146,0.7797656655311584,0.557489275932312,0.6842146515846252,-0.12543155252933502,0.9802501797676086,0.4322268068790436,0.6929681301116943,-0.1733350306749344,0.8916754722595215,-179.39562625759348,0.4915767163038254,0.6754600703716278,117.89548949911055,127.61364905078868,0.8108818017518804,-0.011448943297513973,-0.0002780548393774583,0.36052358104806786,-0.01633661498817686,179.68207762267966,2.608894754159128,93,1762115255.1841433
0.49933919310569763,0.36058396100997925,-0.3477044999599457,0.9999130964279175,0.5325775742530823,0.4541049003601074,-0.16509905457496643,0.9999558925628662,0.44499969482421875,0.4548127055168152,-0.17884454131126404,0.9997869729995728,0.51618891954422,0.6731182932853699,0.004041652195155621,0.9995492100715637,0.4647913873195648,0.6772059798240662,-0.004137313924729824,0.9991621971130371,0.518044114112854,0.8382309675216675,0.014699491672217846,0.9774875044822693,0.47168296575546265,0.8454665541648865,0.021089106798171997,0.9198030829429626,0.5228711366653442,0.9357056617736816,0.2405407428741455,0.9103561639785767,0.46776705980300903,0.9546048641204834,0.2168881893157959,0.7926660180091858,0.5553343296051025,0.6829593181610107,-0.1360701620578766,0.98056560754776,0.42404618859291077,0.6929272413253784,-0.1725192368030548,0.8976467251777649,-179.55828524055534,0.4904901534318924,0.675162136554718,117.04459282270231,127.56659015716119,0.8209741729427514,-0.01718357043477605,-0.0047117077713721214,-0.09069090420420592,-0.0701165016845713,179.53694511090848,3.7268381566464606,94,1762115255.247376
0.4991062581539154,0.3600401282310486,-0.34211525321006775,0.999920129776001,0.5317543745040894,0.4531177878379822,-0.15621063113212585,0.9999581575393677,0.4448511600494385,0.45482033491134644,-0.16952356696128845,0.9997983574867249,0.5157501697540283,0.673158586025238,0.004551214165985584,0.9995691180229187,0.46440058946609497,0.6771504282951355,-0.004637293983250856,0.9992077350616455,0.5184308290481567,0.8396214246749878,0.013556787744164467,0.9776952266693115,0.47170835733413696,0.8448789119720459,0.02141728065907955,0.9238743185997009,0.5258588790893555,0.9367517828941345,0.2563871145248413,0.9114487171173096,0.46805495023727417,0.9525660276412964,0.24873118102550507,0.802818775177002,0.5517021417617798,0.678946316242218,-0.13551296293735504,0.9808085560798645,0.4183328151702881,0.6925989985466003,-0.1673405021429062,0.9031146168708801,-179.54083311954258,0.49007537961006165,0.6751545071601868,114.91177772765612,124.09406524212386,0.8339192870586719,-0.005231513502135082,-9.622902507968966e-05,0.15075046671318862,0.05821471392160141,178.8776446895269,0.9387238134101211,95,1762115255.3266597
0.4989284873008728,0.35902103781700134,-0.3355579674243927,0.9999269247055054,0.532131552696228,0.45222100615501404,-0.15466992557048798,0.9999606609344482,0.44534188508987427,0.4539545774459839,-0.15943503379821777,0.9998094439506531,0.5157485604286194,0.6722524762153625,0.0039116861298680305,0.9995772838592529,0.4642314016819,0.6756956577301025,-0.004005426075309515,0.9992389678955078,0.518633246421814,0.8394109010696411,0.008986987173557281,0.9786884784698486,0.4717622399330139,0.8441848158836365,0.022048410028219223,0.9289188981056213,0.5274972319602966,0.9368366003036499,0.2465495616197586,0.9157190918922424,0.4690083861351013,0.9518386125564575,0.2406376600265503,0.8169899582862854,0.5485199689865112,0.6724814772605896,-0.1600264459848404,0.9812734723091125,0.4123581051826477,0.6888120174407959,-0.16119368374347687,0.909127414226532,-179.67491931335877,0.4899899810552597,0.6739740669727325,114.05561625596812,124.93262844661471,0.8234151399025188,-0.001191805138716053,-0.016473986996825736,0.056377361392157786,-0.22856471232615186,178.85570351017284,0.4100900358183927,96,1762115255.3983145
0.4989250600337982,0.35768818855285645,-0.3280959129333496,0.9999333024024963,0.5323513150215149,0.4499758780002594,-0.15601329505443573,0.9999629855155945,0.44569116830825806,0.4525620639324188,-0.15245793759822845,0.9998224377632141,0.5160425901412964,0.6715226769447327,0.0022801109589636326,0.9995825886726379,0.46468091011047363,0.6745111346244812,-0.0023615604732185602,0.9992743730545044,0.5193062424659729,0.8391566872596741,0.021827805787324905,0.9797865152359009,0.4719477593898773,0.8401193618774414,0.0358363576233387,0.9341837763786316,0.5297611951828003,0.93840092420578,0.24449749290943146,0.9208449721336365,0.4707849621772766,0.9522046446800232,0.2288305014371872,0.8307024240493774,0.5471428036689758,0.664806604385376,-0.16693446040153503,0.9815252423286438,0.4094370901584625,0.6848190426826477,-0.14237722754478455,0.9154483079910278,-179.6536403295084,0.490361750125885,0.6730169057846069,120.69060117195787,133.0664274429224,0.8150131818081062,0.005587511780156304,-0.01438567604659746,0.10188989923744855,0.03138631735933242,178.29063786189502,0.2884626710600903,97,1762115255.4648502
0.4989188611507416,0.3566635549068451,-0.327554315328598,0.99993896484375,0.532489001750946,0.44888851046562195,-0.15627194941043854,0.9999648928642273,0.44590362906455994,0.45134276151657104,-0.14898374676704407,0.9998334050178528,0.5162438154220581,0.670976996421814,0.0012616629246622324,0.9995848536491394,0.4649738371372223,0.6737754344940186,-0.0013399970484897494,0.9993019700050354,0.5197169184684753,0.8388720750808716,0.0214394498616457,0.9807240962982178,0.47205424308776855,0.8382105231285095,0.03602835536003113,0.9388828277587891,0.5306225419044495,0.9391305446624756,0.23870849609375,0.9252643585205078,0.4716603755950928,0.952282190322876,0.22462646663188934,0.8429638743400574,0.5468752980232239,0.662591814994812,-0.170311838388443,0.9815347790718079,0.40876755118370056,0.6816800236701965,-0.14138241112232208,0.9208255410194397,-179.63587865138223,0.4906088262796402,0.6723762154579163,121.641902109144,133.91423669469725,0.8122225020854141,0.0034855708591897483,-0.00903839362292518,-0.0296526553069092,0.0754355752610475,178.3763933580894,0.26869767179398285,98,1762115255.5357356
0.4993589520454407,0.35626229643821716,-0.32594403624534607,0.9999439120292664,0.5337738394737244,0.4481649696826935,-0.1553400605916977,0.9999670386314392,0.4465184807777405,0.45079997181892395,-0.14513742923736572,0.9998427033424377,0.5169417858123779,0.6693350672721863,0.0010859350441023707,0.9995891451835632,0.4651779234409332,0.6721949577331543,-0.0011688953964039683,0.9993233680725098,0.5206404328346252,0.8365432024002075,0.023905165493488312,0.9813947677612305,0.4733352065086365,0.8370387554168701,0.036440409719944,0.9425668716430664,0.5312708616256714,0.9398496150970459,0.23478849232196808,0.9284953474998474,0.47238439321517944,0.9523370265960693,0.22316381335258484,0.851895272731781,0.5475974082946777,0.659871518611908,-0.16299359500408173,0.9822463393211365,0.4067728519439697,0.6785274744033813,-0.12755116820335388,0.926414966583252,-179.7634221808013,0.4910598546266556,0.6707650125026703,123.88916924461554,134.4623955341274,0.8098414338401023,0.006796421706874562,-0.02427877274605256,0.04989029784565128,-0.22965306765937835,178.27026518112427,0.18874835530303435,99,1762115255.6020982
