nose_x,nose_y,nose_z,nose_visibility,left_shoulder_x,left_shoulder_y,left_shoulder_z,left_shoulder_visibility,right_shoulder_x,right_shoulder_y,right_shoulder_z,right_shoulder_visibility,left_hip_x,left_hip_y,left_hip_z,left_hip_visibility,right_hip_x,right_hip_y,right_hip_z,right_hip_visibility,left_knee_x,left_knee_y,left_knee_z,left_knee_visibility,right_knee_x,right_knee_y,right_knee_z,right_knee_visibility,left_ankle_x,left_ankle_y,left_ankle_z,left_ankle_visibility,right_ankle_x,right_ankle_y,right_ankle_z,right_ankle_visibility,left_wrist_x,left_wrist_y,left_wrist_z,left_wrist_visibility,right_wrist_x,right_wrist_y,right_wrist_z,right_wrist_visibility,trunk_lateral_inclination,center_mass_x,center_mass_y,left_knee_angle,right_knee_angle,person_height,center_mass_velocity_x,center_mass_velocity_y,center_mass_acceleration_x,center_mass_acceleration_y,body_orientation,torso_leg_ratio,frame,timestamp
0.504185140132904,0.33610138297080994,-0.2420669049024582,0.9999963045120239,0.5469949245452881,0.42908158898353577,-0.12895716726779938,0.9999799728393555,0.4549481272697449,0.4356951117515564,-0.13438503444194794,0.999972939491272,0.5286788940429688,0.6502116918563843,-0.0032552238553762436,0.9998874664306641,0.47740045189857483,0.6507468223571777,0.0030256614554673433,0.99985671043396,0.5261592864990234,0.81097811460495,0.03876983001828194,0.992919385433197,0.47664594650268555,0.810917854309082,0.04881221055984497,0.989871084690094,0.5284255743026733,0.9242671728134155,0.180009126663208,0.9904605746269226,0.4723195433616638,0.9250624179840088,0.1785472184419632,0.9817160964012146,0.5677713751792908,0.6548956632614136,-0.11029563099145889,0.9819891452789307,0.4342532753944397,0.671678364276886,-0.13712021708488464,0.9800485372543335,-179.45668277453586,0.5030396729707718,0.650479257106781,143.3472400884651,147.2754333316249,0.7238460475270612,0.0,0.0,0.0,0.0,175.89038496432426,2.005850037361316,0,1762115256.1555405
0.5041882395744324,0.33557915687561035,-0.20400169491767883,0.9999964237213135,0.5469843149185181,0.4285837411880493,-0.10976962000131607,0.9999804496765137,0.4548359811306,0.435759961605072,-0.11401261389255524,0.9999721646308899,0.5290727615356445,0.6520483493804932,-0.003253455040976405,0.9998819231987,0.47743719816207886,0.6522212028503418,0.0030263965018093586,0.9998518228530884,0.5262033939361572,0.8112580180168152,0.0275740809738636,0.9926694631576538,0.47620171308517456,0.8109127283096313,0.04910470172762871,0.9895280003547668,0.5290603041648865,0.9251899123191833,0.14315903186798096,0.9891666769981384,0.4722824692726135,0.926455020904541,0.1605936735868454,0.9794516563415527,0.568966269493103,0.6549007296562195,-0.09267913550138474,0.9831341505050659,0.43435612320899963,0.6740983128547668,-0.10644648969173431,0.980690598487854,-179.38924307966928,0.5032549798488617,0.6521347761154175,145.48517419777664,152.19713486719635,0.6892377802602639,0.0031861024280442282,0.02449830297984039,0.04714781418989556,0.3625248914455947,175.54697386394494,4.406197192163886,1,1762115256.2231174
0.5042389631271362,0.3345843553543091,-0.1771651804447174,0.9999966621398926,0.5470038056373596,0.42814940214157104,-0.09465311467647552,0.9999812245368958,0.45483702421188354,0.4356749355792999,-0.0964660793542862,0.9999715685844421,0.529192328453064,0.6529711484909058,-0.003303107339888811,0.9998812079429626,0.47743692994117737,0.6534181833267212,0.0030935604590922594,0.9998505115509033,0.5263353586196899,0.8114874958992004,0.021634798496961594,0.9925867915153503,0.47604456543922424,0.8110039830207825,0.04905949532985687,0.989305853843689,0.5296438336372375,0.9260269999504089,0.11834261566400528,0.9884566068649292,0.47225087881088257,0.9268880486488342,0.1432146579027176,0.9778953790664673,0.5697275400161743,0.6548564434051514,-0.07992252707481384,0.9843102693557739,0.4341597557067871,0.6745836734771729,-0.08996561914682388,0.9814249873161316,-179.380099997598,0.5033146291971207,0.6531946659088135,148.68032737185175,157.1451529531289,0.667198679077208,0.0008846674728787429,0.015719367477121965,-0.034132890051733415,-0.13020156820552006,175.3320828328596,9.828231591595058,2,1762115256.290543
0.5042892694473267,0.333986759185791,-0.1888633370399475,0.9999968409538269,0.5475295186042786,0.42747780680656433,-0.10074710845947266,0.9999814629554749,0.45500999689102173,0.43524277210235596,-0.1016317754983902,0.9999710321426392,0.5300588607788086,0.6531323194503784,-0.0034633551258593798,0.999874472618103,0.47762125730514526,0.653457760810852,0.003282890422269702,0.999845564365387,0.527111828327179,0.811505913734436,0.02182254195213318,0.9922875165939331,0.4762198328971863,0.8112080097198486,0.04845913127064705,0.9889185428619385,0.530976414680481,0.926006555557251,0.12540261447429657,0.9872753024101257,0.4722506105899811,0.9273476600646973,0.1410336196422577,0.975914716720581,0.571016252040863,0.6548569798469543,-0.08777733892202377,0.9851832389831543,0.4339839518070221,0.675288200378418,-0.09642587602138519,0.9819955229759216,-179.3364678937147,0.5038400590419769,0.6532950401306152,146.84388753672755,157.39654661589708,0.6745557590755454,0.008264782430967819,0.0015788427570119744,0.11608599138639211,-0.22242429016075774,175.20253113644077,48.207029622673886,3,1762115256.3541176
0.5047626495361328,0.33289504051208496,-0.22717063128948212,0.9999969601631165,0.5480443239212036,0.42628180980682373,-0.11870439350605011,0.9999818801879883,0.45538052916526794,0.4348033368587494,-0.12114404141902924,0.9999713897705078,0.5309876799583435,0.6531416773796082,-0.003478077007457614,0.9998670220375061,0.47821158170700073,0.6535392999649048,0.003302856581285596,0.9998403191566467,0.5278269052505493,0.810585081577301,0.02404543198645115,0.9922114014625549,0.4771142601966858,0.8135005235671997,0.052380096167325974,0.9886752367019653,0.5319985747337341,0.9259202480316162,0.1544211208820343,0.9866361021995544,0.4725041389465332,0.9273397922515869,0.1729974001646042,0.974983274936676,0.5719374418258667,0.6548395156860352,-0.10339566320180893,0.9857916831970215,0.433722585439682,0.6758911609649658,-0.10711052268743515,0.982356071472168,-179.25755426821215,0.5045996308326721,0.6533404886722565,141.33247197250137,150.37685541289693,0.7108548532930297,0.012006900658407987,0.000718426001650731,0.05915338399780358,-0.013601003398239539,174.74575681074663,13.110195058645722,4,1762115256.417379
0.5051151514053345,0.33213868737220764,-0.2332921326160431,0.999997079372406,0.5484124422073364,0.4256262481212616,-0.1237877830862999,0.9999821782112122,0.4556257724761963,0.4345189034938812,-0.12710711359977722,0.9999716281890869,0.5315650105476379,0.6532143354415894,-0.0034871406387537718,0.9998593926429749,0.4785493016242981,0.6536408066749573,0.003315722569823265,0.999835193157196,0.5281652808189392,0.8102671504020691,0.025515656918287277,0.9921165108680725,0.4775168001651764,0.814818799495697,0.05275733396410942,0.9884375333786011,0.5323926210403442,0.9257382154464722,0.1612633913755417,0.9859954118728638,0.4726177155971527,0.9273704290390015,0.17627662420272827,0.9740629196166992,0.5724745392799377,0.6548817753791809,-0.10617508739233017,0.9863592982292175,0.4335363805294037,0.6767991781234741,-0.10876147449016571,0.982720673084259,-179.22071750763118,0.505057156085968,0.6534275710582733,140.7644469481729,149.3668370764756,0.7176285416128874,0.005189249411172976,0.000987688039307415,-0.07732577046936558,0.0030539688471742533,174.5255049628933,9.018402186077958,5,1762115256.5055468
0.5065066814422607,0.33213523030281067,-0.2242484837770462,0.9999971985816956,0.548897922039032,0.4253525137901306,-0.11867862939834595,0.9999826550483704,0.4559811055660248,0.4342218041419983,-0.12485401332378387,0.9999720454216003,0.5322334170341492,0.6532415151596069,-0.0033675222657620907,0.999859631061554,0.47905927896499634,0.6537503600120544,0.003197339829057455,0.9998369216918945,0.5286442041397095,0.8093537092208862,0.025829661637544632,0.9920701384544373,0.47890836000442505,0.8190144896507263,0.0535193607211113,0.9882227182388306,0.5327670574188232,0.9256033301353455,0.16122406721115112,0.9856833815574646,0.47262173891067505,0.9273769855499268,0.1756085455417633,0.9735919833183289,0.5727246999740601,0.6548807621002197,-0.10446690022945404,0.9869832992553711,0.4334743916988373,0.6765479445457458,-0.11154203116893768,0.9833464026451111,-179.17872922807476,0.5056463479995728,0.6534959375858307,141.1554073520095,148.4575299087964,0.7123608290894117,0.006807813731053824,0.0007899405512917285,0.018701689800974978,-0.002284871929009058,174.54740375624283,2.96138318740599,6,1762115256.5920932
0.508298933506012,0.33303284645080566,-0.2448558807373047,0.9999972581863403,0.5489500164985657,0.42497915029525757,-0.1254149079322815,0.9999834299087524,0.4566146433353424,0.434087336063385,-0.13736873865127563,0.9999724626541138,0.532869815826416,0.6531487107276917,-0.002364544663578272,0.9998611807823181,0.4799116551876068,0.6538095474243164,0.002184625482186675,0.9998376965522766,0.5291651487350464,0.8082934617996216,0.018177378922700882,0.9919764995574951,0.48051199316978455,0.8263644576072693,0.051342569291591644,0.9876507520675659,0.5326770544052124,0.9242549538612366,0.18189813196659088,0.9850756525993347,0.4708724915981293,0.9259143471717834,0.20178353786468506,0.9729310870170593,0.5735749006271362,0.654460608959198,-0.10939860343933105,0.9876065254211426,0.4334173798561096,0.6755545139312744,-0.13015210628509521,0.9840429425239563,-179.07688180587172,0.5063907355070114,0.653479129076004,132.79480483069364,139.28154011832433,0.7357118490481233,0.010237015967736646,-0.00023115511983999476,0.04715930574159058,-0.01404238059546369,174.36642995809885,1.1773714443983716,7,1762115256.6648085
0.5110843181610107,0.33454856276512146,-0.22268974781036377,0.9999973773956299,0.5489648580551147,0.424922913312912,-0.1071353554725647,0.9999843239784241,0.45722728967666626,0.43409258127212524,-0.12929904460906982,0.9999729990959167,0.5328264236450195,0.653025209903717,0.00029409962007775903,0.9998636841773987,0.48021793365478516,0.6543464064598083,-0.00046018953435122967,0.9998403787612915,0.5294169783592224,0.8083473443984985,0.0035149480681866407,0.9920567274093628,0.4833506643772125,0.8340726494789124,0.012355612590909004,0.9873738288879395,0.5326076745986938,0.9242544174194336,0.16610148549079895,0.9839479327201843,0.4681931436061859,0.9259597063064575,0.18011224269866943,0.9694381356239319,0.5742200613021851,0.6535080671310425,-0.09161179512739182,0.9883617162704468,0.43343067169189453,0.6741682291030884,-0.12915198504924774,0.9849088788032532,-179.12441894466306,0.5065221786499023,0.6536858081817627,126.6306949281024,122.57469023577038,0.7110052353991504,0.001714856046184664,0.0026964123524069027,-0.11118326256207048,0.03819413223070886,174.2919353462701,0.5725048061284708,8,1762115256.7414582
0.5158913731575012,0.3347366452217102,-0.2310723513364792,0.9999974370002747,0.548622727394104,0.4249283969402313,-0.10978779941797256,0.9999849796295166,0.45723891258239746,0.4342441260814667,-0.1395692676305771,0.9999734163284302,0.532781720161438,0.6528804898262024,0.00435120752081275,0.9998553395271301,0.48048490285873413,0.6556310653686523,-0.004500101786106825,0.9998355507850647,0.5298130512237549,0.8091164231300354,0.01076839305460453,0.9915724992752075,0.48559102416038513,0.839876651763916,-3.0018805773579516e-05,0.9865253567695618,0.532483696937561,0.9242532253265381,0.1877700388431549,0.9818938970565796,0.466339647769928,0.9365106225013733,0.15040503442287445,0.9670433402061462,0.5752354860305786,0.6537371873855591,-0.09518053382635117,0.9889467358589172,0.4335004687309265,0.6741846799850464,-0.13987264037132263,0.9855458736419678,-179.05586685479867,0.5066333115100861,0.6542557775974274,125.36670930354963,123.66209729731806,0.7177693323810247,0.0017844700856009677,0.009152048910463532,0.001117798738112952,0.10365872256252834,174.179335722921,0.4465478688680086,9,1762115256.803736
0.5173647403717041,0.33485159277915955,-0.2305206060409546,0.9999974966049194,0.5484532117843628,0.42493680119514465,-0.11094486713409424,0.9999855756759644,0.45724374055862427,0.4344286620616913,-0.1392395794391632,0.9999736547470093,0.5327328443527222,0.6528044939041138,0.005271720699965954,0.9998489618301392,0.4806675910949707,0.6563593149185181,-0.005417065694928169,0.999832034111023,0.5300549864768982,0.8093587160110474,0.013287484645843506,0.9911043643951416,0.4864098131656647,0.8409594893455505,0.0018906161421909928,0.9856250286102295,0.5323827862739563,0.924041211605072,0.1863790899515152,0.9799746870994568,0.4657967984676361,0.9388855695724487,0.14638873934745789,0.9647035002708435,0.5757311582565308,0.6539356708526611,-0.09548409283161163,0.9894959330558777,0.4335571825504303,0.674195408821106,-0.13910295069217682,0.986151933670044,-179.0188182620142,0.5067002177238464,0.6545819044113159,126.4338968433524,125.82219308344992,0.7168073726982366,0.0007659857298052725,0.003733711287865967,-0.01166026948354153,-0.062032643381095695,174.05880804557765,0.4212496624785115,10,1762115256.8910825
0.5212346315383911,0.3350168764591217,-0.2060813456773758,0.9999974966049194,0.5466487407684326,0.4249822795391083,-0.09863866865634918,0.9999856948852539,0.4568230211734772,0.43528667092323303,-0.13708415627479553,0.999973475933075,0.5324534177780151,0.6526169180870056,0.00933110248297453,0.9998323917388916,0.48082566261291504,0.6575013399124146,-0.0094452491030097,0.9998293519020081,0.530800998210907,0.8072701096534729,0.031115924939513206,0.9905839562416077,0.48668041825294495,0.8403241634368896,-0.005244669504463673,0.9855959415435791,0.5323483347892761,0.9224783182144165,0.1825578808784485,0.9795399308204651,0.46584391593933105,0.9507819414138794,0.08384882658720016,0.9654412865638733,0.5759433507919312,0.6496792435646057,-0.09126036614179611,0.9896210432052612,0.4337899684906006,0.6802279353141785,-0.13625580072402954,0.9861578345298767,-178.75107298114554,0.5066395401954651,0.6550591289997101,135.26572837156561,141.1773932641698,0.6910446637677691,-0.0007433695525178175,0.00584655041476808,-0.01849133922791467,0.02588471083456607,173.45589890056954,0.5083839195421209,11,1762115256.9727075
0.5248517394065857,0.33504316210746765,-0.21072587370872498,0.9999973773956299,0.5415312051773071,0.42426037788391113,-0.0957135409116745,0.9999856352806091,0.4557945132255554,0.4363570809364319,-0.14960038661956787,0.9999730587005615,0.5309414863586426,0.6526064276695251,0.013221671804785728,0.9998024106025696,0.4808347225189209,0.6596442461013794,-0.013295437209308147,0.9998193383216858,0.5307655334472656,0.8061211705207825,0.056652747094631195,0.9896791577339172,0.48615923523902893,0.8404513001441956,-0.0006816015229560435,0.9850404262542725,0.5325376391410828,0.9188494086265564,0.2054184228181839,0.9783135652542114,0.4658319354057312,0.956541121006012,0.09828070551156998,0.9653739929199219,0.5757442712783813,0.6398728489875793,-0.08117944747209549,0.9897363185882568,0.43447980284690857,0.6858403086662292,-0.14703091979026794,0.986259400844574,-178.16738511744666,0.5058881044387817,0.6561253368854523,142.94308987307215,142.46854104924947,0.7037821377957805,-0.009870749321958522,0.014005549605076072,-0.1198959150787788,0.1071754105514703,171.96907276929608,0.7787001831250655,12,1762115257.048835
0.5309267640113831,0.334677517414093,-0.20757851004600525,0.9999911785125732,0.5347262620925903,0.4242713153362274,-0.08646149933338165,0.9999744892120361,0.4554012417793274,0.4383143484592438,-0.19821308553218842,0.9999671578407288,0.528605043888092,0.6547878980636597,0.020340491086244583,0.9996761083602905,0.48047971725463867,0.6636946201324463,-0.02037954330444336,0.9997373223304749,0.5299699306488037,0.806239664554596,0.06942156702280045,0.9873545169830322,0.48466402292251587,0.8415740132331848,0.011520631611347198,0.9823119044303894,0.5326542258262634,0.9196943640708923,0.24288085103034973,0.9750751852989197,0.4658896327018738,0.9595688581466675,0.1734575629234314,0.9622262120246887,0.5689212679862976,0.6382872462272644,-0.06945451349020004,0.9704227447509766,0.43446582555770874,0.6941114664077759,-0.18120832741260529,0.9851740598678589,-177.6188792670898,0.5045423805713654,0.659241259098053,141.14293420423513,135.79034107830802,0.734722837708608,-0.016751969205016946,0.03878792240708973,-0.0856594628103434,0.3084983153368783,169.96085186888288,1.178047806699009,13,1762115257.1291673
0.5344580411911011,0.3404860198497772,-0.15908589959144592,0.9999744296073914,0.5285914540290833,0.4232500195503235,-0.058746349066495895,0.9999527931213379,0.45593953132629395,0.44184330105781555,-0.18125532567501068,0.999961793422699,0.5267510414123535,0.6566495299339294,0.022739538922905922,0.9994743466377258,0.4801444411277771,0.6669134497642517,-0.02281353436410427,0.9996399879455566,0.5265336036682129,0.8065597414970398,0.07137366384267807,0.9855222105979919,0.48246631026268005,0.8424147963523865,0.014471491798758507,0.979676365852356,0.5320897698402405,0.9198456406593323,0.22818565368652344,0.9725441336631775,0.4654471278190613,0.959570050239563,0.1729935109615326,0.9596642255783081,0.5558885335922241,0.5880540013313293,0.028629645705223083,0.9333576560020447,0.43438777327537537,0.6992104053497314,-0.16272404789924622,0.9836207032203674,-177.2072822281053,0.5034477412700653,0.6617814898490906,143.7809545179269,138.11829088833073,0.699790679824372,-0.01417358688605563,0.0328913654184546,0.03338535879340822,-0.07634968222659302,165.6448161775809,1.950672956319279,14,1762115257.2063982
0.533939003944397,0.34442341327667236,-0.1655772626399994,0.9999671578407288,0.5260165929794312,0.42263174057006836,-0.05836021900177002,0.9999281764030457,0.4565132260322571,0.4419710040092468,-0.18665029108524323,0.9999603033065796,0.5257948637008667,0.6577929854393005,0.025752490386366844,0.9992738366127014,0.4799423813819885,0.6682479381561279,-0.025837484747171402,0.9995853900909424,0.5252050757408142,0.8069993853569031,0.08445961773395538,0.9835357666015625,0.48144906759262085,0.8435176610946655,0.008729705587029457,0.9783039689064026,0.5319730043411255,0.9199294447898865,0.2565719187259674,0.9701806902885437,0.4652925431728363,0.9634285569190979,0.16838012635707855,0.958579957485199,0.5540828704833984,0.5781735777854919,0.032353825867176056,0.8922633528709412,0.43443188071250916,0.7009487748146057,-0.17093779146671295,0.9825751185417175,-177.12081011509287,0.5028686225414276,0.6630204617977142,144.68959464890187,137.7970405755467,0.7077323316194584,-0.007821002402004031,0.01673232466336525,0.08579169702484933,-0.21822795622052807,164.45081089873628,2.4713475606139688,15,1762115257.2804449
0.5349287986755371,0.34809815883636475,-0.1731334924697876,0.9999589323997498,0.5246912837028503,0.4226607382297516,-0.06490747630596161,0.99990314245224,0.45922932028770447,0.44749653339385986,-0.2283187359571457,0.99995356798172,0.5241823792457581,0.6639243364334106,0.03861931338906288,0.999244213104248,0.4804120659828186,0.6764271855354309,-0.03870033472776413,0.9995695352554321,0.5251052379608154,0.808823823928833,0.13279254734516144,0.9788629412651062,0.4808306097984314,0.8450803756713867,0.024054478853940964,0.9774625301361084,0.5314673185348511,0.9200014472007751,0.30636972188949585,0.9659102559089661,0.46534377336502075,0.9621735215187073,0.19384324550628662,0.9580124616622925,0.5516966581344604,0.5771142244338989,0.03972938656806946,0.8711458444595337,0.43478041887283325,0.7151179909706116,-0.20161183178424835,0.9817004203796387,-177.4823992292604,0.5022972226142883,0.6701757609844208,155.61788081968243,144.75286912487604,0.7294534704837208,-0.008565493209435312,0.10726054324517513,-0.011160188604618471,1.3570509982507486,159.2236171812254,2.265190562404021,16,1762115257.3471544
0.533842146396637,0.34749487042427063,-0.20803284645080566,0.9999424815177917,0.5219031572341919,0.42477890849113464,-0.06458266079425812,0.9998020529747009,0.46721506118774414,0.45512673258781433,-0.2595869302749634,0.9999451637268066,0.5212723016738892,0.6732025146484375,0.048921652138233185,0.9992572069168091,0.4819302558898926,0.6908336281776428,-0.04903936758637428,0.9995670318603516,0.5252958536148071,0.8135577440261841,0.17224732041358948,0.9673663973808289,0.48058781027793884,0.849024772644043,0.07093019038438797,0.9755878448486328,0.529609203338623,0.9227793216705322,0.32178157567977905,0.9602367877960205,0.46503734588623047,0.9603872299194336,0.25263506174087524,0.9563646912574768,0.54683917760849,0.5775420069694519,0.17018815875053406,0.8245248794555664,0.4372444152832031,0.7378767132759094,-0.22676095366477966,0.9813814163208008,-178.3336194618685,0.5016012787818909,0.6820180714130402,167.4449012009291,158.36292672561177,0.7742986975724961,-0.010263568726178254,0.17464680524887133,-0.02504270309903162,0.9937921698258497,150.97298471631757,1.2531537899583312,17,1762115257.4149616
0.533168375492096,0.34845635294914246,-0.17041324079036713,0.9999262690544128,0.5132919549942017,0.4287099242210388,-0.0316910594701767,0.9995821118354797,0.47790735960006714,0.45622897148132324,-0.23118703067302704,0.9999405145645142,0.5152449011802673,0.6856065392494202,0.04858698695898056,0.9992343187332153,0.48344969749450684,0.7010560631752014,-0.04863125830888748,0.9995702505111694,0.5251651406288147,0.8163992166519165,0.17781272530555725,0.9547784924507141,0.4808958172798157,0.8496302962303162,0.06555232405662537,0.9747545123100281,0.525755763053894,0.9242591857910156,0.30226656794548035,0.9534913897514343,0.46491795778274536,0.9658305644989014,0.21579024195671082,0.955266535282135,0.539870023727417,0.587489902973175,0.2239561825990677,0.7652150392532349,0.4443642199039459,0.7450975179672241,-0.21564824879169464,0.9814318418502808,-179.14411817675426,0.4993472993373871,0.6933313012123108,174.69534628581516,164.73672951698154,0.7360497370733183,-0.028449733825658064,0.14279561301350283,-0.22954581846400873,-0.4020258229664523,142.12734165757678,0.48704715155419176,18,1762115257.4941883
0.532939076423645,0.3478824496269226,-0.16670334339141846,0.9999223351478577,0.5089893341064453,0.4362507164478302,-0.03239169344305992,0.9994106888771057,0.48328104615211487,0.4572962820529938,-0.22978970408439636,0.9999341368675232,0.510850191116333,0.6908503174781799,0.04964707791805267,0.9992174506187439,0.483914852142334,0.7010304927825928,-0.049604322761297226,0.9995688796043396,0.5266005992889404,0.8162140846252441,0.17370395362377167,0.9493440985679626,0.4802272319793701,0.8510137796401978,0.061179328709840775,0.9750023484230042,0.5167213678359985,0.9218922853469849,0.2915307581424713,0.9501275420188904,0.46488410234451294,0.9674989581108093,0.20150379836559296,0.955650806427002,0.5286203622817993,0.6331940293312073,0.10837443172931671,0.7114737629890442,0.4584842622280121,0.7564228773117065,-0.1983204334974289,0.9811630249023438,-179.71317927084112,0.4973825216293335,0.6959404051303864,170.66735816947565,165.68192826789658,0.727126341022272,-0.028604018715593784,0.03798437706090204,-0.002246141057670373,-1.525883840448651,140.69522814609005,0.09889895690216197,19,1762115257.5628772
0.5326600074768066,0.3474888801574707,-0.17681309580802917,0.9999194145202637,0.5084021091461182,0.43869277834892273,-0.04141601175069809,0.9993106722831726,0.48433709144592285,0.45853713154792786,-0.23705324530601501,0.9999321103096008,0.508231520652771,0.6906512379646301,0.04987696558237076,0.9992238879203796,0.48380786180496216,0.6993633508682251,-0.04984859749674797,0.9995785355567932,0.5270068645477295,0.8159300684928894,0.18166673183441162,0.939423143863678,0.4790251851081848,0.8508947491645813,0.06982878595590591,0.9747924208641052,0.5148273706436157,0.9169795513153076,0.30678460001945496,0.9436826705932617,0.46491366624832153,0.967051088809967,0.21685142815113068,0.9557145833969116,0.5291649699211121,0.6376045346260071,0.10647799074649811,0.671437680721283,0.4599176347255707,0.7601207494735718,-0.20370221138000488,0.9814540147781372,179.91863261931366,0.4960196912288666,0.6950072944164276,168.77023623963203,166.31529094463494,0.7400607263489121,-0.019798983748285464,-0.013556084348199564,0.12791815046178545,-0.7487716428018638,140.49052689760148,0.02661612575895649,20,1762115257.6317105
0.5324766635894775,0.34953591227531433,-0.17777658998966217,0.9997203946113586,0.5054488778114319,0.44143885374069214,-0.02605341002345085,0.9987125396728516,0.48823586106300354,0.45823124051094055,-0.2340821921825409,0.9998368620872498,0.5080661773681641,0.6886304020881653,0.053702425211668015,0.9990798830986023,0.48370736837387085,0.6961832642555237,-0.053653229027986526,0.9994753003120422,0.527434766292572,0.8141788244247437,0.16727493703365326,0.9313007593154907,0.48229271173477173,0.8503825068473816,0.059909481555223465,0.9719319343566895,0.5122341513633728,0.9172145128250122,0.31013572216033936,0.9362095594406128,0.46472328901290894,0.9631560444831848,0.21059203147888184,0.9531402587890625,0.5129148364067078,0.6458228826522827,0.05711336061358452,0.6100444197654724,0.4826388359069824,0.7484674453735352,-0.1798824667930603,0.9572967290878296,179.77428798368473,0.49588677287101746,0.6924068331718445,163.3683163645467,162.50069312653048,0.73672896080109,-0.001818312280049445,-0.03557409744849203,0.24597411721968868,-0.30120462102004575,135.70868423697212,0.05831779984967088,21,1762115257.7048104
0.5310303568840027,0.3567218780517578,-0.15219387412071228,0.9993929862976074,0.5056363344192505,0.4417915642261505,-0.022794289514422417,0.9985550045967102,0.4844054579734802,0.4662822186946869,-0.20498207211494446,0.999717652797699,0.5102697610855103,0.6877238750457764,0.05076524615287781,0.9990249276161194,0.4850003123283386,0.6943193078041077,-0.05075312405824661,0.9993847012519836,0.527152419090271,0.8156128525733948,0.14403855800628662,0.9206673502922058,0.4916214942932129,0.8523473739624023,0.04805828630924225,0.9661187529563904,0.5124492049217224,0.9174111485481262,0.302084743976593,0.9264318943023682,0.4646225869655609,0.9608266353607178,0.21618890762329102,0.950043797492981,0.5207604765892029,0.6102850437164307,0.0747130811214447,0.5604820847511292,0.5088052153587341,0.7539917826652527,-0.14191733300685883,0.9097696542739868,-179.36800500725371,0.49763503670692444,0.691021591424942,156.42055452166207,153.08911639122857,0.7142723610154373,0.02917218661606216,-0.02311466377043376,0.5171190975607054,0.20790278728050296,130.9219208741472,0.1253660509691946,22,1762115257.7647395
0.5291519165039062,0.3575969636440277,-0.08869890123605728,0.998481810092926,0.48711076378822327,0.4442402720451355,-0.012378906831145287,0.9984847903251648,0.507244348526001,0.4644095003604889,-0.16281816363334656,0.9996548295021057,0.49803629517555237,0.689876914024353,0.04863021522760391,0.9989582300186157,0.4972480833530426,0.707255482673645,-0.048591844737529755,0.9992839694023132,0.5141921639442444,0.831788182258606,0.12087856233119965,0.8887031078338623,0.5015386343002319,0.8563081622123718,0.03206442669034004,0.9606487154960632,0.506344199180603,0.9222749471664429,0.26386716961860657,0.9035734534263611,0.46548891067504883,0.9607530236244202,0.17202343046665192,0.9477025866508484,0.5071775317192078,0.6635981202125549,0.057275403290987015,0.5092700719833374,0.526816189289093,0.7617026567459106,-0.09951604902744293,0.8895677328109741,-179.8910033535442,0.4976421892642975,0.698566198348999,148.20114153469873,152.0372309392807,0.6609531382477032,8.77385391533231e-05,0.09254770783066461,-0.3567712712050041,1.4187998767448222,45.0506720468047,0.021167945570367434,23,1762115257.8462608
0.5252825021743774,0.3567531704902649,-0.04077600687742233,0.9978455901145935,0.48234614729881287,0.4440062344074249,0.030072808265686035,0.9984661340713501,0.5124322772026062,0.45380550622940063,-0.13278718292713165,0.9996522068977356,0.49301427602767944,0.6857303380966187,0.05032982677221298,0.9988754987716675,0.5033773183822632,0.7025861740112305,-0.05026952177286148,0.9991466403007507,0.5089840292930603,0.8359465599060059,0.1000746339559555,0.8535960912704468,0.5132109522819519,0.86893630027771,-0.006579258479177952,0.9571904540061951,0.49322351813316345,0.9496574997901917,0.18073946237564087,0.8715357184410095,0.4664573669433594,0.9668635129928589,0.08849836885929108,0.941068708896637,0.5095314979553223,0.6605209708213806,0.057315535843372345,0.4611506462097168,0.5566042065620422,0.7548948526382446,-0.11056028306484222,0.8904843330383301,-179.81156657481168,0.4981957972049713,0.6941582560539246,159.06446507332828,143.5153898307103,0.6282033387080905,0.007573607835846453,-0.06030265076274255,0.10241008879777026,-2.0910622635686047,18.040807189194442,0.025804072852861817,24,1762115257.9193578
0.5249652862548828,0.3558565378189087,-0.045047152787446976,0.9970942735671997,0.4846230149269104,0.4444478750228882,0.029130781069397926,0.9984439015388489,0.5128988027572632,0.4513166546821594,-0.14060090482234955,0.9996410608291626,0.4948173463344574,0.6853764653205872,0.05196929723024368,0.9988390207290649,0.5050739049911499,0.7015296220779419,-0.05188872665166855,0.9990436434745789,0.5099260210990906,0.8361061215400696,0.09116927534341812,0.8274630308151245,0.5141867399215698,0.8717115521430969,-0.02140096388757229,0.9552903771400452,0.49681562185287476,0.9494125247001648,0.19445036351680756,0.8464217782020569,0.467128187417984,0.9661344885826111,0.09685799479484558,0.9353297352790833,0.5149087309837341,0.6627711653709412,0.056980084627866745,0.4182504415512085,0.5579974055290222,0.7516282200813293,-0.1169373169541359,0.8901952505111694,-179.72358784926183,0.49994562566280365,0.6934530436992645,150.36692898935263,134.540284578862,0.6328660728973042,0.025433122641411357,-0.010250006064323412,0.2595815768870965,0.7274970557507395,13.653868323020387,0.03937836402000284,25,1762115257.988159
0.5194580554962158,0.3549174666404724,-0.0075594880618155,0.9968622922897339,0.47912126779556274,0.44327473640441895,0.011815694160759449,0.9984638690948486,0.5223017334938049,0.43535152077674866,-0.13428719341754913,0.9996639490127563,0.49152064323425293,0.6795487403869629,0.05134667828679085,0.9987109303474426,0.5125868916511536,0.6966526508331299,-0.051276423037052155,0.9989616870880127,0.5103625655174255,0.8170843124389648,0.13093198835849762,0.7938157916069031,0.5255346894264221,0.8708730936050415,-0.011279367841780186,0.9535089135169983,0.4997939467430115,0.9453859329223633,0.22178873419761658,0.8161149024963379,0.4794219136238098,0.9640372395515442,0.11628173291683197,0.9331436157226562,0.5100284218788147,0.656110405921936,0.021090863272547722,0.37998804450035095,0.5730530023574829,0.7203202247619629,-0.097453773021698,0.896941602230072,-179.6908789404862,0.5020537674427032,0.6881006956100464,168.15777496702833,134.67624438955534,0.6259630273326169,0.02801467396642239,-0.07112628197207463,0.034305718613106856,-0.8089726403158936,-10.397583066612736,0.04736014164414304,26,1762115258.0634103
0.5126758813858032,0.3548673689365387,0.04552994668483734,0.996612548828125,0.4696158766746521,0.442873477935791,0.0002555841929279268,0.998417317867279,0.5308557152748108,0.4318508207798004,-0.11569473892450333,0.9996800422668457,0.4908517003059387,0.6770194172859192,0.04914221912622452,0.9986075758934021,0.5183766484260559,0.6949421167373657,-0.049113981425762177,0.9989281892776489,0.5105748176574707,0.8090382218360901,0.14509646594524384,0.7693295478820801,0.5353839993476868,0.850629448890686,0.029486034065485,0.9531387090682983,0.5042107701301575,0.9405300617218018,0.22858433425426483,0.8093006610870361,0.4933137893676758,0.9616228938102722,0.1175517663359642,0.9352962374687195,0.47370338439941406,0.6316273808479309,0.013853101059794426,0.35774916410446167,0.5892090201377869,0.6972185969352722,-0.10020699352025986,0.9019179344177246,-178.9910784805379,0.5046141743659973,0.6859807670116425,170.08283311175109,155.06916778795872,0.6098564237870093,0.046243487060242,-0.03828801188476941,0.32923043394333185,0.5930917089965321,-10.203508104971903,0.180789293665135,27,1762115258.1187782
0.5056493282318115,0.3505788743495941,0.01737736538052559,0.9967499375343323,0.46479445695877075,0.4440028667449951,-0.05987203121185303,0.9984349608421326,0.5386174917221069,0.4313690960407257,-0.12350346893072128,0.9996998906135559,0.4871606230735779,0.6759458780288696,0.042178280651569366,0.9982864856719971,0.5227330923080444,0.6868973970413208,-0.04218525066971779,0.9988411664962769,0.5112935304641724,0.8009888529777527,0.13884547352790833,0.7447972893714905,0.5445665717124939,0.8304515480995178,0.02921658381819725,0.9521516561508179,0.510291337966919,0.9361438155174255,0.22092516720294952,0.7922980189323425,0.5038913488388062,0.9598983526229858,0.1056751161813736,0.9343154430389404,0.4417327344417572,0.6214646100997925,-0.016833284869790077,0.3631526827812195,0.6004749536514282,0.6750732660293579,-0.11217451095581055,0.9036192297935486,-179.23819929122934,0.5049468576908112,0.6814216375350952,168.9013000066417,156.73896372521833,0.615006284528944,0.00384815324495531,-0.05273552228433381,-0.49038749232035667,-0.16711457977858957,-9.711287053677372,0.15551481811963486,28,1762115258.205231
0.502712607383728,0.34212929010391235,0.018380258232355118,0.9967802166938782,0.46075010299682617,0.44408294558525085,-0.08999408781528473,0.9985077381134033,0.5449506044387817,0.4312379062175751,-0.11547961086034775,0.9997137784957886,0.4826909005641937,0.6737464666366577,0.02905024029314518,0.9982247948646545,0.5275639891624451,0.6751527190208435,-0.02907966449856758,0.9987978339195251,0.5121022462844849,0.8037064671516418,0.1365009844303131,0.728421151638031,0.5523996353149414,0.8173582553863525,0.04505086690187454,0.9426433444023132,0.5127375721931458,0.9393421411514282,0.21817532181739807,0.7633178234100342,0.5171569585800171,0.9563263654708862,0.12168340384960175,0.9076603055000305,0.42177706956863403,0.6328897476196289,-0.028945809230208397,0.38832181692123413,0.6021684408187866,0.6604264974594116,-0.06176465004682541,0.8834484815597534,-179.44903015482217,0.5051274448633194,0.6744495928287506,167.13012585952316,158.62874028241836,0.6244960531626644,0.002859409270913161,-0.11039504630171428,-0.015655728181948488,-0.9129783430449084,-8.673769270173016,0.13158820325444898,29,1762115258.2683864
0.5001303553581238,0.341558039188385,0.034462206065654755,0.9968321323394775,0.4607199728488922,0.4442058503627777,-0.08000591397285461,0.9985759854316711,0.5449509620666504,0.43102583289146423,-0.10266975313425064,0.9997291564941406,0.48207801580429077,0.6727267503738403,0.0276105348020792,0.9981634616851807,0.5286837220191956,0.6718490123748779,-0.027659377083182335,0.9987586736679077,0.5126681923866272,0.8048483729362488,0.13389283418655396,0.7081048488616943,0.5534549355506897,0.8156474828720093,0.04474509879946709,0.9343857765197754,0.5140090584754944,0.9410914182662964,0.21222476661205292,0.7346357107162476,0.5181230306625366,0.9559428095817566,0.11833535134792328,0.8829504251480103,0.41931647062301636,0.6309228539466858,-0.011566349305212498,0.4089238941669464,0.6005197763442993,0.6532098054885864,-0.03591762110590935,0.8633712530136108,-179.37855808609174,0.5053808689117432,0.6722878813743591,166.82065782939324,158.65410375432694,0.621101099045629,0.0036823420795543517,-0.03141044072916739,0.011957508092673616,1.1476745736870473,-8.893225395311669,0.14976015936682516,30,1762115258.3372078
0.5007637739181519,0.3412671685218811,0.008831677958369255,0.9971102476119995,0.45944318175315857,0.4446295499801636,-0.10387340933084488,0.9986555576324463,0.5455349683761597,0.4306395947933197,-0.11585478484630585,0.9997313618659973,0.48137450218200684,0.6673728227615356,0.022860946133732796,0.9982923269271851,0.5306786298751831,0.6605123281478882,-0.023163659498095512,0.9988172650337219,0.5111546516418457,0.8054167032241821,0.13101598620414734,0.7235479950904846,0.551011860370636,0.8010099530220032,0.062497079372406006,0.9320167899131775,0.5149382948875427,0.947239875793457,0.16794465482234955,0.7507894039154053,0.5309811234474182,0.9518203735351562,0.11765555292367935,0.8835204839706421,0.41426777839660645,0.6365659236907959,-0.04080500453710556,0.44164174795150757,0.5997971296310425,0.6493379473686218,-0.021397411823272705,0.8387264609336853,-179.1044647372905,0.506026566028595,0.6639425754547119,155.2600508731316,161.9116122061445,0.6232367307041221,0.008816147555925935,-0.11394421078673923,0.0700953828379881,-1.1268904199574006,-9.229912089260619,0.4354077875530587,31,1762115258.410448
0.5017986297607422,0.3409104645252228,-0.03020220622420311,0.9973435997962952,0.45968231558799744,0.4446978271007538,-0.15196941792964935,0.9987289905548096,0.5468485951423645,0.4306583106517792,-0.12286524474620819,0.9997037649154663,0.4836820960044861,0.6668014526367188,-0.001167594688013196,0.9984015822410583,0.5343078970909119,0.6589393615722656,0.0008315427112393081,0.9988206624984741,0.5104219913482666,0.8056514263153076,0.1088542714715004,0.7437565922737122,0.5477292537689209,0.7913390398025513,0.12326369434595108,0.9205470681190491,0.51554936170578,0.9507285952568054,0.1749383807182312,0.7652811408042908,0.5419647693634033,0.9414215683937073,0.24070116877555847,0.8682389855384827,0.4146164357662201,0.6489846706390381,-0.08331030607223511,0.4755173921585083,0.5913575291633606,0.6298386454582214,0.014307836070656776,0.8051674365997314,-178.54254490875653,0.508994996547699,0.6628704071044922,164.60104836048788,172.36581116203138,0.6508497789172818,0.03795745277611795,-0.013709864273258295,0.3726311630375482,1.2817010369098667,-9.149814920979562,17.929636190631182,32,1762115258.4886522
0.5030237436294556,0.3411133587360382,0.022632848471403122,0.9972391128540039,0.4623430669307709,0.4442369341850281,-0.11445219814777374,0.9987947344779968,0.5481785535812378,0.4306256175041199,-0.0674152597784996,0.9995679259300232,0.48399075865745544,0.6629567742347717,-0.016365718096494675,0.9985054731369019,0.5373085141181946,0.6545227766036987,0.01613604836165905,0.9987369775772095,0.5102181434631348,0.8063876032829285,0.06732707470655441,0.7623785734176636,0.5442749261856079,0.7881026268005371,0.11245981603860855,0.8937863707542419,0.5155302882194519,0.9533639550209045,0.14289887249469757,0.7788282036781311,0.5517070889472961,0.9239060878753662,0.20850487053394318,0.8349635004997253,0.42567309737205505,0.649057924747467,-0.049921002238988876,0.49037933349609375,0.5890794992446899,0.5722474455833435,0.1168835386633873,0.7356805205345154,-178.60513268131245,0.510649636387825,0.6587397754192352,172.23137086602108,179.2694006706174,0.6175745411545683,0.022701160234729192,-0.05667102258974074,-0.20931173852527862,-0.5894141523497635,-9.01062106121535,0.8455509368824579,33,1762115258.5615401
0.5033608078956604,0.3404424488544464,0.03523603826761246,0.9973053932189941,0.4644249379634857,0.4375298023223877,-0.11053528636693954,0.9988802075386047,0.5458874702453613,0.4216344654560089,-0.07091127336025238,0.999557375907898,0.4851077198982239,0.6609681248664856,-0.021533671766519547,0.9986333250999451,0.5381971001625061,0.6505534052848816,0.021285222843289375,0.9987737536430359,0.5104062557220459,0.8088182806968689,0.05859452486038208,0.7811827063560486,0.5426415205001831,0.7788584232330322,0.13546685874462128,0.8654944896697998,0.5159391164779663,0.9566171169281006,0.1315668523311615,0.7927486300468445,0.5556882619857788,0.9007946252822876,0.24395915865898132,0.7986261248588562,0.4342690110206604,0.648855447769165,-0.044781822711229324,0.49626287817955017,0.5834572315216064,0.5703595280647278,0.09815257787704468,0.6906253695487976,-178.35482740567204,0.511652410030365,0.6557607650756836,173.0050948344101,176.87447561807505,0.6085815633066698,0.01384137632582676,-0.041119552304133056,-0.1222924078239661,0.21465836706455602,-11.041081526787535,0.6992083719699113,34,1762115258.6339877
0.5032798647880554,0.3398631513118744,0.04195425286889076,0.9974136352539062,0.4656933844089508,0.43570539355278015,-0.1055736318230629,0.9989638924598694,0.5448049306869507,0.4177330434322357,-0.0740945115685463,0.9995615482330322,0.4853973984718323,0.6580239534378052,-0.01897720992565155,0.9987505674362183,0.537712574005127,0.6469480395317078,0.018726516515016556,0.9988266825675964,0.5102580785751343,0.809589147567749,0.05854574590921402,0.7981953620910645,0.5421258211135864,0.7764840722084045,0.1275065690279007,0.8443710207939148,0.5158371329307556,0.9558260440826416,0.13213232159614563,0.805961549282074,0.5558521151542664,0.895774245262146,0.22899702191352844,0.7718027830123901,0.43756571412086487,0.6483214497566223,-0.045729123055934906,0.5076034665107727,0.5822065472602844,0.5738220810890198,0.0699954554438591,0.6617514491081238,-178.40010357113363,0.5115549862384796,0.6524859964847565,173.6142347507554,176.43205690862487,0.6029887826132452,-0.0013466329644544921,-0.04526524014473936,-0.20993510495667647,-0.05730345533118809,-12.799068740266106,0.6532050451564737,35,1762115258.7063339
0.49931588768959045,0.3398818075656891,0.02056160196661949,0.99736487865448,0.47120508551597595,0.4294661581516266,-0.11970514059066772,0.9990341067314148,0.5430962443351746,0.41686195135116577,-0.06318198144435883,0.9993732571601868,0.48812150955200195,0.6578668355941772,-0.028808657079935074,0.9988577365875244,0.5394665598869324,0.6450653672218323,0.02851230837404728,0.9988075494766235,0.5096118450164795,0.8083847165107727,0.05793339014053345,0.8169572949409485,0.5415361523628235,0.7574647665023804,0.13576652109622955,0.8195306062698364,0.515971302986145,0.9546738266944885,0.12701956927776337,0.8236353993415833,0.5482127070426941,0.8474066257476807,0.23916348814964294,0.7575002908706665,0.4396013617515564,0.6634590029716492,-0.07047189772129059,0.5296103954315186,0.5544237494468689,0.583587646484375,0.07911187410354614,0.6031830310821533,-178.33321831431263,0.5137940347194672,0.6514661014080048,173.29343393462162,174.28037674625006,0.585140172764721,0.02419153331753408,-0.011019335194897529,0.2759240837013781,0.370005811673093,-9.944226778603108,1.0190770591296006,36,1762115258.798889
0.49549514055252075,0.33994781970977783,0.00251471484079957,0.997525691986084,0.4756731390953064,0.4282313585281372,-0.13245247304439545,0.9991024732589722,0.5419963002204895,0.4140184223651886,-0.07082120329141617,0.9993236064910889,0.49207791686058044,0.6586676239967346,-0.030770283192396164,0.9989466071128845,0.5406937003135681,0.6464446783065796,0.030498072504997253,0.9987755417823792,0.5095719695091248,0.8081136345863342,0.06652862578630447,0.8338990211486816,0.5365715026855469,0.76100093126297,0.12855210900306702,0.797758936882019,0.5168255567550659,0.9528979659080505,0.14459967613220215,0.8394417762756348,0.5427230596542358,0.8610670566558838,0.23448975384235382,0.7434686422348022,0.45086869597435,0.6739250421524048,-0.08534716814756393,0.5542362928390503,0.5589562058448792,0.5991728901863098,0.04254540801048279,0.5593786835670471,-178.1312287044826,0.5163858085870743,0.6525561511516571,174.34578987732684,172.71986744771473,0.5980665713247,0.03405902616770895,0.014324564811449626,0.12967072528749343,0.3330493313079528,-12.095442794445727,1.126427643097393,37,1762115258.8749855
0.4967568814754486,0.3416441082954407,0.03968556970357895,0.9974837303161621,0.47991594672203064,0.42883986234664917,-0.10477099567651749,0.9991371035575867,0.5392076969146729,0.4098394215106964,-0.0530766062438488,0.9992208480834961,0.49825382232666016,0.6591122150421143,-0.019964495673775673,0.9989935159683228,0.5387660264968872,0.6464451551437378,0.019726496189832687,0.9986698627471924,0.5096020698547363,0.8070511817932129,0.0733800157904625,0.8442517518997192,0.5300680994987488,0.7700837850570679,0.1169506311416626,0.7748112082481384,0.5210758447647095,0.9525164365768433,0.15378007292747498,0.8429244160652161,0.5335978269577026,0.8623213768005371,0.20649448037147522,0.7137645483016968,0.4677108824253082,0.6731180548667908,-0.06422364711761475,0.5672006011009216,0.5545471906661987,0.5548155307769775,0.06468844413757324,0.5204201936721802,-177.80483321414545,0.5185099244117737,0.652778685092926,176.64461661499075,172.35821216092353,0.5837490369081332,0.035690428404320095,0.003739123641957504,0.027411614775130072,-0.17786173700832247,-17.76840681085445,1.1926428550571464,38,1762115258.9345005
0.49797743558883667,0.3423228859901428,0.027779195457696915,0.9974724054336548,0.48176923394203186,0.42897677421569824,-0.11457417160272598,0.999186098575592,0.5381003618240356,0.40956008434295654,-0.0593288317322731,0.9991760849952698,0.5003209710121155,0.6595004200935364,-0.022463656961917877,0.9990529417991638,0.5388374924659729,0.6461912989616394,0.02223086915910244,0.9986250996589661,0.5096985101699829,0.8066377639770508,0.07565510272979736,0.855009913444519,0.5286061763763428,0.7726743221282959,0.11589308828115463,0.7520058751106262,0.521802544593811,0.9498335123062134,0.1557994782924652,0.8495920896530151,0.5304059386253357,0.8740043044090271,0.21680469810962677,0.6843708753585815,0.46905288100242615,0.6747612357139587,-0.062404729425907135,0.5907771587371826,0.557709813117981,0.5483440160751343,0.07514072954654694,0.49333545565605164,-177.63559498479697,0.5195792317390442,0.6528458595275879,175.36780791532752,170.5220946087882,0.5919123697284078,0.011091738694958638,0.0006967887128884273,-0.25515792470164483,-0.031557610422361895,-19.018481640963405,1.3871098625885325,39,1762115259.0309062
0.4831886291503906,0.3398831784725189,-0.060407064855098724,0.9975186586380005,0.48991066217422485,0.4325559735298157,-0.1491270214319229,0.9992194175720215,0.5309264063835144,0.409125953912735,-0.021067243069410324,0.9986667037010193,0.5034351944923401,0.66282057762146,-0.047415170818567276,0.9990304112434387,0.5380182862281799,0.6458906531333923,0.04723431542515755,0.9978396892547607,0.5107513666152954,0.806952178478241,0.06220478564500809,0.8409344553947449,0.519702672958374,0.7684065699577332,0.1441257894039154,0.6866949796676636,0.5291880369186401,0.9434598088264465,0.15819181501865387,0.8261351585388184,0.5296493768692017,0.8848663568496704,0.2486995905637741,0.6251405477523804,0.4840182363986969,0.6909112930297852,-0.07927431166172028,0.6151335835456848,0.5041693449020386,0.5250626802444458,0.12077206373214722,0.4511958062648773,-177.4723919553694,0.52072674036026,0.6543556153774261,175.45019375675935,169.06175840889748,0.6336820272351783,0.01882320733686619,0.02476534543108,0.12682348051634726,0.39480961191004044,-29.736931610622342,0.7263040468385764,40,1762115259.0918686
0.48029446601867676,0.3395628333091736,-0.10717296600341797,0.9977119565010071,0.5006566047668457,0.4329753816127777,-0.16250041127204895,0.9992638230323792,0.5243678092956543,0.406321257352829,-0.011541886255145073,0.997953474521637,0.5120151042938232,0.662542998790741,-0.05171272158622742,0.9990019202232361,0.5292460918426514,0.6429693102836609,0.0515621118247509,0.9973365664482117,0.511513352394104,0.8054443597793579,0.0418303981423378,0.8341708779335022,0.5141560435295105,0.7664969563484192,0.13371245563030243,0.6386526226997375,0.5369012355804443,0.9330164790153503,0.13264316320419312,0.8251262307167053,0.5282939672470093,0.8855098485946655,0.23120084404945374,0.5854822397232056,0.4960407316684723,0.6875840425491333,-0.1336831897497177,0.637422502040863,0.47341805696487427,0.44238826632499695,0.1785126030445099,0.4127262234687805,-178.00537970329705,0.5206305980682373,0.6527561545372009,170.349402249063,167.55293656825933,0.6409914086824612,-0.0011863225032066745,-0.01973612598406665,-0.24690232600506293,-0.5491141916309773,-48.34407373080443,0.4107686043264298,41,1762115259.172911
0.4796215891838074,0.33989253640174866,-0.10547850281000137,0.9978820085525513,0.5126581192016602,0.43071120977401733,-0.1777959167957306,0.9993242621421814,0.5117254257202148,0.4068722724914551,0.0028359848074615,0.9973496198654175,0.5182851552963257,0.6586734056472778,-0.05246109887957573,0.9989732503890991,0.5151864290237427,0.6440751552581787,0.05238707736134529,0.9969499111175537,0.5119052529335022,0.8044702410697937,0.027845334261655807,0.8360446691513062,0.508406400680542,0.768983781337738,0.1265474408864975,0.6142755746841431,0.542312741279602,0.924019455909729,0.11559820175170898,0.8318735957145691,0.5283138751983643,0.8832959532737732,0.2281510829925537,0.5591652393341064,0.5095306038856506,0.683512806892395,-0.16360175609588623,0.667866587638855,0.4705466628074646,0.44922658801078796,0.17292889952659607,0.3791780471801758,-178.88074129201127,0.5167357921600342,0.6513742804527283,164.35315310611134,165.13113305628195,0.6307594625354768,-0.06222621759368596,-0.02207781324516429,-0.9752172209136529,-0.03741247817728861,-92.24054273083256,0.1806158178261112,42,1762115259.235502
0.48002368211746216,0.3437359929084778,-0.13002392649650574,0.9979933500289917,0.5235521197319031,0.4252603352069855,-0.2040446251630783,0.999387264251709,0.5035625696182251,0.4085777997970581,-0.0069595337845385075,0.9964167475700378,0.5220873355865479,0.6544689536094666,-0.055687565356492996,0.9989922642707825,0.5084819793701172,0.6424741148948669,0.05563540384173393,0.996451735496521,0.5126240849494934,0.8032535314559937,0.020304301753640175,0.8413238525390625,0.5039798021316528,0.7684410214424133,0.14064544439315796,0.5858821272850037,0.5452712178230286,0.9136170148849487,0.10062011331319809,0.8396793007850647,0.526787519454956,0.8657872676849365,0.2430548220872879,0.5315181612968445,0.5204579830169678,0.6813955903053284,-0.19024744629859924,0.6994467973709106,0.47692403197288513,0.4874696433544159,0.12368075549602509,0.34760308265686035,-179.5725983868017,0.5152846574783325,0.6484715342521667,161.06535320689886,163.5089843717718,0.6263672831511755,-0.019923011708635977,-0.03985257004068726,0.5807918980837663,-0.2440343354898648,-140.1528801324826,0.06229393833719418,43,1762115259.308339
0.48069772124290466,0.3451547622680664,-0.12839318811893463,0.9980607032775879,0.5253093242645264,0.423115074634552,-0.2047816962003708,0.999442458152771,0.5025674104690552,0.4095287621021271,-0.007394788321107626,0.9957039952278137,0.5238987803459167,0.6521685719490051,-0.056098271161317825,0.9989926815032959,0.5083093643188477,0.6421516537666321,0.056054286658763885,0.9959847927093506,0.5128580331802368,0.8025795817375183,0.020826619118452072,0.8456631302833557,0.5035208463668823,0.7682600021362305,0.1404889076948166,0.562938392162323,0.5461596250534058,0.9114549160003662,0.10394085943698883,0.8465155363082886,0.526421070098877,0.8609669208526611,0.24154046177864075,0.5080762505531311,0.5215712189674377,0.6790092587471008,-0.19021865725517273,0.7269882559776306,0.4846857190132141,0.5074707269668579,0.11574511229991913,0.3180662989616394,-179.46247147715835,0.5161040723323822,0.6471601128578186,159.82475245983593,162.31059688171396,0.6217024200279148,0.011680436511442962,-0.01869379626294003,0.4504947263927991,0.30160999956192636,-149.14536071985313,0.07706611881320251,44,1762115259.3784919
0.48251891136169434,0.34828174114227295,-0.18291816115379333,0.998191773891449,0.5300244092941284,0.4214574694633484,-0.20959898829460144,0.9994904398918152,0.4997085630893707,0.4117547869682312,-0.01933489367365837,0.9956356287002563,0.5263184309005737,0.6529855132102966,-0.053136490285396576,0.9989798665046692,0.5064893364906311,0.6424622535705566,0.053057510405778885,0.9956653118133545,0.5128791332244873,0.8020602464675903,0.01858038827776909,0.8484274744987488,0.5048385858535767,0.769077479839325,0.14203199744224548,0.5405337810516357,0.5470868349075317,0.9009686708450317,0.09800497442483902,0.8454808592796326,0.5263742208480835,0.8579721450805664,0.2480834722518921,0.48688292503356934,0.5312405824661255,0.6756607294082642,-0.18640632927417755,0.7511993646621704,0.490457147359848,0.60467928647995,0.025916684418916702,0.2916773557662964,-179.6188735516187,0.5164038836956024,0.6477238833904266,156.38687663078906,162.3631288018464,0.6417238645221179,0.003716082436449819,0.006987786426473282,-0.09871605925093246,0.31831641518625337,-162.25256529263817,0.05515788747480851,45,1762115259.4591713
0.4829297661781311,0.3481338322162628,-0.21687491238117218,0.9983619451522827,0.5331974625587463,0.42176344990730286,-0.21621966361999512,0.9995360970497131,0.4924245774745941,0.4166148006916046,-0.03068750724196434,0.995997965335846,0.5281589031219482,0.6535382866859436,-0.05175238102674484,0.9990132451057434,0.504037618637085,0.6432422399520874,0.05165740102529526,0.995878279209137,0.5174322724342346,0.8020009994506836,0.020021943375468254,0.8614357113838196,0.5061262845993042,0.7696095108985901,0.14637413620948792,0.5535188913345337,0.5445910692214966,0.8918214440345764,0.11261279881000519,0.853268027305603,0.5261310935020447,0.8534005880355835,0.2709646224975586,0.5096881985664368,0.5455228090286255,0.6751977205276489,-0.21678146719932556,0.7749336361885071,0.4867391586303711,0.6234006881713867,0.006985171232372522,0.2939504384994507,-179.1783107324149,0.5160982608795166,0.6483902633190155,154.65944732168487,159.65019885788658,0.666956757181797,-0.00470939951137971,0.010268373776153125,-0.1298298375639126,0.050551188093504895,-172.80299321545615,0.13939144063798853,46,1762115259.5240676
0.48614946007728577,0.34819239377975464,-0.22971923649311066,0.9985133409500122,0.5385383367538452,0.4222395122051239,-0.21425756812095642,0.9995771646499634,0.4830970764160156,0.41574588418006897,-0.04083879664540291,0.9963628053665161,0.5285466909408569,0.644905149936676,-0.05071178823709488,0.9990596771240234,0.4967094957828522,0.6356021165847778,0.05067061260342598,0.9961997866630554,0.5195261836051941,0.7984145879745483,-0.019126683473587036,0.8746572732925415,0.505642294883728,0.7642362117767334,0.13428494334220886,0.5777043104171753,0.5391790270805359,0.8833109736442566,0.11471618711948395,0.8604409694671631,0.5245629549026489,0.853753387928009,0.25959476828575134,0.545360803604126,0.5562823414802551,0.6749128699302673,-0.21494022011756897,0.7965083718299866,0.46604281663894653,0.5952186584472656,0.04338976740837097,0.3114003539085388,-179.5312086749298,0.5126280933618546,0.6402536332607269,132.94606138413437,158.33757191278133,0.6683026856647825,-0.04387598762845576,-0.10287765013007606,-0.4952131927139458,-1.4305919007804344,-173.3195966140821,0.09386199079389285,47,1762115259.603158
0.4927339553833008,0.34804221987724304,-0.2581411302089691,0.9986372590065002,0.5423659682273865,0.422557532787323,-0.20556552708148956,0.9996152520179749,0.4767451882362366,0.4152035117149353,-0.06737776100635529,0.9966802000999451,0.5298777222633362,0.6348674297332764,-0.043815579265356064,0.9991142153739929,0.4924655556678772,0.6276785135269165,0.04387381300330162,0.9964894652366638,0.5222064256668091,0.7941313982009888,0.003258588956668973,0.8865245580673218,0.5040958523750305,0.76287841796875,0.1258896291255951,0.6055129170417786,0.5350528359413147,0.8822323083877563,0.15993879735469818,0.8680043816566467,0.5218323469161987,0.8483952879905701,0.2992568910121918,0.5760266184806824,0.5663208365440369,0.6660097241401672,-0.22299793362617493,0.815252959728241,0.44930681586265564,0.5849283933639526,0.033262696117162704,0.3204832077026367,-179.56405384027317,0.5111716389656067,0.6312729716300964,135.33234564707797,147.59227309619789,0.7118527232222236,-0.01907978367877266,-0.11764809227540197,0.3248342060235487,-0.19349513565180296,-173.60562970577686,0.10567701573927962,48,1762115259.679493
0.4943072199821472,0.3479295074939728,-0.25816813111305237,0.9987530708312988,0.543708324432373,0.4227313697338104,-0.20688407123088837,0.9996481537818909,0.4755856394767761,0.414945513010025,-0.0727459117770195,0.9969865083694458,0.53006511926651,0.6335254311561584,-0.04113795980811119,0.999162495136261,0.49130910634994507,0.6254739165306091,0.04122886061668396,0.9967693090438843,0.5231332182884216,0.7941253781318665,0.00011053400521632284,0.8973158597946167,0.5037106871604919,0.7623417973518372,0.12395819276571274,0.6294490098953247,0.5340772271156311,0.8793460130691528,0.15222622454166412,0.873284637928009,0.5207571983337402,0.8406817317008972,0.30105727910995483,0.6014947891235352,0.5669401288032532,0.6624206900596619,-0.22596988081932068,0.8316687345504761,0.44758257269859314,0.5804150104522705,0.04340317100286484,0.3349272608757019,-179.71710683031668,0.5106871128082275,0.6294996738433838,133.30055678059486,145.1284912205903,0.7059513375442221,-0.0065479143978399695,-0.023964448425407424,0.16935640325452242,1.2660461588402323,-173.4798603353813,0.07431491367236281,49,1762115259.75349
0.49948644638061523,0.34814542531967163,-0.27842795848846436,0.9988702535629272,0.5472083687782288,0.42708930373191833,-0.2003529816865921,0.9996806979179382,0.4747823178768158,0.4151754081249237,-0.08803732693195343,0.9972692131996155,0.5320287942886353,0.6316689252853394,-0.03055184707045555,0.9992207884788513,0.4909322261810303,0.6256955862045288,0.030547598376870155,0.9970274567604065,0.5249117016792297,0.7930514812469482,-0.02825326845049858,0.9070122838020325,0.504432201385498,0.772647500038147,0.058536238968372345,0.6599023938179016,0.5328614115715027,0.8844538927078247,0.1598656326532364,0.879575788974762,0.5207782983779907,0.840427041053772,0.2915199398994446,0.618403434753418,0.577093780040741,0.655694305896759,-0.22111931443214417,0.8467883467674255,0.43667787313461304,0.5795198082923889,-0.05211586877703667,0.3747473955154419,-179.8660661096898,0.5114805102348328,0.6286822557449341,116.57310790996638,117.20815097397457,0.7206831691540716,0.007153774716557675,-0.007370360338282019,0.12354312463567288,0.14962282939326452,-170.6586519309547,0.03993503690365393,50,1762115259.864396
0.5041600465774536,0.34829455614089966,-0.2802848815917969,0.9989801049232483,0.5501739382743835,0.4322876036167145,-0.1799631416797638,0.9997091293334961,0.47416049242019653,0.4183056652545929,-0.10892657935619354,0.9975276589393616,0.5334903001785278,0.6323612332344055,-0.021686526015400887,0.9992814660072327,0.489907443523407,0.6261449456214905,0.021567964926362038,0.997280478477478,0.5271400213241577,0.7923077344894409,-0.012642383575439453,0.9153398871421814,0.501537561416626,0.7753018140792847,0.051915038377046585,0.6893423199653625,0.532372236251831,0.8855594396591187,0.1773020178079605,0.8876973986625671,0.5185445547103882,0.8369295001029968,0.29389849305152893,0.6336538195610046,0.5825348496437073,0.6454273462295532,-0.21743366122245789,0.8550673723220825,0.43062886595726013,0.584743082523346,-0.08970321714878082,0.4179520905017853,179.86843241348828,0.5116988718509674,0.629253089427948,119.2842497802484,115.97304514144564,0.7278109014516011,0.002844517810167744,0.007436043965600241,-0.05613513142005818,0.19287767462284988,-169.57749835615678,0.042114932935275844,51,1762115259.9411619
0.5068923234939575,0.3482222259044647,-0.3314734101295471,0.9990810751914978,0.5526346564292908,0.4330979585647583,-0.17630915343761444,0.9997368454933167,0.472972571849823,0.4285129904747009,-0.14996103942394257,0.99775230884552,0.5367242097854614,0.6316091418266296,-0.013705221004784107,0.9993402361869812,0.4906063675880432,0.6271734237670898,0.013524658977985382,0.9975127577781677,0.5280051827430725,0.790867805480957,-0.01509207021445036,0.9221441745758057,0.49800005555152893,0.7806088924407959,-0.02315407246351242,0.717017412185669,0.5324758887290955,0.883143961429596,0.21026146411895752,0.8940635323524475,0.5170736908912659,0.8170748949050903,0.2952130138874054,0.6212201118469238,0.5877714157104492,0.6405502557754517,-0.21085035800933838,0.8654577136039734,0.423628032207489,0.6115744113922119,-0.17100739479064941,0.45728445053100586,-179.75139207850796,0.5136652886867523,0.6293912827968597,111.6683233218377,83.27048385784622,0.7703977083019486,0.024856995611920146,0.001746868671038673,0.27825436304670564,-0.07191547730820463,-176.7059633885865,0.07318967607530226,52,1762115260.020271
0.5097919702529907,0.34801164269447327,-0.35956645011901855,0.999171793460846,0.5543016791343689,0.4330521523952484,-0.1779707372188568,0.9997620582580566,0.4737868309020996,0.43001386523246765,-0.17704062163829803,0.9979481101036072,0.5393388867378235,0.6314765810966492,-0.010758365504443645,0.9993960857391357,0.4909919798374176,0.6279165744781494,0.010573005303740501,0.9977218508720398,0.529097855091095,0.7861220240592957,-0.011899253353476524,0.9281496405601501,0.49394792318344116,0.789534330368042,-0.0023923662956804037,0.740195631980896,0.5322153568267822,0.8831055760383606,0.22334006428718567,0.8989716172218323,0.5037142634391785,0.8113983869552612,0.3270767331123352,0.6091509461402893,0.5907527804374695,0.6373916864395142,-0.21297426521778107,0.8771640062332153,0.42014211416244507,0.6270428895950317,-0.2025984823703766,0.5017265677452087,-179.67583296056688,0.5151654332876205,0.6296965777873993,111.87965356788331,89.24145136567519,0.8076179913127745,0.014363373533030637,0.002923095536486761,-0.10047285678081597,0.011261971558100952,-177.83892690504123,0.17401707550541562,53,1762115260.1247134
0.5103011727333069,0.34789785742759705,-0.3491964042186737,0.9992533326148987,0.5544906258583069,0.43287134170532227,-0.17835383117198944,0.9997846484184265,0.47410646080970764,0.43045297265052795,-0.17209647595882416,0.9981187582015991,0.5402038097381592,0.6315345168113708,-0.009645044803619385,0.9994449615478516,0.4914323687553406,0.6284175515174866,0.009472639299929142,0.9979057312011719,0.5296226143836975,0.7844930291175842,-0.009988395497202873,0.9335652589797974,0.4929930567741394,0.7913681268692017,0.005282816477119923,0.7608852982521057,0.5319904685020447,0.8832348585128784,0.21946533024311066,0.9037670493125916,0.5014044046401978,0.8151679039001465,0.3225826621055603,0.6047315001487732,0.5907984972000122,0.6361244320869446,-0.2081916779279709,0.8877958655357361,0.4197324216365814,0.6290060877799988,-0.19761011004447937,0.5390383005142212,-179.56098955308258,0.5158180892467499,0.6299760341644287,113.05437687106463,92.83003182700435,0.7975082947580577,0.00849871934181931,0.003639009624340267,-0.07636803021674769,0.009322450550575323,-178.27676809528603,0.2818880334383056,54,1762115260.201508
0.5128271579742432,0.34783029556274414,-0.33606353402137756,0.9993243217468262,0.5549280643463135,0.43188148736953735,-0.15954816341400146,0.9998041987419128,0.4751914143562317,0.42956551909446716,-0.16044476628303528,0.9981842041015625,0.5401948690414429,0.632097601890564,-0.004741917364299297,0.9994896054267883,0.4916694164276123,0.6287484169006348,0.004578645806759596,0.9980589747428894,0.530903697013855,0.7830594182014465,-0.0032578022219240665,0.9384825229644775,0.4922049045562744,0.793853223323822,0.003950987942516804,0.7810202240943909,0.5317332148551941,0.8837435245513916,0.23129765689373016,0.9085162878036499,0.49461811780929565,0.8179147243499756,0.3236769139766693,0.6066739559173584,0.5911434888839722,0.6332255005836487,-0.16363969445228577,0.8975347876548767,0.4234691262245178,0.6305475831031799,-0.182120680809021,0.5547441840171814,-179.74970036292217,0.5159321427345276,0.6304230093955994,113.733949245253,94.08714992274459,0.7933804581514166,0.0014320203798165578,0.005612083004047226,-0.0887272904037766,0.024773300191579903,-178.336299411127,0.5377353980250161,55,1762115260.2811532
0.5144322514533997,0.3477737605571747,-0.3172233998775482,0.9993862509727478,0.5539937615394592,0.43121856451034546,-0.1343311369419098,0.9998199343681335,0.4758683145046234,0.4288695454597473,-0.13940933346748352,0.9981986284255981,0.5398312211036682,0.6309784054756165,-0.003206210909411311,0.9995294809341431,0.49130114912986755,0.6288859844207764,0.003087651915848255,0.9981920719146729,0.5311387777328491,0.7811328172683716,-0.013611136004328728,0.9434905648231506,0.48922857642173767,0.7993226647377014,-0.020689330995082855,0.800175130367279,0.5313631892204285,0.8844342827796936,0.2094041407108307,0.9130150079727173,0.49070316553115845,0.7981715798377991,0.3278343081474304,0.5892844796180725,0.5918893814086914,0.6326364874839783,-0.14571943879127502,0.9023061990737915,0.43029412627220154,0.6064780950546265,-0.22693225741386414,0.548612117767334,-179.81794254811976,0.5155661851167679,0.6299321949481964,110.84957738807579,81.86675892866187,0.7660249190084193,-0.00526999072993202,-0.007067997665316212,-0.09651264164548135,-0.18260012728089592,-178.2777910816497,0.746792324290427,56,1762115260.350595
0.5156759023666382,0.3476206958293915,-0.30662959814071655,0.9994439482688904,0.5528336763381958,0.4311370551586151,-0.12876512110233307,0.9998330473899841,0.4758695065975189,0.4287458658218384,-0.13246047496795654,0.9981997013092041,0.5392501354217529,0.6311282515525818,-0.0017263485351577401,0.9995687007904053,0.4911380708217621,0.6290326714515686,0.0016005405923351645,0.9983281493186951,0.5308948755264282,0.7812192440032959,-0.043799396604299545,0.9483209252357483,0.48799556493759155,0.80293208360672,-0.008108067326247692,0.8180239200592041,0.5306609869003296,0.8846659064292908,0.17542962729930878,0.9182387590408325,0.48181313276290894,0.8129401206970215,0.3215866982936859,0.593409538269043,0.5905106663703918,0.6342412233352661,-0.13154496252536774,0.9051920175552368,0.4379637837409973,0.5478817224502563,-0.25081366300582886,0.53365558385849,-179.75880724609846,0.5151941031217575,0.6300804615020752,99.59078038891705,88.56315835043208,0.7479643982007247,-0.005250263249082413,0.002092115311508611,0.0002783646322332189,0.1292537805230945,-178.22045764280875,0.26253335725992205,57,1762115260.4214642
0.5162549614906311,0.34753143787384033,-0.3487964868545532,0.9994989037513733,0.5517415404319763,0.42791977524757385,-0.13662821054458618,0.999847948551178,0.47521916031837463,0.4296048581600189,-0.1862780898809433,0.998360812664032,0.5388604402542114,0.6311097741127014,0.0006657479680143297,0.9996016025543213,0.49142399430274963,0.629071831703186,-0.0007543865358456969,0.9984603524208069,0.531163215637207,0.7819746136665344,-0.024654999375343323,0.9526016116142273,0.4887034296989441,0.8057922124862671,0.0042487140744924545,0.8341493010520935,0.5303709506988525,0.8845490217208862,0.21041381359100342,0.9230211973190308,0.47828125953674316,0.8471031188964844,0.31606346368789673,0.6114799976348877,0.5899990797042847,0.6291494369506836,-0.14696098864078522,0.9132206439971924,0.4536344110965729,0.6369166374206543,-0.21141104400157928,0.5710535049438477,-179.5270624692097,0.5151422172784805,0.6300908029079437,104.03754003128805,99.19180328543179,0.8020963897584847,-0.0006239535070416074,0.00012436063580898205,0.05563371443724689,-0.023663245181274533,178.73850581322253,0.2963271107809933,58,1762115260.5046208
0.5163878798484802,0.34743914008140564,-0.3516942858695984,0.9995483160018921,0.5511571764945984,0.4265710711479187,-0.13894397020339966,0.9998613595962524,0.47497501969337463,0.43004289269447327,-0.1892768293619156,0.9985048770904541,0.538621187210083,0.6312416791915894,0.0014041087124496698,0.9996317625045776,0.49157780408859253,0.6292340755462646,-0.0014886086573824286,0.9985803365707397,0.5313171148300171,0.7824611067771912,-0.016561197116971016,0.9564650058746338,0.4888882040977478,0.8069736957550049,0.005207341630011797,0.8487311005592346,0.5302631258964539,0.8843702673912048,0.21773752570152283,0.9273303151130676,0.4774370789527893,0.8542460799217224,0.31524044275283813,0.627498209476471,0.5898091793060303,0.6274858713150024,-0.14766721427440643,0.9203938841819763,0.45696955919265747,0.6465211510658264,-0.20942361652851105,0.603999674320221,-179.42306421168072,0.5150994956493378,0.630237877368927,106.72313186728896,100.85032841177667,0.8091075574327817,-0.0002325678738023606,0.0008006434999753399,0.002130623910784667,0.003681546583407631,177.39068581091027,0.3251585525781969,59,1762115260.688316
0.516248881816864,0.3474213778972626,-0.370959609746933,0.9995924234390259,0.5507739782333374,0.42642274498939514,-0.16280785202980042,0.9998701810836792,0.47312450408935547,0.4308162331581116,-0.2091291844844818,0.998630702495575,0.5383399724960327,0.6339378952980042,0.005228833761066198,0.9996387958526611,0.49103960394859314,0.6344316005706787,-0.005302250850945711,0.9986706972122192,0.5312681794166565,0.7825829386711121,0.01774236559867859,0.9595701098442078,0.48945149779319763,0.8053544759750366,0.03155267611145973,0.8619954586029053,0.530118465423584,0.8845384120941162,0.2522868812084198,0.9314202070236206,0.47689390182495117,0.8912086486816406,0.28916510939598083,0.6587054133415222,0.5887466669082642,0.6292617917060852,-0.1428908407688141,0.9253320693969727,0.4701240658760071,0.6463223099708557,-0.2284575253725052,0.6259171366691589,-179.2361915665537,0.5146897882223129,0.6341847479343414,118.28453301064965,120.58926510061941,0.8390538249815919,-0.005104416364430266,0.049172822784020534,-0.06069683271589358,0.60265381399997,176.76159796180184,0.3998081695867972,60,1762115260.7685814
0.5159806609153748,0.34737157821655273,-0.3517342805862427,0.9996311068534851,0.550226628780365,0.4267024099826813,-0.12115051597356796,0.9998721480369568,0.47199374437332153,0.4316989481449127,-0.17912282049655914,0.9987428188323975,0.538236141204834,0.6370791792869568,0.008470664732158184,0.9996370673179626,0.490872859954834,0.6395848393440247,-0.008530101738870144,0.998746395111084,0.5312001705169678,0.7830642461776733,0.024365808814764023,0.9623708724975586,0.48911818861961365,0.8054524660110474,0.02861792966723442,0.8736395239830017,0.5301340818405151,0.8845865726470947,0.2568085491657257,0.9346954226493835,0.4781983494758606,0.8981015682220459,0.2649228870868683,0.6858205795288086,0.5867390036582947,0.6268486380577087,-0.07479238510131836,0.9268792867660522,0.47962313890457153,0.6363115310668945,-0.19927622377872467,0.6505374908447266,-179.05644546318956,0.514554500579834,0.6383320093154907,119.78241573024997,124.02458912941837,0.8193438910672489,-0.002159700310954978,0.06620591157003719,0.047008758965953336,0.27191224914285583,176.34562563533203,0.5746304206445623,61,1762115260.8312232
0.515560507774353,0.34733885526657104,-0.2935466170310974,0.9996645450592041,0.5469910502433777,0.42889612913131714,-0.08224619925022125,0.9998615980148315,0.4706341326236725,0.432447224855423,-0.15821020305156708,0.9988515377044678,0.5378676652908325,0.6405285596847534,0.01562365610152483,0.9996293783187866,0.4905107915401459,0.6448652744293213,-0.015702972188591957,0.9988200664520264,0.5310627222061157,0.7842510938644409,0.04348411411046982,0.9647256135940552,0.4877801835536957,0.8043888807296753,0.02711283229291439,0.8844866156578064,0.5298801064491272,0.8860723972320557,0.2743596136569977,0.9381991624832153,0.4777091145515442,0.8992635011672974,0.24316604435443878,0.7131522297859192,0.5793700218200684,0.6208778023719788,-0.04152805358171463,0.9235432744026184,0.48963555693626404,0.6313365697860718,-0.20015522837638855,0.678035318851471,-178.5473776621399,0.5141892284154892,0.6426969170570374,124.73999206707474,128.7340420639963,0.7762525241247584,-0.005917309742306266,0.07071031856383636,-0.06087225106736819,0.07297016851949634,177.3372903595033,0.9553638178429067,62,1762115260.8929527
0.5153201818466187,0.34730929136276245,-0.2889385521411896,0.9996960759162903,0.5432195067405701,0.433209091424942,-0.08463610708713531,0.9998507499694824,0.4693576395511627,0.4338022768497467,-0.15894834697246552,0.9989503026008606,0.5356500148773193,0.6444087624549866,0.01869238168001175,0.9996371269226074,0.4895366132259369,0.6477088928222656,-0.018783796578645706,0.9988989233970642,0.530264675617218,0.7860057353973389,0.03101550042629242,0.9659566879272461,0.4870147705078125,0.8036258220672607,0.01796211116015911,0.8933393955230713,0.5285145044326782,0.8880884051322937,0.2629360556602478,0.9391792416572571,0.4776461720466614,0.8982186317443848,0.25261175632476807,0.7350904941558838,0.5746906995773315,0.623181939125061,-0.04145835340023041,0.9184871912002563,0.4942322373390198,0.6287243962287903,-0.23245179653167725,0.7032486796379089,-178.3009935642619,0.5125933140516281,0.6460588276386261,118.72412006981422,125.22393466557845,0.7726514388013824,-0.02065226446005609,0.04350550881317549,-0.19068077117978063,-0.35204954493727847,179.5398668901413,1.1338677279777454,63,1762115260.9702282
0.5150213241577148,0.34720805287361145,-0.2865254282951355,0.9997242093086243,0.5408967733383179,0.43343958258628845,-0.07917393743991852,0.9998458623886108,0.4689931869506836,0.43362754583358765,-0.15873821079730988,0.999037504196167,0.5348082184791565,0.6445394158363342,0.018786441534757614,0.9996453523635864,0.4890982508659363,0.6477298140525818,-0.01888132095336914,0.9989659190177917,0.5297165513038635,0.7869096398353577,0.024229183793067932,0.9675388932228088,0.486941397190094,0.803122878074646,0.005379957612603903,0.9013667106628418,0.5277275443077087,0.8914022445678711,0.2525179386138916,0.9405466914176941,0.4770587980747223,0.8983355164527893,0.24925407767295837,0.7542483806610107,0.5730434656143188,0.6245370507240295,-0.03575589135289192,0.9161174893379211,0.4952681064605713,0.6277720332145691,-0.2214636504650116,0.7259278297424316,-178.11196579640128,0.5119532346725464,0.646134614944458,116.78188989215916,120.20700187615918,0.7674000940774233,-0.008307893572314939,0.0009836793553438198,0.16022343931726932,-0.5519109741397968,179.8502233785024,1.1804761691129844,64,1762115261.047273
0.5145691633224487,0.3471834063529968,-0.272172749042511,0.9997468590736389,0.5390201807022095,0.4336038827896118,-0.06299729645252228,0.9997855424880981,0.46828848123550415,0.4334680438041687,-0.15466365218162537,0.9991214871406555,0.5330551266670227,0.6440526843070984,0.023278111591935158,0.999607503414154,0.48867565393447876,0.64665687084198,-0.023364782333374023,0.998999297618866,0.5281899571418762,0.7870710492134094,0.02203773893415928,0.9676711559295654,0.48610058426856995,0.802207887172699,-0.005490544252097607,0.9084054231643677,0.5260685086250305,0.8922944664955139,0.24707326292991638,0.9407190084457397,0.4771355986595154,0.9027055501937866,0.2197738140821457,0.7722737193107605,0.5652753114700317,0.6240174770355225,-0.025707531720399857,0.8802506327629089,0.4943405091762543,0.6276806592941284,-0.21141526103019714,0.7472058534622192,-178.05020264898803,0.5108653903007507,0.6453547775745392,114.56467966418191,120.61019032602525,0.7474249891085831,-0.014639682998042802,-0.010494673853755574,-0.0852101572672637,-0.15447012153347586,-179.88996459791898,1.3006452038255591,65,1762115261.1215808
0.5137104392051697,0.3471178412437439,-0.24360427260398865,0.9997684359550476,0.5380717515945435,0.43350720405578613,-0.045454662293195724,0.9997551441192627,0.4671398997306824,0.43335965275764465,-0.14450538158416748,0.9992015957832336,0.5311924815177917,0.6454522013664246,0.02583857998251915,0.9996079206466675,0.4881587624549866,0.6482845544815063,-0.025962596759200096,0.9990612268447876,0.5272447466850281,0.7873488664627075,0.05172108858823776,0.9681794047355652,0.4854511320590973,0.8009672164916992,0.007747570984065533,0.9153823852539062,0.5253578424453735,0.8925893902778625,0.26310616731643677,0.94291090965271,0.47673383355140686,0.9023014307022095,0.21523955464363098,0.791760265827179,0.5573094487190247,0.6194254159927368,0.0008147633634507656,0.8509069085121155,0.49597805738449097,0.6297912001609802,-0.188897043466568,0.7676849961280823,-178.1028344075489,0.5096756219863892,0.6468683779239655,126.8012524612611,128.48746023353502,0.7321848033849544,-0.015219559356357736,0.01936203047419209,-0.0074177993716855895,0.3819280428124831,-179.88081441229826,1.3331437258345853,66,1762115261.1997545
0.5120241641998291,0.34718143939971924,-0.2610580623149872,0.999788224697113,0.5379114151000977,0.433404803276062,-0.0760321393609047,0.9997498989105225,0.4661228060722351,0.43307334184646606,-0.1476081758737564,0.9992727041244507,0.529877781867981,0.6450854539871216,0.02185852825641632,0.9996068477630615,0.48687881231307983,0.6476516127586365,-0.02198660559952259,0.9991125464439392,0.5256582498550415,0.787345826625824,0.059799499809741974,0.9693077206611633,0.48404163122177124,0.7968876957893372,0.025977587327361107,0.9221763014793396,0.5244827270507812,0.8933426737785339,0.26845139265060425,0.9461127519607544,0.47633498907089233,0.9026997089385986,0.22433528304100037,0.8099508285522461,0.5539268255233765,0.6194262504577637,-0.04180804640054703,0.8372867703437805,0.49168723821640015,0.6298735737800598,-0.1916431188583374,0.7839422225952148,-178.29042418388144,0.5083782970905304,0.646368533372879,131.85204923487532,135.89955702185694,0.7490435709622855,-0.01589260888359269,-0.006123241740268237,-0.008245053286017113,-0.3122020281035323,-179.7354565537483,1.43202800409155,67,1762115261.2813852
0.5100876688957214,0.347182959318161,-0.2635573446750641,0.9998051524162292,0.5362206101417542,0.4323747456073761,-0.08078070729970932,0.999733567237854,0.4653530716896057,0.4327191710472107,-0.148198664188385,0.9993375539779663,0.5285663604736328,0.6442111730575562,0.02063055709004402,0.9995975494384766,0.4858947694301605,0.6474946737289429,-0.020761780440807343,0.9991545677185059,0.5239823460578918,0.7861611843109131,0.056045711040496826,0.9702809453010559,0.4828254282474518,0.7926018834114075,0.02727571688592434,0.9282652139663696,0.52398681640625,0.893581748008728,0.26435187458992004,0.9488807916641235,0.47610798478126526,0.9014430642127991,0.22404935956001282,0.8263278007507324,0.5531235337257385,0.6126856207847595,-0.04853353276848793,0.815336287021637,0.4893355369567871,0.6315510272979736,-0.19574208557605743,0.7990831732749939,-178.26968764736844,0.5072305649518967,0.6458529233932495,131.26209193896125,137.27395188123705,0.7488534267232626,-0.017321992090936243,-0.007781773890014357,-0.02157277275688764,-0.025031172181572924,179.72153726355293,1.9192106723729205,68,1762115261.3476439
0.5095798969268799,0.34717315435409546,-0.2491210401058197,0.99982088804245,0.5359243750572205,0.43234381079673767,-0.07109971344470978,0.999714732170105,0.4649117887020111,0.43231654167175293,-0.14028938114643097,0.9993955492973328,0.5281453728675842,0.6437844038009644,0.019335083663463593,0.9995900392532349,0.48517242074012756,0.6472368240356445,-0.019457990303635597,0.9991949200630188,0.5230819582939148,0.7850968837738037,0.053692422807216644,0.9711506962776184,0.4817435145378113,0.7916253805160522,0.03361482173204422,0.9332536458969116,0.5235768556594849,0.8939444422721863,0.24693313241004944,0.9510435461997986,0.4758562445640564,0.9012975692749023,0.21643881499767303,0.8403770327568054,0.5529953837394714,0.6114462018013,-0.021994858980178833,0.799856424331665,0.487816721200943,0.6328287124633789,-0.17378529906272888,0.8135435581207275,-178.32315636421256,0.5066588968038559,0.6455106139183044,133.01636078579835,141.1497800862401,0.7309346805777281,-0.008309680504870923,-0.004975758016835962,0.13100157870822673,0.040787816284012894,-179.97799818629295,2.3138241932976604,69,1762115261.4164393
0.5089828968048096,0.34714561700820923,-0.24240319430828094,0.9998350143432617,0.5349627733230591,0.4320414960384369,-0.0655875951051712,0.9996892213821411,0.4646774232387543,0.43131670355796814,-0.1359025537967682,0.9994487762451172,0.5267860293388367,0.6411929130554199,0.01870979554951191,0.999576985836029,0.4838615357875824,0.643937349319458,-0.018840938806533813,0.9992316961288452,0.5228107571601868,0.7825972437858582,0.0497547946870327,0.9719659090042114,0.4812626242637634,0.7876608371734619,0.030315324664115906,0.938035786151886,0.5237612128257751,0.8945788145065308,0.22211448848247528,0.9535976648330688,0.4759449064731598,0.9024198055267334,0.19632971286773682,0.8538863658905029,0.5513971447944641,0.6078363060951233,-0.019489558413624763,0.7695612907409668,0.4823884963989258,0.6356242895126343,-0.16943299770355225,0.8257068991661072,-178.5050393522095,0.5053237825632095,0.642565131187439,135.35955592043197,143.5388907370614,0.7127690059123927,-0.018623230337919405,-0.04108592484693691,-0.14386155753194982,-0.5036931926455214,-179.40917875231605,2.519274021484182,70,1762115261.48813
0.5080024600028992,0.34706780314445496,-0.25145596265792847,0.9998489618301392,0.5332515835762024,0.4315088391304016,-0.0665244609117508,0.9996747374534607,0.46391209959983826,0.43118786811828613,-0.1392795890569687,0.9994974732398987,0.5245490670204163,0.6411667466163635,0.020815325900912285,0.9995851516723633,0.4818229079246521,0.643989622592926,-0.020977605134248734,0.9992789030075073,0.5221607089042664,0.7809163331985474,0.07233033329248428,0.9726467728614807,0.4800373613834381,0.7861360311508179,0.04405446723103523,0.9426437020301819,0.5238686203956604,0.8945436477661133,0.22350816428661346,0.9562185406684875,0.47546833753585815,0.9016684889793396,0.21435114741325378,0.8663321137428284,0.550240159034729,0.6095426678657532,-0.02623380720615387,0.7477895617485046,0.4762057662010193,0.6471468210220337,-0.17528201639652252,0.8369494676589966,-178.75132995636034,0.5031859874725342,0.6425781846046448,147.1306359312333,148.73348004142505,0.7245517614944664,-0.029703587329561264,0.0001813706653239164,-0.1539559862306419,0.5733883109049572,-179.73478093670354,3.216182469798185,71,1762115261.560101
0.5066037774085999,0.34683045744895935,-0.272338330745697,0.9998614192008972,0.5324550867080688,0.4315052032470703,-0.07617807388305664,0.9996626973152161,0.46246543526649475,0.43132108449935913,-0.15422888100147247,0.9995381236076355,0.5230531692504883,0.6411588191986084,0.02144482173025608,0.999595046043396,0.4799421727657318,0.6441147923469543,-0.021620873361825943,0.9993183016777039,0.521375298500061,0.7793817520141602,0.07194027304649353,0.9730660915374756,0.4788128733634949,0.7850093245506287,0.04709824174642563,0.9465668201446533,0.5239198207855225,0.8944326043128967,0.23543599247932434,0.9583747386932373,0.4748063087463379,0.9001554846763611,0.22486276924610138,0.877188503742218,0.5504615306854248,0.61903977394104,-0.03413211554288864,0.7300130724906921,0.4695902466773987,0.6521948575973511,-0.18716135621070862,0.8439105153083801,-178.9049598610841,0.50149767100811,0.6426368057727814,145.1726085436466,148.9258350775873,0.7453566186062988,-0.026389132152253466,0.0009162747538588816,0.05180639858092585,0.011486875547467629,-179.84927481961824,5.5154279810371145,72,1762115261.6240788
0.5061965584754944,0.3468129634857178,-0.22959959506988525,0.9998722672462463,0.53160160779953,0.43111878633499146,-0.06370803713798523,0.9996556043624878,0.46116989850997925,0.43133533000946045,-0.14087362587451935,0.9995781183242798,0.523201584815979,0.6407822370529175,0.021141551434993744,0.9996019005775452,0.47945818305015564,0.6441453695297241,-0.021311085671186447,0.999358057975769,0.5209852457046509,0.7793563008308411,0.0630587711930275,0.9739752411842346,0.477256715297699,0.7855646014213562,0.0427548848092556,0.950343668460846,0.5238714218139648,0.8942224383354187,0.23150937259197235,0.9603074789047241,0.4747885763645172,0.8993972539901733,0.20443232357501984,0.8871750235557556,0.5518786311149597,0.6196078062057495,-0.006732608191668987,0.719917356967926,0.4595271944999695,0.6541767120361328,-0.16072043776512146,0.8543680906295776,-178.65920053346858,0.5013298839330673,0.6424638032913208,141.08241362052223,149.51933242829804,0.7091283538096773,-0.002684357680409815,-0.0027677968623053243,0.3792431175027815,-0.05893997458095028,179.82384355484936,23.541396139453006,73,1762115261.6865842
0.5058884024620056,0.3468059301376343,-0.22353661060333252,0.9998828768730164,0.5318302512168884,0.43110793828964233,-0.06290086358785629,0.9996587634086609,0.46069231629371643,0.4316844642162323,-0.13723352551460266,0.9996141791343689,0.5232986211776733,0.640775740146637,0.020945720374584198,0.9996139407157898,0.47935953736305237,0.6444069147109985,-0.02111392840743065,0.999397873878479,0.5208171606063843,0.7795916199684143,0.06077587604522705,0.9746432900428772,0.47671669721603394,0.785984456539154,0.03986465185880661,0.953762948513031,0.5239236354827881,0.8936697840690613,0.2331332266330719,0.9619783163070679,0.47488898038864136,0.8991444706916809,0.20035827159881592,0.8962195515632629,0.5527008771896362,0.6208717226982117,-0.004134956281632185,0.717052698135376,0.45812636613845825,0.6547332406044006,-0.15390580892562866,0.8634236454963684,-178.6254058570402,0.5013290792703629,0.6425913274288177,139.46655583538305,148.4852559823505,0.7042386313175896,-9.29278466897036e-06,0.0014727342814268211,0.030893443816417,0.04897249814359159,179.53566575635526,7.913743769126197,74,1762115261.7731743
0.5056148767471313,0.34678536653518677,-0.2890276312828064,0.9998934268951416,0.5316914916038513,0.43131956458091736,-0.10555309057235718,0.9996766448020935,0.45963531732559204,0.43259191513061523,-0.1775442659854889,0.9996481537818909,0.523377001285553,0.6400912404060364,0.020685695111751556,0.9996245503425598,0.4797540605068207,0.6436800360679626,-0.020850982517004013,0.9994335174560547,0.5205492973327637,0.7797449827194214,0.06258102506399155,0.975662112236023,0.4758172035217285,0.7861562967300415,0.03809173032641411,0.957093358039856,0.5239638090133667,0.893658459186554,0.251392662525177,0.963699221611023,0.47487252950668335,0.8995595574378967,0.20873267948627472,0.9044948220252991,0.5528865456581116,0.6311546564102173,-0.06231338903307915,0.7324212789535522,0.4532197117805481,0.6620042324066162,-0.1985955834388733,0.8734463453292847,-178.3895677586144,0.5015655308961868,0.6418856382369995,137.75528170257536,146.06261811869732,0.7561740396037447,0.00291965967969854,-0.008713715850211964,0.03616614765987548,-0.12578034777712283,178.98839007178097,4.775496800379985,75,1762115261.8541603
0.5054222345352173,0.3468462824821472,-0.30684560537338257,0.9999021291732788,0.5316071510314941,0.4313386380672455,-0.1231347918510437,0.9996942281723022,0.45926374197006226,0.4334537386894226,-0.18905577063560486,0.9996771216392517,0.5235568284988403,0.6395465731620789,0.019710902124643326,0.9996275305747986,0.48004961013793945,0.6429887413978577,-0.01987290382385254,0.99945467710495,0.520000159740448,0.77946537733078,0.06159571558237076,0.9764850735664368,0.4750524163246155,0.7864089012145996,0.03698868304491043,0.9597061276435852,0.5239850282669067,0.8937438726425171,0.24965700507164001,0.965117335319519,0.47462812066078186,0.8992992639541626,0.21386227011680603,0.9113941192626953,0.5555965900421143,0.630700945854187,-0.08908243477344513,0.7465052604675293,0.4479147791862488,0.6667835116386414,-0.20719024538993835,0.8815281391143799,-178.25378957159344,0.5018032193183899,0.6412676572799683,137.88188441213237,144.13722003997685,0.7695946523251153,0.003153807583532106,-0.008199781086091375,0.0031068296382882393,0.006819227211410227,178.3253232302662,3.5748168883313896,76,1762115261.9295259
0.5053634643554688,0.34695306420326233,-0.2998996376991272,0.9999105930328369,0.5316281914710999,0.4313512146472931,-0.12367663532495499,0.9997168779373169,0.4589569568634033,0.43503573536872864,-0.1802571713924408,0.9997032284736633,0.5231133699417114,0.6393696069717407,0.016517706215381622,0.9996391534805298,0.4798373579978943,0.6418865919113159,-0.016706598922610283,0.9994794726371765,0.5197917222976685,0.7787977457046509,0.06447073072195053,0.9776936769485474,0.47513827681541443,0.7863353490829468,0.050783924758434296,0.9622858762741089,0.5240100622177124,0.893723726272583,0.24892044067382812,0.9670107960700989,0.47448092699050903,0.8991655111312866,0.23006165027618408,0.9180523157119751,0.5581382513046265,0.6256806254386902,-0.0929231122136116,0.7653630375862122,0.44252854585647583,0.6701971292495728,-0.2007623016834259,0.8896715641021729,-178.29274927420937,0.5014753639698029,0.6406280994415283,140.83242774039385,147.19595802528298,0.7700134460607193,-0.00493401578023918,-0.009624941245698826,-0.12171662983878664,-0.021447759651249423,177.097519059405,3.4705624419148697,77,1762115261.9959738
0.5053777694702148,0.3471299409866333,-0.3332552909851074,0.9999181032180786,0.5314163565635681,0.43134811520576477,-0.14279696345329285,0.9997386932373047,0.4588828980922699,0.4358491599559784,-0.19164849817752838,0.9997222423553467,0.5228707790374756,0.6393239498138428,0.013591958209872246,0.9996434450149536,0.4796016812324524,0.6408566236495972,-0.013763753697276115,0.9994865655899048,0.5196601152420044,0.7788864970207214,0.06312806904315948,0.9788142442703247,0.47520121932029724,0.7861069440841675,0.052886027842760086,0.9644595980644226,0.5240160822868347,0.8935954570770264,0.2612468898296356,0.9687173962593079,0.4745238423347473,0.8992111086845398,0.24415943026542664,0.9240246415138245,0.5603643655776978,0.6248337030410767,-0.12493230402469635,0.7833212614059448,0.4366655945777893,0.672107994556427,-0.22141702473163605,0.8947420120239258,-178.31162322306116,0.501236230134964,0.64009028673172,139.54576365883636,145.21977324885628,0.803172344992302,-0.0031178600848629913,-0.007012076656460311,0.023679289692842997,0.034066890682483274,176.4490787031383,3.3074059914376854,78,1762115262.072672
0.505374014377594,0.34725648164749146,-0.3423789441585541,0.9999251961708069,0.5314030051231384,0.43136516213417053,-0.14609703421592712,0.9997599720954895,0.4588424265384674,0.4362523853778839,-0.1950000822544098,0.9997406005859375,0.5226989984512329,0.6392391920089722,0.013365676626563072,0.9996488690376282,0.4793601930141449,0.6400762796401978,-0.013534205965697765,0.9994955658912659,0.5195673108100891,0.7789763808250427,0.06698692589998245,0.9799139499664307,0.47533583641052246,0.786134660243988,0.05118263512849808,0.9667288064956665,0.5239559412002563,0.8933669924736023,0.27520614862442017,0.9703635573387146,0.474536269903183,0.9004489183425903,0.24454879760742188,0.9297224283218384,0.5621651411056519,0.6243158578872681,-0.13467207551002502,0.8012563586235046,0.43565621972084045,0.672248363494873,-0.23026931285858154,0.8999950289726257,-178.35633641817543,0.5010295957326889,0.639657735824585,139.7140798926052,144.46897774586913,0.8153938226538571,-0.0032001753900120005,-0.0066989753530877875,-0.0012748284451129333,0.004849042921224371,176.14673718159992,3.2897659827954127,79,1762115262.1372416
0.505376398563385,0.3475325107574463,-0.3648430109024048,0.9999313950538635,0.5314806699752808,0.4321824312210083,-0.1612834632396698,0.9997768402099609,0.45891451835632324,0.4364229738712311,-0.2023320198059082,0.999757707118988,0.5226336717605591,0.6392296552658081,0.012514712288975716,0.9996480941772461,0.4792765974998474,0.639333188533783,-0.01268567144870758,0.9995004534721375,0.51945960521698,0.7797391414642334,0.057285964488983154,0.9808512926101685,0.4753968119621277,0.7864364385604858,0.04884515702724457,0.9686657786369324,0.5238894820213318,0.8930721879005432,0.28304335474967957,0.971592903137207,0.47434964776039124,0.9009762406349182,0.24741844832897186,0.9346979260444641,0.5624231100082397,0.6292724013328552,-0.15599679946899414,0.8138054609298706,0.4322478771209717,0.6704074144363403,-0.23609623312950134,0.9041918516159058,-178.39107173657416,0.5009551346302032,0.6392814218997955,134.27766893104828,142.66111045748343,0.8360462997549055,-0.0012147038232663062,-0.006138909416203182,0.032389527184036926,0.009136504995289367,176.65561434096648,3.402085281895079,80,1762115262.1985414
0.5053643584251404,0.34797346591949463,-0.344254732131958,0.9999361634254456,0.531530499458313,0.43243104219436646,-0.14927938580513,0.999786376953125,0.4590173363685608,0.43679770827293396,-0.19194495677947998,0.9997727870941162,0.5226558446884155,0.6395902633666992,0.011421892791986465,0.9996395707130432,0.4793393015861511,0.6393744349479675,-0.011587969958782196,0.9995017647743225,0.5194764733314514,0.7806901931762695,0.05198635905981064,0.981626033782959,0.4755127429962158,0.7864993810653687,0.04751235991716385,0.9701883792877197,0.5238639116287231,0.8921301364898682,0.27570846676826477,0.9725028276443481,0.4743736684322357,0.9010941386222839,0.24497683346271515,0.938758909702301,0.5622918605804443,0.6286810636520386,-0.13673922419548035,0.8183555006980896,0.43167513608932495,0.6687344312667847,-0.22347405552864075,0.9073384404182434,-178.39967176471245,0.5009975731372833,0.6394823491573334,132.466638234322,142.00024119029345,0.8164443604803646,0.0006741351754645094,0.0031917270737231197,0.030004184818069303,0.1482170486219762,176.55387025532823,3.5218552097553224,81,1762115262.261494
0.5053837895393372,0.34842589497566223,-0.3485584259033203,0.9999409317970276,0.5321300029754639,0.43312907218933105,-0.15026316046714783,0.9997944235801697,0.4591558575630188,0.43681877851486206,-0.18855175375938416,0.9997867345809937,0.5230904817581177,0.63953697681427,0.0108359819278121,0.9996352791786194,0.4797046184539795,0.6389478445053101,-0.011003709398210049,0.9995089173316956,0.5196160078048706,0.7815702557563782,0.04138780012726784,0.9823788404464722,0.47585827112197876,0.7868832945823669,0.0374593585729599,0.9716523289680481,0.5238670110702515,0.8920606970787048,0.27311691641807556,0.9734747409820557,0.47452688217163086,0.90153568983078,0.24250094592571259,0.9427745938301086,0.5618614554405212,0.6316694021224976,-0.14203990995883942,0.8190509676933289,0.4313534200191498,0.6683984398841858,-0.21813106536865234,0.9092012643814087,-178.38629907180328,0.5013975501060486,0.63924241065979,127.58325735379738,137.34121373458197,0.81757680158558,0.005484657181341459,-0.003290140449070865,0.06596395824235217,-0.08888217080884052,177.10548547193744,3.9393425800231494,82,1762115262.3344204
0.5053994059562683,0.3493327498435974,-0.3388567566871643,0.9999445676803589,0.5329585671424866,0.43351271748542786,-0.14775629341602325,0.9998047351837158,0.45927590131759644,0.4371156394481659,-0.1803891956806183,0.999799370765686,0.523600697517395,0.6404197812080383,0.009361309930682182,0.9996341466903687,0.4798642694950104,0.6394532322883606,-0.009529332630336285,0.9995133280754089,0.5196467638015747,0.7829955816268921,0.04486782103776932,0.9828746318817139,0.4759579300880432,0.7882264256477356,0.039609141647815704,0.9727569222450256,0.5238676071166992,0.8925915360450745,0.27047261595726013,0.9741382598876953,0.47461453080177307,0.9019078612327576,0.24195504188537598,0.9457340836524963,0.5613875389099121,0.6371111273765564,-0.14191129803657532,0.8251808285713196,0.432280957698822,0.6682565808296204,-0.20892532169818878,0.9112871289253235,-178.42808278809034,0.5017324835062027,0.6399365067481995,129.83495910591805,137.5959537760747,0.8089251570745979,0.004183479749851102,0.008669594997022037,-0.016252333846366082,0.1493828654570853,177.20059081175816,3.9002315863005714,83,1762115262.4144814
0.5054118037223816,0.34990817308425903,-0.338081419467926,0.9999479055404663,0.533459484577179,0.4338047504425049,-0.14807681739330292,0.9998140335083008,0.4593278765678406,0.43734991550445557,-0.1780891865491867,0.9998109340667725,0.5239971876144409,0.6409747004508972,0.008895502425730228,0.9996334910392761,0.4800341725349426,0.6398206949234009,-0.009065089747309685,0.9995182156562805,0.5196788311004639,0.7839500308036804,0.046237993985414505,0.9833466410636902,0.4760607182979584,0.7889808416366577,0.04061976447701454,0.9738336205482483,0.5238615870475769,0.8929487466812134,0.27059024572372437,0.9748125672340393,0.4746645390987396,0.9021577835083008,0.24180841445922852,0.9485582709312439,0.5610157251358032,0.6391556262969971,-0.14258208870887756,0.8307026624679565,0.43227559328079224,0.668209433555603,-0.20620743930339813,0.9130856394767761,-178.42771501353332,0.5020156800746918,0.640397697687149,130.4837811027911,137.77231378886503,0.8081599860866928,0.0038747630899915514,0.00631012457959687,-0.0042239350754541705,-0.03228283779758685,177.26205371889043,4.032164082575312,84,1762115262.4875689
0.5054342746734619,0.3506772518157959,-0.3521963953971863,0.9999498724937439,0.5338574051856995,0.43408986926078796,-0.1584305465221405,0.9998139142990112,0.45938968658447266,0.43826979398727417,-0.1939113438129425,0.999820351600647,0.5246363878250122,0.6424899101257324,0.00913627352565527,0.9996258020401001,0.48013386130332947,0.6416284441947937,-0.009308382868766785,0.9995232820510864,0.5197557210922241,0.7854222655296326,0.051538318395614624,0.983596682548523,0.4763560891151428,0.7896922826766968,0.04143118858337402,0.9748812317848206,0.5237736105918884,0.8929447531700134,0.2868832051753998,0.975113570690155,0.4746764302253723,0.9024861454963684,0.24516472220420837,0.9513453841209412,0.5605188608169556,0.6394543051719666,-0.15104982256889343,0.8310550451278687,0.4340645670890808,0.6815314888954163,-0.22362275421619415,0.9144987463951111,-178.39698342500654,0.5023851245641708,0.6420591771602631,131.00512908514432,137.87937324411803,0.8255215059410949,0.0057686043481498025,0.025942781624599807,0.029570940229536838,0.3065495196727124,176.78731931789656,4.923940960969007,85,1762115262.5516129
0.5055721998214722,0.35093986988067627,-0.36600691080093384,0.9999524354934692,0.5346998572349548,0.43472498655319214,-0.16366896033287048,0.9998147487640381,0.45958319306373596,0.4386085867881775,-0.20096807181835175,0.9998304843902588,0.5248655676841736,0.6437824964523315,0.009673582389950752,0.9996187090873718,0.48028597235679626,0.6424831748008728,-0.00984239298850298,0.9995275139808655,0.5198268294334412,0.7870395183563232,0.050565749406814575,0.9837188124656677,0.4764707088470459,0.7904270887374878,0.03807847946882248,0.9758697748184204,0.5237314701080322,0.8930057287216187,0.29182419180870056,0.9752615094184875,0.4746863842010498,0.9028934836387634,0.24670565128326416,0.9539458155632019,0.5593908429145813,0.6446884274482727,-0.1633257120847702,0.8278747200965881,0.4341925084590912,0.686211884021759,-0.23509855568408966,0.9155575633049011,-178.49230695025955,0.5025757700204849,0.6431328356266022,129.57259550814746,136.26989363610917,0.8383498337919003,0.00241127619346298,0.013579589830498253,-0.042463353753903,-0.1563691609792181,177.04039091923545,5.121051528538981,86,1762115262.630677
0.5055804252624512,0.35121679306030273,-0.3526139557361603,0.9999545812606812,0.5362497568130493,0.4345286190509796,-0.15589004755020142,0.9998215436935425,0.4596714377403259,0.43887007236480713,-0.1962870955467224,0.999841570854187,0.525131344795227,0.6446498036384583,0.010791005566716194,0.9996251463890076,0.48043256998062134,0.6435843706130981,-0.010967777110636234,0.9995427131652832,0.5200293660163879,0.7870244383811951,0.0558280423283577,0.9837589263916016,0.4769621789455414,0.7904492616653442,0.038095198571681976,0.9768182039260864,0.5236791372299194,0.8930862545967102,0.28769317269325256,0.9754363298416138,0.4746427536010742,0.9028962850570679,0.24587038159370422,0.9560826420783997,0.5580178499221802,0.6437811255455017,-0.15090006589889526,0.8337702751159668,0.43721121549606323,0.6835638284683228,-0.2273024320602417,0.9181361794471741,-178.66841743028067,0.5027819573879242,0.6441170871257782,132.0597226171385,136.89337620469001,0.826229152278219,0.0032500140927112496,0.015514196057798907,0.013220548021453293,0.03049409661057909,176.75520475142199,7.237400172407901,87,1762115262.694119
0.5055813193321228,0.35161274671554565,-0.36047083139419556,0.9999578595161438,0.5385667085647583,0.4346500039100647,-0.16333670914173126,0.9998319745063782,0.4601660370826721,0.43906089663505554,-0.19812698662281036,0.99985271692276,0.5253356695175171,0.6447597742080688,0.010837940499186516,0.9996381998062134,0.4806339144706726,0.644074559211731,-0.011006029322743416,0.9995615482330322,0.5202640295028687,0.7872675657272339,0.055913131684064865,0.9838593006134033,0.47698625922203064,0.7906646728515625,0.038201943039894104,0.9777293801307678,0.5236588716506958,0.8933126926422119,0.2866338789463043,0.9756532311439514,0.4745996594429016,0.9028823971748352,0.24546289443969727,0.9579440355300903,0.5579239726066589,0.6438308954238892,-0.1543695330619812,0.8438158631324768,0.4415115714073181,0.6830092668533325,-0.22848065197467804,0.9215384721755981,-179.0012650106126,0.5029847919940948,0.6444171667098999,132.16589178655232,136.98676208882344,0.831392563285636,0.0031995471930860446,0.004733505831205316,-0.0007960733628645512,-0.17005642087034603,176.7798822675439,7.163467465817387,88,1762115262.7575138
0.5055791735649109,0.3519713580608368,-0.3622901737689972,0.9999607801437378,0.539397120475769,0.43469658493995667,-0.16377729177474976,0.9998417496681213,0.4605048596858978,0.4390413463115692,-0.19640879333019257,0.9998624324798584,0.5254045128822327,0.6447429656982422,0.010770468041300774,0.9996494054794312,0.4807695746421814,0.6441245079040527,-0.010945754125714302,0.9995761513710022,0.5203837156295776,0.7878066897392273,0.047035448253154755,0.9841011166572571,0.4770069718360901,0.790973424911499,0.03454574570059776,0.9784418940544128,0.5236331224441528,0.8933916091918945,0.28475168347358704,0.9758377075195312,0.47457972168922424,0.9029563069343567,0.24517329037189484,0.959561288356781,0.557733416557312,0.6445363163948059,-0.15557098388671875,0.8521471619606018,0.4432862401008606,0.6825224757194519,-0.22690336406230927,0.9245268106460571,-179.13439564560738,0.503087043762207,0.6444337368011475,128.1115994017371,135.20849945050873,0.831760228134336,0.0011496571468398,0.00018630410190700344,-0.023047726072738507,-0.05112599090193389,176.84778614892835,7.6103338218203085,89,1762115262.8464549
0.505569577217102,0.35244736075401306,-0.3340497612953186,0.9999638199806213,0.5401250720024109,0.4339663088321686,-0.1518605798482895,0.999853253364563,0.46093878149986267,0.43920454382896423,-0.18068216741085052,0.999872088432312,0.5265120267868042,0.6447566747665405,0.009917864575982094,0.9996609687805176,0.4814125597476959,0.6448574066162109,-0.010082792490720749,0.9995936751365662,0.5208167433738708,0.7886310815811157,0.054119329899549484,0.9843263030052185,0.4770260453224182,0.7928295731544495,0.041200295090675354,0.9788723587989807,0.5235873460769653,0.8933999538421631,0.27777308225631714,0.9756397604942322,0.4745842516422272,0.9035674333572388,0.23869609832763672,0.9601051211357117,0.5578140020370483,0.6394637823104858,-0.12575988471508026,0.8641633987426758,0.4465770721435547,0.6772810220718384,-0.20174412429332733,0.9287005662918091,-179.05616068997261,0.5039622932672501,0.6448070406913757,132.10398383369244,138.38988308738593,0.8056044124162548,0.012199382231940503,0.005203175573736716,0.1540130203951131,0.06992604090688367,176.2153534286201,20.739256057804372,90,1762115262.9182003
