nose_x,nose_y,nose_z,nose_visibility,left_shoulder_x,left_shoulder_y,left_shoulder_z,left_shoulder_visibility,right_shoulder_x,right_shoulder_y,right_shoulder_z,right_shoulder_visibility,left_hip_x,left_hip_y,left_hip_z,left_hip_visibility,right_hip_x,right_hip_y,right_hip_z,right_hip_visibility,left_knee_x,left_knee_y,left_knee_z,left_knee_visibility,right_knee_x,right_knee_y,right_knee_z,right_knee_visibility,left_ankle_x,left_ankle_y,left_ankle_z,left_ankle_visibility,right_ankle_x,right_ankle_y,right_ankle_z,right_ankle_visibility,left_wrist_x,left_wrist_y,left_wrist_z,left_wrist_visibility,right_wrist_x,right_wrist_y,right_wrist_z,right_wrist_visibility,trunk_lateral_inclination,center_mass_x,center_mass_y,left_knee_angle,right_knee_angle,person_height,center_mass_velocity_x,center_mass_velocity_y,center_mass_acceleration_x,center_mass_acceleration_y,body_orientation,torso_leg_ratio,frame,timestamp
0.499917209148407,0.17419041693210602,-0.2710969150066376,0.9999951124191284,0.5365362167358398,0.255898654460907,-0.1320820301771164,0.9999446868896484,0.46942320466041565,0.2548937201499939,-0.12208099663257599,0.999948263168335,0.5209318399429321,0.42596495151519775,-0.0045725335367023945,0.999906063079834,0.4865800440311432,0.4269627332687378,0.0045256842859089375,0.9998817443847656,0.523224413394928,0.5397608280181885,0.01606808230280876,0.9962621331214905,0.4836818277835846,0.539130687713623,0.04116937890648842,0.9965108036994934,0.5218068361282349,0.6405043601989746,0.185250923037529,0.9963399171829224,0.48262014985084534,0.6363556385040283,0.2011501044034958,0.9970744848251343,0.5481401085853577,0.4395909309387207,-0.15471123158931732,0.7993488311767578,0.46233445405960083,0.4416920840740204,-0.14241763949394226,0.8247349858283997,-179.7400182312458,0.5037559419870377,0.4264638423919678,131.02916410751052,139.36777804385383,0.6565788339011978,0.0,0.0,0.0,0.0,-179.14213071044847,0.625676302129251,0,1762115213.166603
0.4995962679386139,0.1741371601819992,-0.2607634663581848,0.9999946355819702,0.5365286469459534,0.25553348660469055,-0.12058309465646744,0.999943733215332,0.46761542558670044,0.2548627555370331,-0.12744705379009247,0.9999475479125977,0.5209718942642212,0.4351620078086853,0.002014571102336049,0.9999093413352966,0.4857719838619232,0.4340610206127167,-0.0021143504418432713,0.999886691570282,0.5234054327011108,0.5481165647506714,0.058006059378385544,0.9954655170440674,0.483161985874176,0.5429967045783997,0.05050089955329895,0.9961965084075928,0.5213508605957031,0.6404098272323608,0.24440351128578186,0.9954782724380493,0.4828711152076721,0.6356388330459595,0.221417635679245,0.9963670372962952,0.5470614433288574,0.4406950771808624,-0.11810686439275742,0.8087424039840698,0.46193867921829224,0.44149330258369446,-0.14353783428668976,0.8243739008903503,-179.58488249105193,0.5033719390630722,0.434611514210701,142.67097754714123,144.22049467229607,0.6774302088628702,-0.005370253671027888,0.11394461282492431,-0.07510261691075819,1.5935073332200727,-179.44235888018082,1.1075054201953856,1,1762115213.2381086
0.4994247853755951,0.17405059933662415,-0.26467856764793396,0.9999942779541016,0.5365199446678162,0.25522324442863464,-0.1228940337896347,0.99994295835495,0.4667903482913971,0.2545725405216217,-0.1327226459980011,0.999946653842926,0.5209717750549316,0.43891075253486633,0.0018348951125517488,0.9999108910560608,0.485058069229126,0.4371723532676697,-0.0019313342636451125,0.9998893141746521,0.5234036445617676,0.5504515171051025,0.05986341834068298,0.9948439002037048,0.4819369316101074,0.5451010465621948,0.06113029271364212,0.9958971738815308,0.5208383202552795,0.6399422883987427,0.2517281174659729,0.9947089552879333,0.482870489358902,0.6355441212654114,0.24131855368614197,0.9957504272460938,0.545867383480072,0.4423510730266571,-0.12709736824035645,0.8188303112983704,0.4618678689002991,0.441398948431015,-0.15078262984752655,0.826404333114624,-179.57460730655347,0.5030149221420288,0.438041552901268,142.44680561007084,146.9070623695128,0.6901768768233073,-0.005619007861310719,0.05398459633388994,-0.003915085443704526,-0.943697018737355,-179.46534172927937,1.664589908538566,2,1762115213.301646
0.4987219274044037,0.17355242371559143,-0.2565839886665344,0.9999932050704956,0.5363848805427551,0.25399723649024963,-0.11096608638763428,0.9999397993087769,0.46581873297691345,0.2536011338233948,-0.126981720328331,0.9999455213546753,0.52068030834198,0.438997745513916,0.0029295433778315783,0.9999117255210876,0.4835018515586853,0.4376329183578491,-0.0030252349097281694,0.9998922944068909,0.5233677625656128,0.5494894981384277,0.06068837642669678,0.9942730665206909,0.48137545585632324,0.5448092818260193,0.05662211775779724,0.9956911206245422,0.5208340883255005,0.6397831439971924,0.2537473440170288,0.9941096901893616,0.4828858971595764,0.6350974440574646,0.2274167537689209,0.9952526092529297,0.5429729223251343,0.4416159391403198,-0.10441400855779648,0.8181251883506775,0.4615349769592285,0.44020816683769226,-0.14179383218288422,0.8228375911712646,-179.69281476717424,0.5020910799503326,0.43831533193588257,142.61375972662998,146.92611694885665,0.6799822590178723,-0.010281646602436365,0.0030469481761760593,-0.05189155052884729,-0.5668964914400659,-179.6783900851492,1.9298505830861348,3,1762115213.3914995
0.49714308977127075,0.17300283908843994,-0.24718502163887024,0.9999927878379822,0.5350329875946045,0.2517353892326355,-0.106458880007267,0.9999407529830933,0.46442466974258423,0.25233304500579834,-0.11743044853210449,0.9999455213546753,0.5191887617111206,0.43858247995376587,0.0027619884349405766,0.9999140501022339,0.48174723982810974,0.43814870715141296,-0.0028469646349549294,0.9998958706855774,0.5233059525489807,0.54933762550354,0.0615522563457489,0.9938030242919922,0.4810364842414856,0.5444474816322327,0.059342313557863235,0.9953930974006653,0.5207985043525696,0.6392698884010315,0.24428892135620117,0.993552029132843,0.48287534713745117,0.6349419355392456,0.23216643929481506,0.9947420954704285,0.5401884317398071,0.44060325622558594,-0.1086055189371109,0.8283014297485352,0.4598202109336853,0.44021788239479065,-0.13942423462867737,0.8260383009910583,-179.77271020922538,0.5004680007696152,0.4383655935525894,144.07236932371677,147.9516906903506,0.671594509791989,-0.02100308365830783,0.000650398916477441,-0.138738295763371,-0.031011995712036458,179.5150382180397,2.204558019776709,4,1762115213.4687777
0.49577808380126953,0.17269237339496613,-0.23024944961071014,0.9999918937683105,0.5328153371810913,0.25014859437942505,-0.1049794927239418,0.9999424815177917,0.4627341330051422,0.2514897584915161,-0.10571666061878204,0.999943733215332,0.5174590945243835,0.4386838674545288,0.002488489728420973,0.9999144673347473,0.4800996780395508,0.4387366473674774,-0.0025781074073165655,0.9998965859413147,0.5231738686561584,0.5477941036224365,0.06087682768702507,0.9930372834205627,0.48042231798171997,0.5435582995414734,0.06418253481388092,0.9948206543922424,0.520681619644165,0.6390588283538818,0.2331470251083374,0.9926738142967224,0.48269397020339966,0.6348699331283569,0.23054488003253937,0.9939007759094238,0.538131833076477,0.44040387868881226,-0.11734138429164886,0.84078449010849,0.45851436257362366,0.4399411976337433,-0.12880554795265198,0.8298422694206238,-179.69364312483162,0.49877938628196716,0.4387102574110031,145.90492991815532,151.2455471036362,0.6550691430740235,-0.025576758488194892,0.005220483615851853,-0.06927559687735045,0.06922121862717268,178.90364805611387,9.026645778984324,5,1762115213.534799
0.49418798089027405,0.17182384431362152,-0.23758447170257568,0.9999904632568359,0.5314107537269592,0.24982517957687378,-0.10302618891000748,0.9999414086341858,0.46100860834121704,0.2513141334056854,-0.10380621999502182,0.9999397993087769,0.5165247321128845,0.44002625346183777,0.002086678985506296,0.9999128580093384,0.4791763424873352,0.4402104616165161,-0.0021693003363907337,0.999893307685852,0.5228888988494873,0.5473411679267883,0.05539321154356003,0.9927026629447937,0.4789571166038513,0.5433474183082581,0.06452387571334839,0.9945571422576904,0.5205792188644409,0.6388570070266724,0.23096223175525665,0.9921232461929321,0.482393741607666,0.6338412165641785,0.2406725138425827,0.9933885335922241,0.536354660987854,0.4400721788406372,-0.11769311130046844,0.8471381664276123,0.45760196447372437,0.4394618570804596,-0.12979623675346375,0.8277202248573303,-179.50402302933085,0.49785053730010986,0.44011835753917694,143.7666008293962,150.05698156104663,0.6632844778819716,-0.010113061739419362,0.015331021306641194,0.16836463515018535,0.11008085693459656,178.78841683543962,2.9068842835445037,6,1762115213.6266456
0.4934166371822357,0.17179448902606964,-0.2420421540737152,0.99998939037323,0.5308088660240173,0.249550923705101,-0.10757700353860855,0.9999419450759888,0.46074017882347107,0.2512490451335907,-0.10625571012496948,0.9999369978904724,0.5165649652481079,0.4410819709300995,0.0019491749117150903,0.999912440776825,0.4790254235267639,0.44146835803985596,-0.0020342411007732153,0.9998931884765625,0.5226973295211792,0.5470090508460999,0.060274332761764526,0.9920448064804077,0.47880133986473083,0.54319167137146,0.06687813252210617,0.9941097497940063,0.520540714263916,0.6384411454200745,0.24314959347248077,0.9912422299385071,0.48228082060813904,0.6332505345344543,0.2449827939271927,0.992620587348938,0.5356466770172119,0.4400579333305359,-0.12366938591003418,0.8551268577575684,0.4567855894565582,0.43952688574790955,-0.1305498480796814,0.8260554671287537,-179.3934693315644,0.4977951943874359,0.4412751644849777,145.23344313732997,150.91536646636303,0.6720929163540381,-0.0007698851764143997,0.016092548738665235,0.1299746035930229,0.010593744583020452,178.6117029860335,3.050380562892147,7,1762115213.6985302
0.4923013746738434,0.17177876830101013,-0.2262510061264038,0.9999885559082031,0.529478132724762,0.24841874837875366,-0.09386911243200302,0.9999417066574097,0.45981115102767944,0.2511429488658905,-0.10088038444519043,0.9999358654022217,0.5161210298538208,0.44136857986450195,0.0024225818924605846,0.999912679195404,0.4784398078918457,0.4421391487121582,-0.002501953858882189,0.999894917011261,0.5226460099220276,0.546843945980072,0.0644870400428772,0.9914530515670776,0.47821861505508423,0.5431661009788513,0.06441046297550201,0.9937126040458679,0.5204592943191528,0.6384051442146301,0.24018263816833496,0.9904744625091553,0.48182040452957153,0.6331260800361633,0.2380477637052536,0.9919787645339966,0.5351752042770386,0.4380203187465668,-0.10623644292354584,0.8618488311767578,0.4558526575565338,0.4393255114555359,-0.12203343957662582,0.8286836743354797,-179.2133821067882,0.49728041887283325,0.4417538642883301,147.79693152311287,150.8797595360225,0.6572120027467686,-0.008032459077380953,0.007469540550595238,-0.11332381980327239,-0.13455177728889411,177.76069373041955,3.7200276561633103,8,1762115213.762617
0.4915845990180969,0.1716698855161667,-0.2333647757768631,0.9999875426292419,0.5284583568572998,0.24769899249076843,-0.10072018206119537,0.9999400973320007,0.45883193612098694,0.2511357069015503,-0.10829231888055801,0.9999347925186157,0.5152027606964111,0.44119954109191895,0.002901218133047223,0.9999122619628906,0.47796353697776794,0.44215571880340576,-0.0029734086710959673,0.9998952746391296,0.5224372148513794,0.5467656850814819,0.06675870716571808,0.9909789562225342,0.47819218039512634,0.5430516004562378,0.07218091934919357,0.9933457374572754,0.5203673243522644,0.6384414434432983,0.24204754829406738,0.9898437857627869,0.48182058334350586,0.6328362226486206,0.25701797008514404,0.9914138317108154,0.533920168876648,0.4367447793483734,-0.11351712793111801,0.8645963668823242,0.45482197403907776,0.43965840339660645,-0.12534835934638977,0.8302159905433655,-179.1245095808993,0.49658314883708954,0.44167762994766235,148.5414406230156,152.57181910290643,0.6697369941834439,-0.010948046089746229,-0.0011969782616019855,-0.045778506681409974,-0.13607561278950803,177.17421131979998,3.765432758105653,9,1762115213.826306
0.49141329526901245,0.1715674251317978,-0.2483629435300827,0.9999863505363464,0.5282785296440125,0.24769920110702515,-0.10274150222539902,0.9999368786811829,0.45845818519592285,0.25116726756095886,-0.11423405259847641,0.9999325275421143,0.515072226524353,0.442245215177536,0.0031321353744715452,0.9999096989631653,0.4777526259422302,0.4430824816226959,-0.0031875032000243664,0.9998917579650879,0.5224372148513794,0.5466238856315613,0.06711994856595993,0.9906936287879944,0.47820544242858887,0.5430503487586975,0.0797290951013565,0.9930436015129089,0.5203100442886353,0.6388029456138611,0.24069467186927795,0.9894298315048218,0.4818228781223297,0.6326008439064026,0.2703950107097626,0.9908016324043274,0.5334198474884033,0.4367437958717346,-0.11882386356592178,0.8625427484512329,0.45415034890174866,0.4412264823913574,-0.13911810517311096,0.8274906873703003,-179.0974625303721,0.4964124262332916,0.44266384840011597,149.22343857359675,154.81645551074854,0.6851547599714762,-0.0019088230041078764,0.011026755843927354,0.10106615399067874,0.13667167872130187,177.15638191080706,4.079796210598046,10,1762115213.9157448
0.4915870726108551,0.17141160368919373,-0.25531068444252014,0.999984622001648,0.5281977653503418,0.24780358374118805,-0.10373695194721222,0.9999268651008606,0.4582001566886902,0.2513331174850464,-0.12177000194787979,0.9999302625656128,0.5151441097259521,0.4430157244205475,0.003952717408537865,0.9999043941497803,0.47796788811683655,0.44366487860679626,-0.003998104482889175,0.9998883605003357,0.5224729776382446,0.5465028882026672,0.0727568194270134,0.9901388883590698,0.47825607657432556,0.5429953932762146,0.08118239045143127,0.992651641368866,0.5198984146118164,0.638900637626648,0.24318329989910126,0.9887654781341553,0.48183244466781616,0.6324678063392639,0.26997822523117065,0.9900591373443604,0.5328500270843506,0.43631842732429504,-0.11904975026845932,0.8539533615112305,0.45386165380477905,0.4428228735923767,-0.146945059299469,0.8245074152946472,-179.00746799355173,0.49655599892139435,0.4433403015136719,151.78703265301937,155.95287041224938,0.6911353018954352,0.0017535423922285767,0.00826194192398635,0.04473074275597699,-0.03376838923411016,177.11338342226938,6.6886251365570075,11,1762115213.9976206
0.4916461110115051,0.1710510104894638,-0.25462934374809265,0.9999828338623047,0.5281150937080383,0.2478950470685959,-0.10478458553552628,0.9999184012413025,0.4579834043979645,0.25147050619125366,-0.12189304828643799,0.9999282956123352,0.5152515769004822,0.4435817301273346,0.00551488995552063,0.9999010562896729,0.47812923789024353,0.4441783130168915,-0.005563155747950077,0.9998877048492432,0.5225974321365356,0.546425998210907,0.0793585330247879,0.9894903302192688,0.4783135950565338,0.5430031418800354,0.07704328000545502,0.9923367500305176,0.519356369972229,0.6389066576957703,0.25277116894721985,0.9880697727203369,0.4818352162837982,0.6324273943901062,0.2609845995903015,0.9894281029701233,0.5324839353561401,0.43592044711112976,-0.11975089460611343,0.847273051738739,0.45366349816322327,0.44370710849761963,-0.1472547948360443,0.8217717409133911,-178.92584179913356,0.49669040739536285,0.44388002157211304,153.41261176481527,155.7983998398881,0.6910772627081998,0.0021184291120071247,0.008506596722494241,0.0057510261588475855,0.003856035503184111,177.08146904549858,25.77272379265869,12,1762115214.0610678
0.4919063448905945,0.17046742141246796,-0.2596435844898224,0.9999811053276062,0.5283011198043823,0.24795834720134735,-0.10353833436965942,0.9999101758003235,0.458193302154541,0.25148531794548035,-0.13229990005493164,0.9999274611473083,0.515460193157196,0.44364285469055176,0.009852876886725426,0.9998981952667236,0.47854557633399963,0.44469454884529114,-0.009904769249260426,0.9998872876167297,0.5226336717605591,0.5463401675224304,0.08819495141506195,0.9886473417282104,0.47868508100509644,0.5430321097373962,0.07607720792293549,0.9920109510421753,0.5189535617828369,0.6393083333969116,0.2619355320930481,0.987281858921051,0.4820033609867096,0.6322276592254639,0.26364943385124207,0.988867461681366,0.5330153703689575,0.43585750460624695,-0.12030656635761261,0.8439003825187683,0.4538891911506653,0.4462393522262573,-0.1652674376964569,0.8239974975585938,-178.89348949495775,0.49700288474559784,0.44416870176792145,155.1284855143763,156.57794589845935,0.6996553085394224,0.003920306176473228,0.0036217497165863537,0.022606149788968057,-0.06128474871534346,177.12000283216477,20.645212359076158,13,1762115214.1407752
0.49620550870895386,0.16946028172969818,-0.25949952006340027,0.9999802708625793,0.5287572741508484,0.24642914533615112,-0.09221327304840088,0.9999067187309265,0.4582339823246002,0.25138431787490845,-0.13387060165405273,0.9999271631240845,0.5164743661880493,0.4433819651603699,0.015795264393091202,0.9998944401741028,0.47945743799209595,0.4444742798805237,-0.0158412866294384,0.999885082244873,0.5226995944976807,0.5462933778762817,0.08895813673734665,0.9872291088104248,0.47914886474609375,0.5429049134254456,0.05904427170753479,0.9916036128997803,0.5156048536300659,0.640195369720459,0.25483909249305725,0.9861899018287659,0.48203879594802856,0.632036030292511,0.23070411384105682,0.9881751537322998,0.5339941382408142,0.4341094195842743,-0.11199255287647247,0.84507155418396,0.4553292691707611,0.44673407077789307,-0.16947752237319946,0.8264392614364624,-178.68689798586615,0.49796590209007263,0.4439281225204468,154.44204335994849,154.67948489194043,0.6856022212245954,0.012847411075805431,-0.003209516948316937,0.11909462172886084,-0.09113448632674782,175.98083647981235,2.1252560527364923,14,1762115214.2157333
0.5010308623313904,0.16859892010688782,-0.2588702142238617,0.9999786019325256,0.5304444432258606,0.24612581729888916,-0.08921221643686295,0.9998959302902222,0.46033015847206116,0.2512247562408447,-0.13691124320030212,0.9999265670776367,0.5182322859764099,0.4429830312728882,0.019552012905478477,0.9998913407325745,0.481559693813324,0.44429469108581543,-0.01959153451025486,0.9998810291290283,0.5233014225959778,0.5469927191734314,0.08281196653842926,0.9858835339546204,0.47915977239608765,0.5429038405418396,0.05940829589962959,0.9913071393966675,0.5124728679656982,0.6449829339981079,0.23836322128772736,0.9853564500808716,0.4813899099826813,0.6316590309143066,0.24546284973621368,0.9876421093940735,0.5358027815818787,0.43298137187957764,-0.11332138627767563,0.8391293287277222,0.458787202835083,0.44693759083747864,-0.17624014616012573,0.8296015858650208,-178.67522527034677,0.49989598989486694,0.4436388611793518,152.90627199438427,154.14274651579967,0.6866145095725004,0.028267849473254163,-0.004236489152562495,0.22584601091613202,-0.01504091969842958,175.84058674873282,1.0484814917704877,15,1762115214.2840118
0.5064734816551208,0.168473020195961,-0.25796785950660706,0.9999759197235107,0.5326583385467529,0.24620626866817474,-0.08074309676885605,0.9998460412025452,0.4636037349700928,0.2514922320842743,-0.15196660161018372,0.9999290704727173,0.5201399922370911,0.4431876838207245,0.025023262947797775,0.9998781085014343,0.4844399094581604,0.4441951811313629,-0.025079533457756042,0.9998756647109985,0.5237822532653809,0.5470143556594849,0.09838040918111801,0.9836534857749939,0.4801371693611145,0.5430081486701965,0.06049829721450806,0.9910345673561096,0.5109345316886902,0.6465234756469727,0.2456032931804657,0.9840187430381775,0.48078304529190063,0.6316614151000977,0.24562382698059082,0.9871386885643005,0.5369542837142944,0.4308720827102661,-0.10486225038766861,0.8079836368560791,0.46296000480651855,0.4494873881340027,-0.1955435425043106,0.8373486995697021,-178.77720500201073,0.5022899508476257,0.4436914324760437,158.5136553765352,156.39188320745873,0.6893399460490072,0.03765412654126541,0.0008268832688326884,0.14763484929149734,0.07964075840963723,175.62268257675652,0.6815743512125721,16,1762115214.3475895
0.5079359412193298,0.16844488680362701,-0.25827938318252563,0.999975323677063,0.533778965473175,0.24625355005264282,-0.08412463963031769,0.999829113483429,0.4648905396461487,0.25163739919662476,-0.15503814816474915,0.9999315142631531,0.521112859249115,0.44316190481185913,0.02513734996318817,0.9998705983161926,0.485535204410553,0.44413718581199646,-0.025203675031661987,0.9998725056648254,0.5240252017974854,0.5467841029167175,0.10452885925769806,0.981753408908844,0.4808129370212555,0.5430001020431519,0.06337793916463852,0.9908477663993835,0.5104748606681824,0.6464916467666626,0.24757835268974304,0.9829591512680054,0.48041000962257385,0.6311125159263611,0.24449701607227325,0.9867466688156128,0.5390695333480835,0.4301164746284485,-0.10717695951461792,0.8005490303039551,0.46459895372390747,0.44987115263938904,-0.19990204274654388,0.8453159928321838,-178.82623466171015,0.503324031829834,0.4436495453119278,161.4375546456888,157.7195258614258,0.6897301521523871,0.011991655814802219,-0.0004857418942793394,-0.2975932461808003,-0.015221776089793802,175.5312364723112,0.5717237561100861,17,1762115214.4338229
0.5133768916130066,0.1686384081840515,-0.2599150538444519,0.9999756217002869,0.5353785753250122,0.24695071578025818,-0.07934858649969101,0.9998142719268799,0.4678215980529785,0.2523247301578522,-0.17350775003433228,0.9999356269836426,0.5223100781440735,0.44407790899276733,0.030800798907876015,0.9998690485954285,0.48790067434310913,0.44466668367385864,-0.03086688183248043,0.9998735189437866,0.5256963968276978,0.546768307685852,0.11688779294490814,0.9803763031959534,0.48324593901634216,0.5433340668678284,0.074424147605896,0.9908208250999451,0.5105974674224854,0.6467012763023376,0.26127830147743225,0.9821605086326599,0.48025283217430115,0.62781822681427,0.2625059187412262,0.9866058826446533,0.5411936044692993,0.4301958382129669,-0.10190951824188232,0.7924293279647827,0.4687468409538269,0.4498966634273529,-0.2210998237133026,0.8574205040931702,-178.96876755458436,0.5051053762435913,0.444372296333313,163.3994756504649,161.0217792434187,0.7015774688896128,0.02787540293696275,0.01130998350943171,0.24855712784095335,0.18458563993734653,175.45181944885354,0.3874524740302797,18,1762115214.4977267
0.5180190205574036,0.16921594738960266,-0.2683090567588806,0.999973475933075,0.5354169607162476,0.2478550523519516,-0.0696987435221672,0.9997339248657227,0.4711437225341797,0.2532806694507599,-0.1900547295808792,0.9999387264251709,0.5238021016120911,0.4440731108188629,0.03824476897716522,0.999858558177948,0.4909605383872986,0.4452465772628784,-0.03832116350531578,0.9998704791069031,0.5277293920516968,0.5469176173210144,0.12068592011928558,0.9782745242118835,0.48834648728370667,0.5436363816261292,0.0676693469285965,0.9906278252601624,0.5107660293579102,0.6472691297531128,0.27118727564811707,0.9806052446365356,0.48284226655960083,0.6279795169830322,0.2585231065750122,0.986481249332428,0.5409821271896362,0.4275631308555603,-0.0748044103384018,0.7541375160217285,0.4750385880470276,0.45070791244506836,-0.23697605729103088,0.8684710264205933,-178.7895749629611,0.5073813199996948,0.44465984404087067,161.0569043302399,160.96500241456292,0.7100145017627612,0.026425571848156772,0.0033386644926794024,-0.016833726888983453,-0.09255354524331476,175.17482366918588,0.36502486923861754,19,1762115214.5838532
0.5237134099006653,0.1693139672279358,-0.2680358588695526,0.9999715685844421,0.5349735021591187,0.24768833816051483,-0.058476515114307404,0.9996364712715149,0.4762513041496277,0.2533033490180969,-0.2106536626815796,0.9999421834945679,0.523836076259613,0.44294315576553345,0.04832819104194641,0.9998414516448975,0.4955933094024658,0.4451911151409149,-0.048434942960739136,0.9998622536659241,0.5291789174079895,0.5471624732017517,0.13151414692401886,0.9726219773292542,0.49510374665260315,0.5438269972801208,0.05881882831454277,0.9895040988922119,0.5097883939743042,0.6466349959373474,0.2703019380569458,0.9771228432655334,0.4868197441101074,0.6277860403060913,0.2371121197938919,0.9853143095970154,0.540895402431488,0.4246499240398407,-0.054141975939273834,0.7136964797973633,0.48353785276412964,0.4520673453807831,-0.26051899790763855,0.8800480961799622,-178.78593202682072,0.5097146928310394,0.4440671354532242,161.96581387528434,162.47153634934816,0.7012763063912801,0.041149505753940725,-0.01045253682143653,0.2596595772599102,-0.24321064778231188,174.53798943522148,0.2964454195007547,20,1762115214.640558
0.5320242643356323,0.16871172189712524,-0.23702788352966309,0.9999728202819824,0.5333604216575623,0.24269665777683258,-0.04837028682231903,0.999649703502655,0.48247212171554565,0.25029805302619934,-0.21270737051963806,0.9999470114707947,0.5241068601608276,0.4406145215034485,0.05061548203229904,0.999843418598175,0.4977451264858246,0.44514214992523193,-0.05074358731508255,0.9998669624328613,0.5300827622413635,0.5480697154998779,0.17561379075050354,0.96590256690979,0.5000427961349487,0.5571193099021912,0.06857773661613464,0.9896257519721985,0.5101707577705383,0.6453511118888855,0.3080139756202698,0.9730626344680786,0.49145594239234924,0.6363928318023682,0.2309599667787552,0.9855625033378601,0.5417172312736511,0.4192269742488861,-0.04370441287755966,0.7173289656639099,0.4926467835903168,0.45184916257858276,-0.26311618089675903,0.8913508653640747,-179.12195749588608,0.5109259933233261,0.4428783357143402,169.99579586054767,162.48040811157153,0.6931570679588658,0.015233111258361543,-0.01495014556804519,-0.3259202182123037,-0.056561171129661074,171.50430853671833,0.2112021760351409,21,1762115214.7200756
0.5327556729316711,0.1678515076637268,-0.23064276576042175,0.9999745488166809,0.5322579741477966,0.24039505422115326,-0.041187435388565063,0.9996575713157654,0.48407021164894104,0.24895979464054108,-0.2018929272890091,0.9999514818191528,0.5240954756736755,0.4396282732486725,0.05112006515264511,0.999845564365387,0.49907588958740234,0.44509413838386536,-0.051263999193906784,0.9998721480369568,0.5299431085586548,0.5488578677177429,0.17879396677017212,0.9599553346633911,0.497030645608902,0.5576795935630798,0.07114456593990326,0.9899224638938904,0.509649395942688,0.644526481628418,0.3079071640968323,0.9704352021217346,0.49293193221092224,0.6400827169418335,0.2258497029542923,0.9860499501228333,0.5419498682022095,0.41483551263809204,-0.043256066739559174,0.714204728603363,0.49401769042015076,0.4517323672771454,-0.2530277371406555,0.9016351699829102,-179.0084008098181,0.5115856826305389,0.4423612058162689,169.96352786572314,165.41650452755425,0.688202823788383,0.010392448684482337,-0.008146631861631204,-0.07625762134977876,0.1071794954003531,169.92167597664468,0.2805222578480796,22,1762115214.7835534
0.5380951166152954,0.1669347882270813,-0.2313624620437622,0.9999731183052063,0.5295370221138,0.23499619960784912,-0.03723078593611717,0.9996609687805176,0.48959049582481384,0.24697372317314148,-0.21939638257026672,0.9999552965164185,0.5239423513412476,0.4371151328086853,0.05797285586595535,0.9998423457145691,0.503369927406311,0.44496971368789673,-0.05813061445951462,0.9998725056648254,0.5278435945510864,0.5494524836540222,0.19815824925899506,0.918146550655365,0.5010396838188171,0.5619117021560669,0.07386713474988937,0.9884541034698486,0.5093555450439453,0.6439983248710632,0.3376848101615906,0.9486932158470154,0.49878454208374023,0.6474828124046326,0.23125755786895752,0.9850577712059021,0.541848361492157,0.4104849100112915,-0.02598964236676693,0.6840085387229919,0.502627968788147,0.4520436227321625,-0.27117758989334106,0.9107292890548706,-178.8281195515504,0.5136561393737793,0.441042423248291,171.1981685876244,166.9865421393415,0.7046254546618927,0.02607900166069557,-0.016611084917700972,0.19758424920146386,-0.10661632319864278,163.30922295232037,0.3945377371257056,23,1762115214.862945
0.5437235236167908,0.1646142601966858,-0.16827797889709473,0.9999051094055176,0.5285266637802124,0.23509648442268372,-0.015508517622947693,0.999599039554596,0.4959716796875,0.2445320338010788,-0.21866293251514435,0.999955952167511,0.5238302946090698,0.43730512261390686,0.05942251533269882,0.99974125623703,0.5058279633522034,0.4449429512023926,-0.059488117694854736,0.999815046787262,0.5280842781066895,0.5499290227890015,0.18377292156219482,0.8531388640403748,0.5082482099533081,0.5643240809440613,0.06660289317369461,0.9800952672958374,0.5113150477409363,0.6432350873947144,0.3211119771003723,0.8941929340362549,0.5101380348205566,0.6552276015281677,0.21926791965961456,0.9771523475646973,0.542245090007782,0.40775009989738464,-0.0005884277052246034,0.6296037435531616,0.5151426196098328,0.45012807846069336,-0.2580230236053467,0.9169043898582458,-179.2657457030293,0.5148291289806366,0.4411240369081497,169.23949780842742,167.3285008807514,0.654367360475157,0.014720160250368762,0.0010241916422072423,-0.14254513837212243,0.2213098014712434,163.83660145969105,0.34673569603887794,24,1762115214.942631
0.5498101711273193,0.16445159912109375,-0.15242990851402283,0.9998466968536377,0.5285001993179321,0.23568037152290344,-0.009452516213059425,0.9994986653327942,0.5014929175376892,0.24451471865177155,-0.21547336876392365,0.9999568462371826,0.5256047248840332,0.4417525827884674,0.06202499195933342,0.999662458896637,0.5123857259750366,0.4489538371562958,-0.062048763036727905,0.9997856020927429,0.5310611128807068,0.563296914100647,0.18990716338157654,0.801942765712738,0.5271303057670593,0.5730133652687073,0.06515060365200043,0.9777316451072693,0.5130444169044495,0.6469669938087463,0.32933247089385986,0.8604629635810852,0.5154272317886353,0.6622681617736816,0.21966758370399475,0.9755184054374695,0.5416573882102966,0.40850093960762024,-0.016532961279153824,0.5700501203536987,0.5290298461914062,0.4492189586162567,-0.24727296829223633,0.920362651348114,-178.88393937528693,0.5189952254295349,0.4453532099723816,165.0540298889239,163.39651190363398,0.6509972280184958,0.044691017486246556,0.04536766003483438,0.3215067440794878,0.47568623185854886,161.8865709562388,0.26907327577201867,25,1762115215.035851
0.5539454817771912,0.16211970150470734,-0.12000603973865509,0.9996791481971741,0.5237489938735962,0.23587091267108917,0.003003294114023447,0.9991738796234131,0.5126301646232605,0.2432897835969925,-0.20604076981544495,0.9999463558197021,0.5205506086349487,0.44247865676879883,0.06271719187498093,0.9993821978569031,0.5183941721916199,0.4494810700416565,-0.06275834143161774,0.9996989965438843,0.5271989107131958,0.5594912767410278,0.18686796724796295,0.7651361227035522,0.5407074689865112,0.5709406137466431,0.05643146112561226,0.9768332242965698,0.5130194425582886,0.6467065811157227,0.32229381799697876,0.8487051129341125,0.5277153849601746,0.667288064956665,0.19622573256492615,0.975151002407074,0.5277562141418457,0.41976696252822876,-0.02197420783340931,0.5156732797622681,0.5385456085205078,0.44971808791160583,-0.1732720285654068,0.9109973311424255,-179.64390071755093,0.5194723904132843,0.44597986340522766,167.21373882299258,163.86710976978443,0.624398835190271,0.005978358275831167,0.007851285957523076,-0.4850275155386746,-0.47003936391541395,146.28739865553223,0.09441615555447305,26,1762115215.1156664
0.5538568496704102,0.16114312410354614,-0.11730097234249115,0.9995265603065491,0.5200412273406982,0.2364644855260849,0.005483581218868494,0.998956024646759,0.5136219263076782,0.2433197796344757,-0.2026984691619873,0.9999390840530396,0.518190860748291,0.4433419406414032,0.06309185922145844,0.999187707901001,0.520063579082489,0.4496965706348419,-0.06313275545835495,0.999637246131897,0.5251932144165039,0.5589772462844849,0.1873551309108734,0.7277274131774902,0.5416156053543091,0.5693114399909973,0.05622031167149544,0.975796103477478,0.5131052732467651,0.6465209722518921,0.3234419822692871,0.8340684771537781,0.5290588736534119,0.667441189289093,0.19817981123924255,0.9746838808059692,0.5238765478134155,0.43043601512908936,-0.024410586804151535,0.4667319059371948,0.5398818850517273,0.45082515478134155,-0.16627582907676697,0.9025635123252869,-179.3634657102494,0.51912721991539,0.44651925563812256,167.83907689070392,164.5480585728385,0.6244181698027269,-0.005092654476892663,0.007958206991649137,-0.163342009247158,0.0015775157101718474,133.11884384030887,0.18628421801603967,27,1762115215.1834445
0.5531758069992065,0.16118375957012177,-0.09233103692531586,0.9993801712989807,0.5105348825454712,0.23686178028583527,0.0232105553150177,0.9987459778785706,0.5217417478561401,0.2432047724723816,-0.18645058572292328,0.999932050704956,0.5128405690193176,0.4459182620048523,0.06438249349594116,0.998962938785553,0.5239161252975464,0.452037513256073,-0.06444777548313141,0.999550461769104,0.521920382976532,0.5580753087997437,0.18170888721942902,0.6846346855163574,0.5450958013534546,0.5678107142448425,0.04805203154683113,0.9735272526741028,0.5129688382148743,0.6481437087059021,0.31592145562171936,0.811233401298523,0.5393626093864441,0.6734389662742615,0.18084017932415009,0.9731418490409851,0.5171146988868713,0.442592591047287,0.006505847908556461,0.4220113456249237,0.5477495789527893,0.45634299516677856,-0.14479981362819672,0.8897260427474976,-179.38577281462156,0.518378347158432,0.44897788763046265,168.26716524888593,168.07851080575116,0.6053278815955334,-0.010252242372018331,0.03365924431736582,-0.07063595937904629,0.35185318390519627,29.50949871656245,0.30504148048815305,28,1762115215.2564893
0.5511119961738586,0.16125258803367615,-0.02278044819831848,0.9991719722747803,0.5076952576637268,0.2367701679468155,0.0209673885256052,0.9986902475357056,0.535103440284729,0.24009884893894196,-0.16042713820934296,0.9999311566352844,0.5107797384262085,0.44649115204811096,0.06307540088891983,0.9989367723464966,0.5295390486717224,0.45212608575820923,-0.06316548585891724,0.9995409250259399,0.52033531665802,0.5538057684898376,0.18960918486118317,0.6493983268737793,0.5491389632225037,0.5639594793319702,0.04825668781995773,0.9732804298400879,0.5123978853225708,0.6479750871658325,0.32549113035202026,0.7926294207572937,0.5470004081726074,0.6738606095314026,0.19434265792369843,0.9730204939842224,0.5152895450592041,0.43996015191078186,0.03326696529984474,0.3853512406349182,0.5552060008049011,0.4576731026172638,-0.11694647371768951,0.8883360624313354,179.6631004454611,0.5201593935489655,0.4493086189031601,171.76154880713636,168.7580739593252,0.5744925324580715,0.028600717482608513,0.005311008036264649,0.623915544295557,-0.45522671465237224,6.924570693271548,0.24607205801855173,29,1762115215.318762
0.5487881302833557,0.16137804090976715,0.017159340903162956,0.999003529548645,0.5041845440864563,0.23695755004882812,0.020123887807130814,0.9985259175300598,0.5434165596961975,0.2394554764032364,-0.1398196518421173,0.9999257326126099,0.5111268758773804,0.44630128145217896,0.0616392083466053,0.998907744884491,0.5339300632476807,0.4515315592288971,-0.06173943728208542,0.9995202422142029,0.5156545042991638,0.542400598526001,0.1956363022327423,0.6288393139839172,0.5507327318191528,0.5612120032310486,0.05706847831606865,0.9738029837608337,0.5117846131324768,0.6462627053260803,0.33190029859542847,0.7886050939559937,0.5501877069473267,0.676163375377655,0.19501499831676483,0.9740342497825623,0.5109326243400574,0.429779052734375,0.05600918084383011,0.3532807528972626,0.5579783916473389,0.4509182870388031,-0.10340378433465958,0.8853628039360046,179.65410234300808,0.5225284695625305,0.448916420340538,176.64863907444692,173.22208181914561,0.5575076619341415,0.03961561002447912,-0.006558331273472447,0.1841906654331611,-0.19847869576593952,3.6431394958304195,0.5760047588428207,30,1762115215.3785636
0.5481805205345154,0.15660235285758972,0.04528447985649109,0.9990093111991882,0.5011417269706726,0.23710480332374573,0.008138878270983696,0.9984883069992065,0.5546280145645142,0.23879247903823853,-0.11599918454885483,0.99991375207901,0.5107819437980652,0.4422011971473694,0.04837010055780411,0.9989339709281921,0.5373860597610474,0.444901704788208,-0.04849858954548836,0.9994822144508362,0.51263427734375,0.5365931391716003,0.18732398748397827,0.6477862000465393,0.5495636463165283,0.5609263777732849,0.08417169004678726,0.9715006947517395,0.5104116797447205,0.6464235782623291,0.326729416847229,0.796103835105896,0.5487457513809204,0.6806092858314514,0.20230194926261902,0.9737440943717957,0.5042654871940613,0.41010281443595886,0.06424646079540253,0.331371545791626,0.5650221109390259,0.44755542278289795,-0.09073934704065323,0.8843644857406616,178.9409242568487,0.5240840017795563,0.4435514509677887,175.7109048577719,174.01968036384304,0.5526031408564143,0.017839906704072536,-0.06152913583690166,-0.2497386498329167,-0.6304427604427711,1.8072786150648146,2.498523131784794,31,1762115215.4657576
0.5475010871887207,0.15494395792484283,0.04759139567613602,0.9990373253822327,0.5004904866218567,0.23719246685504913,0.003891943721100688,0.9984733462333679,0.5574721097946167,0.23885667324066162,-0.11437396705150604,0.9999055862426758,0.5104411840438843,0.4403252899646759,0.0442892350256443,0.9989628195762634,0.5386362671852112,0.44179755449295044,-0.04440924897789955,0.9994553327560425,0.5119525790214539,0.5363529920578003,0.18412859737873077,0.6618305444717407,0.548825204372406,0.5608753561973572,0.08928008377552032,0.9679568409919739,0.5091164708137512,0.6466743350028992,0.32282090187072754,0.7995781898498535,0.5485185384750366,0.6828535199165344,0.20769517123699188,0.9727919697761536,0.504172146320343,0.4093017578125,0.07338366657495499,0.3095282018184662,0.5673998594284058,0.44707903265953064,-0.09416642040014267,0.8838517665863037,178.7465327239982,0.5245387256145477,0.44106142222881317,175.70621591701058,174.63570860926885,0.5546568706364525,0.006339811924730003,-0.03471626661614097,-0.16033564200339553,0.37382810167670016,1.6729060916348049,2.8253683382369505,32,1762115215.5374827
0.5453391075134277,0.15140396356582642,0.06717932969331741,0.9991041421890259,0.5004903078079224,0.23680095374584198,-0.02119423635303974,0.9985401034355164,0.5664540529251099,0.23890624940395355,-0.08282123506069183,0.9998966455459595,0.510945737361908,0.4367300271987915,0.022299006581306458,0.9990254640579224,0.542563259601593,0.4383198916912079,-0.022402316331863403,0.9994615912437439,0.5109699368476868,0.537429928779602,0.15132221579551697,0.6910825371742249,0.54986971616745,0.5613511204719543,0.10556244850158691,0.9675282835960388,0.5092214941978455,0.6470980048179626,0.27308374643325806,0.8131973743438721,0.5491909980773926,0.6814426779747009,0.21873673796653748,0.9722521901130676,0.5053344368934631,0.40014931559562683,0.043557435274124146,0.2975378930568695,0.573175311088562,0.4439006745815277,-0.04012792557477951,0.8695929646492004,178.0730851826322,0.5267544984817505,0.4375249594449997,175.88556093001534,176.1374280288848,0.5433570923532596,0.0348114956736712,-0.05556054987451774,0.4473120464281345,-0.32747971924839014,1.8280287672592215,5.530866504162104,33,1762115215.6011333
0.5439630746841431,0.14727558195590973,0.07093013823032379,0.9991675615310669,0.5006985068321228,0.23455695807933807,-0.04687286168336868,0.9986333847045898,0.5730262398719788,0.23874397575855255,-0.07167430967092514,0.9998831748962402,0.5113705396652222,0.4359401762485504,0.0034302950371056795,0.9991033673286438,0.5468150973320007,0.4371945261955261,-0.003505079075694084,0.9994806051254272,0.5100943446159363,0.5439215898513794,0.12832309305667877,0.7185949683189392,0.5493818521499634,0.5625795722007751,0.12835057079792023,0.9660013318061829,0.5093160271644592,0.6585971117019653,0.24719779193401337,0.8265514969825745,0.5485265254974365,0.6840978860855103,0.2422688752412796,0.969904899597168,0.5050049424171448,0.40105968713760376,0.020780181512236595,0.2971557378768921,0.5774400234222412,0.44164353609085083,-0.019745463505387306,0.8515222072601318,177.77438118363884,0.5290928184986115,0.43656735122203827,176.8335825587596,176.49944406107298,0.5523451643103283,0.029373820719398605,-0.012029410883824013,-0.06830771155591771,0.5468352762682999,3.3131274405883415,9.500300015657656,34,1762115215.680739
0.54146409034729,0.1457146257162094,0.04904376342892647,0.9992268681526184,0.5000519752502441,0.23413266241550446,-0.0794469341635704,0.9987214803695679,0.5741642713546753,0.23888757824897766,-0.08756407350301743,0.9998642206192017,0.5124089121818542,0.43667709827423096,-0.007382431533187628,0.9991711974143982,0.5505861043930054,0.43764886260032654,0.00731209572404623,0.9994881749153137,0.511250376701355,0.5516417622566223,0.12614819407463074,0.7413977980613708,0.5489076972007751,0.5636630654335022,0.14923685789108276,0.9602037072181702,0.5097051858901978,0.6639389991760254,0.2530718147754669,0.8378276228904724,0.5484138131141663,0.6864545345306396,0.2705698609352112,0.9656000137329102,0.5029356479644775,0.40389540791511536,0.0005221089813858271,0.29899701476097107,0.5794228315353394,0.44064760208129883,-0.02498100884258747,0.8404338359832764,178.39832425207155,0.5314975082874298,0.43716298043727875,179.08341206700865,176.2172555558389,0.570770790299092,0.03016004018946462,0.007470485861920483,0.009860902194200539,0.24457111777027155,3.6709660254449203,5.4977061558794675,35,1762115215.76047
0.5372627377510071,0.1469554603099823,0.06325922161340714,0.9992930293083191,0.4991203248500824,0.2353390008211136,-0.08589691668748856,0.9988277554512024,0.5737062096595764,0.23954084515571594,-0.0626571998000145,0.9998595714569092,0.5148814916610718,0.44085440039634705,-0.019891459494829178,0.9992361068725586,0.5537468194961548,0.4397156536579132,0.019792990759015083,0.9995014667510986,0.5116181969642639,0.5643114447593689,0.10284177958965302,0.7640975713729858,0.5491728186607361,0.5660982131958008,0.15165628492832184,0.9572346806526184,0.512900710105896,0.6798360347747803,0.22185707092285156,0.8485756516456604,0.5490177273750305,0.6904709935188293,0.2707238793373108,0.9611468315124512,0.4982503354549408,0.41917720437049866,0.0036812215112149715,0.3154456913471222,0.5809044241905212,0.43938398361206055,0.020612213760614395,0.8264836072921753,179.40710451237643,0.5343141555786133,0.4402850270271301,178.11029704614148,177.13781277663605,0.5685044584429788,0.038470399557133085,0.0426416115796672,0.11350474954329126,0.48037511245057773,3.224386803864786,3.7171437141954953,36,1762115215.8336859
0.5365707278251648,0.14720314741134644,0.07847387343645096,0.9993549585342407,0.4991530776023865,0.23552758991718292,-0.07760941982269287,0.9989246726036072,0.5739666819572449,0.23956897854804993,-0.04844613000750542,0.999856173992157,0.5169227123260498,0.4407750964164734,-0.022250577807426453,0.9992915987968445,0.5545176267623901,0.4399878978729248,0.022191446274518967,0.9995112419128418,0.5119203329086304,0.5643936395645142,0.0979844480752945,0.7846615314483643,0.5495960712432861,0.5658362507820129,0.14330075681209564,0.9562572240829468,0.5140081644058228,0.6824780106544495,0.21423915028572083,0.8588584661483765,0.549040675163269,0.6920444965362549,0.25522392988204956,0.9592819213867188,0.4982876777648926,0.4226546287536621,-0.0044596814550459385,0.3348856270313263,0.5812617540359497,0.43884027004241943,0.019653916358947754,0.8177710771560669,179.76280227007385,0.53572016954422,0.4403814971446991,177.5441729146493,177.2253835148204,0.562231875355708,0.01910201344890582,0.0013106366851945426,-0.2631376223658739,-0.5615199120372444,3.092080303088374,1.094487557047538,37,1762115215.9072914
0.5306899547576904,0.14897777140140533,0.06337258964776993,0.9993991851806641,0.49979645013809204,0.23667918145656586,-0.10513462126255035,0.9990127682685852,0.5745072960853577,0.24138812720775604,-0.04788045957684517,0.9998480081558228,0.5190317630767822,0.4448101818561554,-0.02923111990094185,0.9993395209312439,0.5555220246315002,0.44254744052886963,0.029092997312545776,0.9995078444480896,0.5122226476669312,0.5701930522918701,0.10375221073627472,0.8042036294937134,0.5517988801002502,0.5677087306976318,0.1645592302083969,0.9568088054656982,0.5204230546951294,0.6899365186691284,0.22587165236473083,0.8698545694351196,0.5497311353683472,0.691126823425293,0.2862001061439514,0.9586795568466187,0.4940602779388428,0.430838406085968,-0.029880592599511147,0.36437463760375977,0.5808404684066772,0.4389380216598511,0.04283514991402626,0.80145663022995,-179.9649971682164,0.5372768938541412,0.4436788111925125,174.97323365691847,177.2417528294217,0.5748208559050277,0.020720478425473712,0.043888262137555256,0.02154226565078564,0.5667212646265938,3.6065217334347737,0.04075880183066772,38,1762115215.9824212
0.5173284411430359,0.15560311079025269,0.04207700490951538,0.9994276165962219,0.5000996589660645,0.23850485682487488,-0.13062915205955505,0.9990986585617065,0.5733961462974548,0.24312835931777954,-0.01705087162554264,0.9998408555984497,0.5215864181518555,0.44786956906318665,-0.044954828917980194,0.9993700981140137,0.5562819838523865,0.4457749128341675,0.044708412140607834,0.9994577169418335,0.5123655200004578,0.5813568830490112,0.09295425564050674,0.8208731412887573,0.5532878637313843,0.5696299076080322,0.17390486598014832,0.9506385326385498,0.5308966040611267,0.699180543422699,0.20638994872570038,0.8786810040473938,0.5504089593887329,0.691621720790863,0.28898245096206665,0.9507798552513123,0.4891151487827301,0.4320940673351288,-0.028180543333292007,0.40346187353134155,0.5799113512039185,0.43853360414505005,0.10651431232690811,0.7671059370040894,-179.39195368114864,0.538934201002121,0.44682224094867706,170.55620159307847,177.08279950552935,0.5781012625158142,0.029750313499077693,0.05642769405913898,0.16209453064397833,0.22509528859644984,3.609404334598592,0.27932455225934993,39,1762115216.0381284
0.5069544315338135,0.16036473214626312,0.026347879320383072,0.9994347095489502,0.5034376382827759,0.24003002047538757,-0.14761623740196228,0.9991779327392578,0.5715736746788025,0.24440063536167145,0.012154650874435902,0.9998344779014587,0.522916853427887,0.4494553804397583,-0.0572175569832325,0.9993937015533447,0.556192934513092,0.4485384225845337,0.056982479989528656,0.999408483505249,0.5123224854469299,0.5887451767921448,0.06102200224995613,0.8355309367179871,0.5528178215026855,0.5701934099197388,0.16697660088539124,0.9299384355545044,0.5365290641784668,0.7039297819137573,0.16380834579467773,0.885236382484436,0.5506656765937805,0.6929005980491638,0.27441591024398804,0.9332932829856873,0.48737138509750366,0.43798500299453735,-0.0556798055768013,0.4511352479457855,0.577036440372467,0.43822014331817627,0.12175107002258301,0.7281103730201721,-179.43220851925662,0.5395548939704895,0.448996901512146,167.67940855015365,178.87805029248284,0.572712018139021,0.007824733777963458,0.02741474583046548,-0.27640368586126796,-0.3657502301015541,3.670233642002293,0.1858176626538439,40,1762115216.1174529
0.5048092603683472,0.16277524828910828,0.01872922293841839,0.9994638562202454,0.5049986839294434,0.24054737389087677,-0.14558164775371552,0.9992503523826599,0.5709487199783325,0.2450750321149826,0.011898144148290157,0.9998378157615662,0.5232076644897461,0.4506048560142517,-0.055143456906080246,0.99942547082901,0.5570768117904663,0.4501543641090393,0.054885875433683395,0.9994015693664551,0.5122727751731873,0.5911461710929871,0.0625801831483841,0.8489041924476624,0.553374707698822,0.5712687373161316,0.16345663368701935,0.9121222496032715,0.5373905897140503,0.7044410705566406,0.16652624309062958,0.8908944129943848,0.5510973334312439,0.6938142776489258,0.27159053087234497,0.9178793430328369,0.4860757887363434,0.4425976574420929,-0.04203058034181595,0.4913201332092285,0.5760038495063782,0.4329543113708496,0.13616208732128143,0.6928409337997437,-179.40143371128985,0.5401422381401062,0.4503796100616455,167.0410688943497,179.16100354745427,0.573899637830066,0.008161284338019957,0.01921305805494083,0.00467644859151907,-0.11396436612523399,3.927356388338637,0.1898690472886512,41,1762115216.18942
0.5013777017593384,0.16481532156467438,0.007186775095760822,0.9994847178459167,0.5080054998397827,0.24053730070590973,-0.1523868590593338,0.9993174076080322,0.5693439245223999,0.24480628967285156,0.029791269451379776,0.9998316168785095,0.5238174200057983,0.45121532678604126,-0.06269924342632294,0.9994382858276367,0.5567285418510437,0.4511394798755646,0.0624476857483387,0.9993510842323303,0.5138359069824219,0.5939894914627075,0.04548740014433861,0.8594550490379333,0.5534055829048157,0.5721101760864258,0.16036272048950195,0.8777366876602173,0.5393658876419067,0.7074972987174988,0.14488576352596283,0.8932087421417236,0.5505006313323975,0.6956702470779419,0.2686331570148468,0.8912038207054138,0.4856075346469879,0.44760891795158386,-0.0641675665974617,0.5348294377326965,0.574524998664856,0.4237797260284424,0.14259350299835205,0.654715359210968,-179.56081632013846,0.540272980928421,0.4511774033308029,166.57496772679167,177.69464783638668,0.5743228304910706,0.0017360451569603261,0.010593357836619433,-0.08531641023083468,-0.11445517577943977,3.9812120009947303,0.1412707555357556,42,1762115216.2647307
0.4987030029296875,0.16725219786167145,-0.013834084384143353,0.9995210766792297,0.5122643709182739,0.24098341166973114,-0.1605534702539444,0.9993840456008911,0.561891496181488,0.24472542107105255,0.0541718415915966,0.9998264908790588,0.5269986987113953,0.4569811522960663,-0.06858418881893158,0.9994687438011169,0.5553286075592041,0.45684614777565,0.06831983476877213,0.9993308782577515,0.5206383466720581,0.6048307418823242,0.04685068130493164,0.8697109818458557,0.5532348155975342,0.5788581371307373,0.1688695102930069,0.854832112789154,0.542395830154419,0.7156071066856384,0.152616947889328,0.9002172946929932,0.5500986576080322,0.697895884513855,0.2832113206386566,0.8732675313949585,0.48824548721313477,0.445394903421402,-0.07945404946804047,0.579205334186554,0.5561026930809021,0.42282649874687195,0.1468246430158615,0.6041428446769714,-178.9065359938304,0.5411636531352997,0.45691365003585815,168.4671561992045,175.60399888752505,0.5890901322837774,0.011239732827872552,0.07238788849775853,0.1199306652611783,0.7798087887900182,4.3120852966232945,0.43877443767874547,43,1762115216.3439739
0.49607887864112854,0.16889430582523346,-0.09362326562404633,0.9995216727256775,0.5225626826286316,0.2438083291053772,-0.20606176555156708,0.9994416832923889,0.5444547533988953,0.24440540373325348,0.036762554198503494,0.9997530579566956,0.532573938369751,0.46554267406463623,-0.06943126767873764,0.9994708299636841,0.5458073019981384,0.4614788889884949,0.06921036541461945,0.9992505311965942,0.5256894826889038,0.6138112545013428,0.04574165120720863,0.8778539299964905,0.5381695032119751,0.58919358253479,0.17645272612571716,0.8268277645111084,0.5436475872993469,0.722149670124054,0.16455239057540894,0.9064302444458008,0.5494617223739624,0.7025437951087952,0.30105096101760864,0.8553271889686584,0.48942121863365173,0.4519127309322357,-0.11820809543132782,0.6174548864364624,0.5280013084411621,0.4312768578529358,0.04678473249077797,0.5487015247344971,-178.51654303382287,0.5391906201839447,0.46351078152656555,167.04878977231286,169.9532145034987,0.6359572206911316,-0.031090331209425344,0.10395518378817023,-0.6670216582708235,0.497425887028714,1.5622723896695714,0.3884752687946333,44,1762115216.4074352
0.4944303631782532,0.1724204421043396,-0.12622304260730743,0.9995508193969727,0.5300704836845398,0.2483016699552536,-0.22169120609760284,0.9994949698448181,0.5335029363632202,0.2448776662349701,0.017496788874268532,0.9996922612190247,0.5357362031936646,0.47475114464759827,-0.06774033606052399,0.9994823336601257,0.5359458923339844,0.46745067834854126,0.06758284568786621,0.9991699457168579,0.526669979095459,0.6197575926780701,0.05207130312919617,0.8851519227027893,0.5310318470001221,0.5933510065078735,0.18249507248401642,0.8122668266296387,0.543380856513977,0.7243829369544983,0.17560771107673645,0.9128290414810181,0.548747718334198,0.7013621926307678,0.3130794167518616,0.8437181115150452,0.4899982511997223,0.4590133726596832,-0.15927395224571228,0.652737557888031,0.513560950756073,0.43411633372306824,0.017603127285838127,0.5020080208778381,-178.9654362460084,0.5358410477638245,0.47110091149806976,166.64724316969725,168.93813820565597,0.6573234887939468,-0.04013978371737546,0.09095673633233811,-0.10844460751105046,-0.15576760377076465,-44.929396559355,0.2355204813906569,45,1762115216.4908829
0.4942159652709961,0.17404861748218536,-0.12194286286830902,0.9995715022087097,0.530992865562439,0.250034362077713,-0.2194032222032547,0.9995409250259399,0.5330844521522522,0.24499927461147308,0.016159914433956146,0.9996204376220703,0.5364111661911011,0.47554972767829895,-0.06752897053956985,0.9994750022888184,0.5350120067596436,0.4678937792778015,0.06737276911735535,0.9990603923797607,0.5266977548599243,0.6213855743408203,0.048489224165678024,0.8915757536888123,0.5301345586776733,0.5940588116645813,0.17845848202705383,0.7946401834487915,0.5432626008987427,0.7260499000549316,0.1718175709247589,0.9184869527816772,0.5483545660972595,0.7025451064109802,0.30342334508895874,0.832441508769989,0.49068355560302734,0.4605744779109955,-0.14981552958488464,0.6835290193557739,0.5149705410003662,0.43690890073776245,0.018640009686350822,0.4585789144039154,-179.06146388657885,0.5357115864753723,0.47172175347805023,165.75993561770056,168.9519564063387,0.6510118574413568,-0.0020344622163274025,0.00975642654017782,0.5988186720661665,-1.276049112451797,-67.44189236889673,0.21116756779503149,46,1762115216.554517
0.4932693839073181,0.17435677349567413,-0.15350528061389923,0.9996024370193481,0.5328244566917419,0.25044143199920654,-0.2234804928302765,0.9995840787887573,0.5275613069534302,0.24689000844955444,0.008785427547991276,0.9995176792144775,0.5359667539596558,0.4791443347930908,-0.06491255015134811,0.9994907379150391,0.5303544998168945,0.47177886962890625,0.06478363275527954,0.9989606738090515,0.5256195068359375,0.6184216141700745,0.04479241371154785,0.89674973487854,0.5256369709968567,0.5913844108581543,0.17695041000843048,0.7851377725601196,0.5420123338699341,0.7282891273498535,0.16007000207901,0.9230735301971436,0.547450840473175,0.7014245986938477,0.2992016077041626,0.8226101398468018,0.5004688501358032,0.4637269675731659,-0.15803426504135132,0.7120389342308044,0.5148102045059204,0.4428083598613739,-0.00833070743829012,0.41915401816368103,-179.25029695821266,0.5331606268882751,0.47546160221099854,167.6941763807133,169.59279991973008,0.6645192221034213,-0.03793704991969025,0.0556178266373084,-0.5339317286082323,0.6820359811546706,-145.98964430378132,0.1553439576190674,47,1762115216.621759
0.49307316541671753,0.17463453114032745,-0.20472988486289978,0.9996384382247925,0.536378026008606,0.25089624524116516,-0.2423241138458252,0.9996240735054016,0.5222231149673462,0.2494811862707138,-0.003502902342006564,0.9994027018547058,0.5369967222213745,0.48136281967163086,-0.06589570641517639,0.9995145797729492,0.5276026129722595,0.4748072028160095,0.06579722464084625,0.9988824129104614,0.5254694223403931,0.6172465682029724,0.033437442034482956,0.901951253414154,0.5218390226364136,0.5897268652915955,0.1938118040561676,0.776130735874176,0.5418503880500793,0.7282974123954773,0.1326216161251068,0.9261218309402466,0.5464259386062622,0.6918074488639832,0.32619181275367737,0.8120269775390625,0.5073292851448059,0.4744192659854889,-0.1906023919582367,0.739669919013977,0.5149396657943726,0.4519238770008087,-0.020222937688231468,0.38729405403137207,-179.2460356248806,0.532299667596817,0.4780850112438202,168.35951797458696,168.85467288829184,0.6911979079533587,-0.014416474373817299,0.043928103766278356,0.3938441433627312,-0.1957404860824669,-174.29113872551474,0.1464049680348009,48,1762115216.6814795
0.49256935715675354,0.1742919385433197,-0.2195388823747635,0.999671220779419,0.5397587418556213,0.25076135993003845,-0.24145014584064484,0.9996607899665833,0.5156378149986267,0.2512494921684265,-0.005091843195259571,0.9993321895599365,0.536889910697937,0.4828122854232788,-0.06756609678268433,0.9995347857475281,0.5165342092514038,0.4758378267288208,0.06745623052120209,0.998816192150116,0.5260170102119446,0.6173861026763916,0.019892102107405663,0.9038011431694031,0.5038621425628662,0.5901849865913391,0.1837085783481598,0.7687184810638428,0.5424599647521973,0.7274593710899353,0.13585832715034485,0.9263415336608887,0.537577211856842,0.6918051838874817,0.3224394619464874,0.7961880564689636,0.5113720297813416,0.48456692695617676,-0.21337738633155823,0.7650802731513977,0.5048497915267944,0.4610399901866913,-0.015470507554709911,0.36560797691345215,179.75251447466638,0.5267120599746704,0.4793250560760498,163.37744368095804,162.3963791405869,0.7001152970753767,-0.06158973247135499,0.013668466834857564,-0.5199700019224607,-0.3335386214128192,178.8406705805311,0.039322886117954,49,1762115216.7722025
0.49180346727371216,0.17376258969306946,-0.20588329434394836,0.999701976776123,0.5414428114891052,0.2506136894226074,-0.2272588461637497,0.9996943473815918,0.5085442662239075,0.2548843026161194,0.003147560404613614,0.9992839694023132,0.5359786748886108,0.48272261023521423,-0.06937520951032639,0.9995679259300232,0.5097038149833679,0.4762141704559326,0.06925489008426666,0.9988452792167664,0.5263755917549133,0.6184434294700623,-0.028123412281274796,0.908113420009613,0.49475446343421936,0.5981587767601013,0.12681040167808533,0.7710669040679932,0.5422185063362122,0.7269013524055481,0.10274624824523926,0.9277105331420898,0.5295060873031616,0.6851481795310974,0.2985544502735138,0.7795053720474243,0.5165480971336365,0.48740315437316895,-0.20371857285499573,0.7881960272789001,0.49681442975997925,0.46303239464759827,-0.0012270871084183455,0.3524302542209625,179.45609569930645,0.5228412449359894,0.4794683903455734,145.34889177054734,138.80795400986148,0.6712032539668035,-0.06085131782132202,0.0022532926792701758,0.011608279936927082,-0.17945274666600503,172.60370257976507,0.08507672605443672,50,1762115216.8358135
0.4914833903312683,0.17349189519882202,-0.22932250797748566,0.9997308254241943,0.5412911176681519,0.25041869282722473,-0.2390192747116089,0.9997245073318481,0.5080076456069946,0.2557329535484314,-0.0014477220829576254,0.9992498755455017,0.5356144309043884,0.4820534586906433,-0.0717286765575409,0.9996017217636108,0.5092479586601257,0.47605738043785095,0.07162564992904663,0.9988991618156433,0.5260264277458191,0.6201727986335754,-0.04576551169157028,0.9163714051246643,0.49385714530944824,0.601263165473938,0.10535459220409393,0.7865567803382874,0.5426620841026306,0.7262834906578064,0.10222326219081879,0.9322863221168518,0.5330257415771484,0.6691741347312927,0.3005203902721405,0.7801089882850647,0.516739010810852,0.48853713274002075,-0.21122440695762634,0.8090031147003174,0.4983568787574768,0.462587833404541,-0.01537727378308773,0.33398911356925964,179.4376100081495,0.5224311947822571,0.47905541956424713,135.39188231959736,121.82447783940387,0.6800523900644704,-0.005170363845707534,-0.0052071903343243915,0.7020867781895068,-0.09406998459556022,170.92834645379472,0.07949599734786242,51,1762115216.9151213
0.4910154342651367,0.1704528033733368,-0.220978781580925,0.999754011631012,0.5419204831123352,0.2499067336320877,-0.2299196422100067,0.9997513890266418,0.5024381875991821,0.2555147409439087,-0.0013750611105933785,0.9991546869277954,0.535342812538147,0.4809492826461792,-0.06868940591812134,0.999628484249115,0.5062180161476135,0.4752475321292877,0.06854866445064545,0.9989273548126221,0.529893159866333,0.6156129240989685,-0.00970496702939272,0.922227144241333,0.4889655113220215,0.5924970507621765,0.1580430269241333,0.7980970740318298,0.5427513718605042,0.7250616550445557,0.10947946459054947,0.9368848204612732,0.5124937891960144,0.6728107333183289,0.33083367347717285,0.7910539507865906,0.5237417817115784,0.48371779918670654,-0.19039803743362427,0.8269357085227966,0.4950953423976898,0.45240259170532227,0.006641100160777569,0.3138379156589508,179.64438498055836,0.5207804143428802,0.47809840738773346,155.31213726190924,149.1337218167496,0.6893730304266281,-0.021968978252730306,-0.012736145396394281,-0.22355995126959521,-0.10019712257242211,171.91586776826298,0.0768881048895805,52,1762115216.9902627
0.49025195837020874,0.16839651763439178,-0.23288419842720032,0.9997755885124207,0.5437251329421997,0.24979977309703827,-0.2210845947265625,0.9997755289077759,0.4921862483024597,0.25616195797920227,-0.007216525264084339,0.9991065263748169,0.5351167917251587,0.4804607033729553,-0.06694407761096954,0.9996510744094849,0.5016840696334839,0.47454825043678284,0.0669485554099083,0.9989778995513916,0.5338696241378784,0.6080676317214966,-0.003158963518217206,0.9286266565322876,0.4849858283996582,0.5922159552574158,0.1571377068758011,0.8144985437393188,0.5430601835250854,0.7245954871177673,0.14139997959136963,0.9418638944625854,0.4985278248786926,0.6733468174934387,0.3426975607872009,0.808405876159668,0.529978334903717,0.4812321066856384,-0.20715704560279846,0.8426088094711304,0.4843856692314148,0.45558345317840576,-0.010050447657704353,0.3023338317871094,-179.88650772734326,0.5184004306793213,0.4775044769048691,155.20912669889972,149.36219291367235,0.7127437016199732,-0.03675368738079985,-0.00917196854220514,-0.22831777613824125,0.0550409836313169,172.962760462789,0.03912458722380161,53,1762115217.0550177
0.4892041087150574,0.16695477068424225,-0.23833627998828888,0.9997958540916443,0.5434392690658569,0.2505396902561188,-0.19988568127155304,0.9997973442077637,0.4813343584537506,0.2597538232803345,-0.01989823952317238,0.9990965723991394,0.5334302186965942,0.47948217391967773,-0.05799411982297897,0.9996769428253174,0.49479031562805176,0.4744243323802948,0.058050621300935745,0.999039351940155,0.53396075963974,0.607064962387085,-0.01253460068255663,0.9352515339851379,0.48090583086013794,0.591333270072937,0.14960429072380066,0.8315773606300354,0.5435913801193237,0.7239767909049988,0.1381719410419464,0.9472130537033081,0.4868856966495514,0.6736820936203003,0.3502936363220215,0.8262069225311279,0.5338930487632751,0.4842633008956909,-0.21384143829345703,0.8562760353088379,0.4729098379611969,0.4690192639827728,-0.03256896138191223,0.29917505383491516,-179.55481638009155,0.514110267162323,0.47695325314998627,147.317450535395,149.6078872019149,0.7186385488074954,-0.06277231832944369,-0.008065331979808762,-0.38069639488877255,0.016191956855376506,171.56092950612643,0.22077885262152105,54,1762115217.1233625
0.4878080487251282,0.1666228175163269,-0.24931487441062927,0.9998130202293396,0.5421637296676636,0.2524840235710144,-0.17897088825702667,0.9998168349266052,0.4707247316837311,0.2617267966270447,-0.03742222487926483,0.9991210103034973,0.5311508178710938,0.478760302066803,-0.046467844396829605,0.9996982216835022,0.4906493127346039,0.4752747118473053,0.046497903764247894,0.9990977644920349,0.5330826044082642,0.6045751571655273,-0.0030453423969447613,0.941300630569458,0.4817088544368744,0.5923238396644592,0.13298358023166656,0.8473801016807556,0.5433916449546814,0.723484992980957,0.15472903847694397,0.9520559310913086,0.48719891905784607,0.6799589395523071,0.337242990732193,0.8426375389099121,0.5353147387504578,0.4870346486568451,-0.20566031336784363,0.8680304884910583,0.46559086441993713,0.4697533845901489,-0.05068672448396683,0.30496343970298767,-178.83923807187145,0.5109000653028488,0.47701750695705414,145.99516713419604,149.29446793557355,0.7296640443697346,-0.043033170016108,0.0008613305719618521,0.26460582932939947,0.11966306297314595,172.62802720369987,0.5639902500424662,55,1762115217.1979609
0.48748865723609924,0.16611355543136597,-0.24894604086875916,0.9998259544372559,0.5416027307510376,0.25284695625305176,-0.17709185183048248,0.9998339414596558,0.4699057936668396,0.262601763010025,-0.03915579617023468,0.9991442561149597,0.530017077922821,0.47837892174720764,-0.042371589690446854,0.9997183084487915,0.48976054787635803,0.4754851460456848,0.04239015281200409,0.9991534352302551,0.5331341028213501,0.6030193567276001,-0.0017827125266194344,0.9465729594230652,0.4825814366340637,0.5929491519927979,0.13190224766731262,0.8613954186439514,0.5432337522506714,0.7223979234695435,0.17434296011924744,0.9562718868255615,0.48790502548217773,0.6822440028190613,0.339111864566803,0.8572105765342712,0.5363267660140991,0.4861758351325989,-0.19909001886844635,0.8772805333137512,0.4639894962310791,0.47040167450904846,-0.046260491013526917,0.31179285049438477,-178.9194528884426,0.5098888128995895,0.47693203389644623,142.16611866447383,150.33804695553843,0.7375720662133648,-0.01338861549436709,-0.0011316323599506312,0.3924831631689367,-0.026386107270453055,172.25213268079014,0.5360760872911944,56,1762115217.2734916
0.4864872992038727,0.16550034284591675,-0.25583481788635254,0.999832272529602,0.5408898591995239,0.2527426779270172,-0.15965545177459717,0.9998478293418884,0.46294206380844116,0.26318949460983276,-0.05529787391424179,0.9991641640663147,0.5262865424156189,0.4772270917892456,-0.034637678414583206,0.9997351765632629,0.48562756180763245,0.47514021396636963,0.03463102877140045,0.9991982579231262,0.5326284170150757,0.6022878885269165,0.004689164459705353,0.9513934254646301,0.4833506643772125,0.5941228866577148,0.12942014634609222,0.8738070726394653,0.5421231985092163,0.722328245639801,0.18149329721927643,0.9601081013679504,0.48675721883773804,0.6835708022117615,0.34164631366729736,0.8702036142349243,0.5396872162818909,0.4834081828594208,-0.19397994875907898,0.8795506954193115,0.4569976329803467,0.47283706068992615,-0.06937077641487122,0.31801721453666687,-178.9390818635863,0.5059570521116257,0.4761836528778076,141.67036596356445,151.34452277592908,0.7465524305995654,-0.052760563470404365,-0.010042575416795974,-0.5283348281264418,-0.11957654651093909,172.36652143669852,0.6263636972393605,57,1762115217.3480124
0.4858216345310211,0.1655258983373642,-0.264639675617218,0.9998390674591064,0.5381235480308533,0.2532182037830353,-0.15827275812625885,0.9998592734336853,0.457348108291626,0.26386645436286926,-0.06612323224544525,0.9992008805274963,0.521233856678009,0.4771496653556824,-0.03192027285695076,0.9997507929801941,0.48039180040359497,0.47642433643341064,0.031884029507637024,0.9992460012435913,0.5316043496131897,0.602445662021637,0.015053242444992065,0.9558297395706177,0.4809660017490387,0.596382200717926,0.13129931688308716,0.8852718472480774,0.5416073799133301,0.721368670463562,0.21115398406982422,0.9636431336402893,0.4854293465614319,0.6856709122657776,0.35046452283859253,0.8821439743041992,0.5393266081809998,0.482793927192688,-0.20399682223796844,0.8789295554161072,0.4477201998233795,0.4762418568134308,-0.08171207457780838,0.3382463753223419,-179.1922485264753,0.500812828540802,0.4767870008945465,141.80828181241452,151.8022585959962,0.7666283792952591,-0.08563063804961682,0.010043318477126336,-0.5471545744863064,0.3343493699785052,172.49026525909534,0.425341526692497,58,1762115217.408087
0.48434266448020935,0.16424734890460968,-0.24334745109081268,0.999851405620575,0.5353418588638306,0.25310108065605164,-0.13962991535663605,0.9998696446418762,0.4542146623134613,0.26355889439582825,-0.06667476147413254,0.9992623329162598,0.5188859701156616,0.4753113090991974,-0.025574002414941788,0.9997676014900208,0.47786927223205566,0.4763074517250061,0.025448504835367203,0.999305784702301,0.5289192795753479,0.6025387048721313,0.03233746066689491,0.9594712257385254,0.4782004952430725,0.5961797833442688,0.11374654620885849,0.8954834938049316,0.5404048562049866,0.718557596206665,0.21447856724262238,0.9666756391525269,0.48553210496902466,0.6902443170547485,0.31234341859817505,0.8928090929985046,0.5417972803115845,0.47717392444610596,-0.18484100699424744,0.8832731246948242,0.43945470452308655,0.4744712710380554,-0.10212364047765732,0.38170325756073,-179.05182122669078,0.49837762117385864,0.47580938041210175,147.01673835682553,151.66603324599924,0.7412081204789668,-0.03276963402857317,-0.013155456846684697,0.7113298767352264,-0.31217685507686105,172.65471456580443,0.382520319125636,59,1762115217.4824
0.48384541273117065,0.16398082673549652,-0.23684415221214294,0.9998629689216614,0.5335556268692017,0.25299495458602905,-0.12019215524196625,0.9998757243156433,0.45190802216529846,0.2632606625556946,-0.06870143115520477,0.9993227124214172,0.5191587209701538,0.4752887189388275,-0.018250752240419388,0.9997756481170654,0.47680988907814026,0.4763094186782837,0.01811050809919834,0.9993551969528198,0.5281583666801453,0.6022387146949768,0.046010617166757584,0.9619573950767517,0.4777170717716217,0.5964356064796448,0.09442173689603806,0.9043617248535156,0.5390840768814087,0.7071322202682495,0.21174201369285583,0.9686799049377441,0.48438262939453125,0.6902890205383301,0.2636563181877136,0.9016823768615723,0.5433588027954102,0.47028639912605286,-0.14784108102321625,0.8857961297035217,0.43518319725990295,0.4735431373119354,-0.07610687613487244,0.42599546909332275,-178.61770187588473,0.49798430502414703,0.4757990688085556,149.22785283239963,151.39579769090452,0.7154754015752395,-0.0061054311621021465,-0.00016006661732050333,0.41390737505422237,0.20172693271866451,172.83369809228407,0.5971011820419305,60,1762115217.5468206
0.483403742313385,0.16384053230285645,-0.23401515185832977,0.9998738169670105,0.5332456827163696,0.252903014421463,-0.1248580813407898,0.9998826384544373,0.45160403847694397,0.26260456442832947,-0.0773472711443901,0.9993782639503479,0.5189782381057739,0.4752568006515503,-0.01708650402724743,0.9997847676277161,0.47559618949890137,0.47625067830085754,0.01694907434284687,0.9994005560874939,0.5277277231216431,0.6011124849319458,0.05207853764295578,0.9640753269195557,0.4771033227443695,0.596239447593689,0.09849365055561066,0.9122743010520935,0.5381762385368347,0.7020317316055298,0.22013160586357117,0.9704226851463318,0.48456281423568726,0.6897199749946594,0.27224570512771606,0.9096208810806274,0.5450002551078796,0.4686867594718933,-0.14735481142997742,0.8900524973869324,0.43516960740089417,0.4721513092517853,-0.08751671761274338,0.46741658449172974,-178.72226515472613,0.49728721380233765,0.4757537394762039,149.82081010355625,152.44125076834075,0.7172442850693876,-0.00876424205727098,-0.0005699071062657558,-0.033428139016418175,-0.005152756393436073,173.22326934214743,0.542976139658955,61,1762115217.6263587
0.4831394553184509,0.16315148770809174,-0.2385844886302948,0.9998833537101746,0.5325652956962585,0.25276443362236023,-0.11822676658630371,0.9998828172683716,0.4498620927333832,0.26130741834640503,-0.08792929351329803,0.9994291663169861,0.5191065073013306,0.473410040140152,-0.012866797856986523,0.9997896552085876,0.47505220770835876,0.4755500853061676,0.012725058011710644,0.9994416832923889,0.5273413062095642,0.5978407263755798,0.058061372488737106,0.9661870002746582,0.47648629546165466,0.5953330993652344,0.09413371980190277,0.9196627736091614,0.5359655022621155,0.6910750865936279,0.25047364830970764,0.9717658162117004,0.48517075181007385,0.6900990605354309,0.2776572108268738,0.917067289352417,0.54556804895401,0.4676576852798462,-0.1325654238462448,0.8879696726799011,0.432944118976593,0.4700341522693634,-0.10205356776714325,0.5094514489173889,-178.45479270007652,0.49707935750484467,0.4744800627231598,145.56298708156132,151.45994786072822,0.7291073785972562,-0.0032689863212994764,-0.020031300151485607,0.08642468883359164,-0.306072168250783,174.10244022020004,0.6776940757813341,62,1762115217.689943
0.48319298028945923,0.16172978281974792,-0.20406825840473175,0.9998921751976013,0.531710147857666,0.2515573501586914,-0.08627285063266754,0.9998812079429626,0.44887208938598633,0.2592538595199585,-0.07501619309186935,0.999474048614502,0.5190691351890564,0.4715126156806946,-0.009007688611745834,0.999791145324707,0.47503042221069336,0.4744223654270172,0.008856622502207756,0.999477207660675,0.5273487567901611,0.5949249267578125,0.049279578030109406,0.9672989845275879,0.47643646597862244,0.5931172966957092,0.07509087026119232,0.9256446957588196,0.5333835482597351,0.6826452016830444,0.2287708818912506,0.9721339344978333,0.48598748445510864,0.690068244934082,0.24759581685066223,0.9230535626411438,0.5453267097473145,0.463086873292923,-0.1047561913728714,0.8825047612190247,0.43295350670814514,0.46849653124809265,-0.09140334278345108,0.544564962387085,-178.22065249494108,0.4970497786998749,0.4729674905538559,141.32781013961363,148.43677253985982,0.6866744248434977,-0.0004659116941253347,-0.02382533921187927,0.04415273874791106,-0.0597619534667224,174.69187042437122,0.8671725022868857,63,1762115217.753429
0.4832046926021576,0.16062697768211365,-0.210423544049263,0.9998998641967773,0.5306945443153381,0.2503553032875061,-0.09981171041727066,0.9998838901519775,0.4497224688529968,0.25772517919540405,-0.08293028920888901,0.9995071291923523,0.5191940069198608,0.47119492292404175,-0.00644597178325057,0.9997947812080383,0.47567519545555115,0.47440096735954285,0.0063151097856462,0.999510645866394,0.5270295739173889,0.5898709297180176,0.06598453223705292,0.967528223991394,0.4772377908229828,0.5899405479431152,0.07880277931690216,0.9309117197990417,0.5297304391860962,0.6782629489898682,0.25533732771873474,0.971916675567627,0.48638850450515747,0.6894769668579102,0.25563958287239075,0.9282011389732361,0.5455752611160278,0.46080097556114197,-0.12017722427845001,0.8848496675491333,0.43460655212402344,0.4687745273113251,-0.09738145023584366,0.5654036998748779,-178.10807012539462,0.497434601187706,0.4727979451417923,146.3488125936195,151.42165263502793,0.7010527566146714,0.005331003174036972,-0.002348737816619271,0.08030552407674708,0.29751855420648937,174.79941066140722,1.2192257939111057,64,1762115217.8256147
0.48341721296310425,0.1602727174758911,-0.22658665478229523,0.9999081492424011,0.5302082896232605,0.24949204921722412,-0.10541798919439316,0.9998865723609924,0.44993337988853455,0.25728026032447815,-0.09776993840932846,0.9995466470718384,0.5190287232398987,0.47116991877555847,-0.003700311528518796,0.9997992515563965,0.4759489893913269,0.47436878085136414,0.0035612795036286116,0.9995463490486145,0.5257211923599243,0.587063193321228,0.07205682247877121,0.9685621857643127,0.47751712799072266,0.5886004567146301,0.07522348314523697,0.936272919178009,0.524101972579956,0.6766494512557983,0.2653774321079254,0.972302258014679,0.4862295091152191,0.6889296770095825,0.2504481375217438,0.9333950877189636,0.5459414720535278,0.45889896154403687,-0.12134633213281631,0.8906827569007874,0.43582040071487427,0.47210007905960083,-0.11613035202026367,0.5967219471931458,-178.06339104702647,0.4974888563156128,0.4727693498134613,147.88300935765238,151.8461874462618,0.7129071191082609,0.0008860570970228871,-0.00046699905772780014,-0.0725917746279757,0.030731251521939104,174.4585500529165,2.091008561894385,65,1762115217.8868468
0.4835590720176697,0.1599857658147812,-0.24784378707408905,0.9999152421951294,0.5301032066345215,0.2490726262331009,-0.11194908618927002,0.9998881816864014,0.45006170868873596,0.25707924365997314,-0.11039076000452042,0.9995819926261902,0.5189810991287231,0.47113466262817383,-0.0015677189221605659,0.9998040795326233,0.47612112760543823,0.474425733089447,0.0014370775315910578,0.9995794296264648,0.525220513343811,0.5860148668289185,0.07672280073165894,0.9694318175315857,0.47783398628234863,0.5881878137588501,0.07261960208415985,0.9410873055458069,0.522731602191925,0.675678014755249,0.28247326612472534,0.9725516438484192,0.4861915707588196,0.6885269284248352,0.254678875207901,0.9379977583885193,0.5455342531204224,0.4584456980228424,-0.12741437554359436,0.894809365272522,0.43623656034469604,0.4746711850166321,-0.13188348710536957,0.6238507032394409,-178.05302945325985,0.4975511133670807,0.4727801978588104,147.66796820615664,150.8607315170832,0.7346647119801537,0.0008964372519670983,0.00015620065089326174,0.00014946351222527436,0.008973432262705994,174.28765796172482,2.544394924573657,66,1762115217.9562962
0.4836445450782776,0.16006189584732056,-0.27145132422447205,0.9999204277992249,0.5302000045776367,0.2490936517715454,-0.11682219803333282,0.9998878836631775,0.4503632187843323,0.25724947452545166,-0.1273994892835617,0.9996105432510376,0.5187599658966064,0.47174564003944397,0.004043449182063341,0.9998093843460083,0.47599488496780396,0.4755665957927704,-0.004163829609751701,0.9996086955070496,0.5248045325279236,0.5860860347747803,0.08828996121883392,0.9700890779495239,0.47800832986831665,0.5886549949645996,0.06839548051357269,0.9454770684242249,0.5214112401008606,0.6766279935836792,0.31192746758461,0.9724936485290527,0.48618727922439575,0.6885218024253845,0.26164186000823975,0.9420163631439209,0.5451505184173584,0.45920059084892273,-0.12959784269332886,0.8959973454475403,0.43767818808555603,0.4800543785095215,-0.1562005877494812,0.6435770392417908,-178.15669671254273,0.4973774254322052,0.4736561179161072,148.26273044197617,149.99400911475843,0.764887879538554,-0.002339705296694544,0.011799292789147108,-0.04359324018326371,0.1568410860852464,174.16711510678985,2.964211453087106,67,1762115218.0305312
0.48375335335731506,0.16010715067386627,-0.2780299186706543,0.9999241232872009,0.5302682518959045,0.24911946058273315,-0.1170145720243454,0.9998892545700073,0.4506283402442932,0.2576674818992615,-0.12140464782714844,0.9996354579925537,0.5188125371932983,0.4721091687679291,0.00024559174198657274,0.9998124241828918,0.4762713313102722,0.4760799705982208,-0.00034611852606758475,0.9996305704116821,0.5242456793785095,0.5868849158287048,0.07457499206066132,0.9711843132972717,0.47636717557907104,0.5912507772445679,0.07075133174657822,0.9495693445205688,0.5208842754364014,0.6783182621002197,0.3069919943809509,0.9729324579238892,0.48616307973861694,0.6884845495223999,0.2835351824760437,0.9458202719688416,0.5448053479194641,0.45959967374801636,-0.14711223542690277,0.8951708078384399,0.43799272179603577,0.4824274778366089,-0.1534668356180191,0.6585991382598877,-178.1590682593222,0.4975419342517853,0.47409456968307495,144.2770154113238,146.17179774714302,0.7764619684582522,0.0020773434089506404,0.005536571781246707,0.05577650510840547,-0.07908282510972493,173.873704090903,2.204191079639317,68,1762115218.109723
0.48382073640823364,0.1599990874528885,-0.28441354632377625,0.9999268054962158,0.5303281545639038,0.24903041124343872,-0.11774414777755737,0.9998871684074402,0.4507690966129303,0.2578611671924591,-0.1196550503373146,0.9996569752693176,0.5188665390014648,0.47200191020965576,-0.002072360599413514,0.9998111724853516,0.4765283465385437,0.4760635793209076,0.001983510795980692,0.9996462464332581,0.5228939056396484,0.587358295917511,0.06615729629993439,0.9725365042686462,0.47530025243759155,0.5922976732254028,0.07105062156915665,0.9534164667129517,0.5202963352203369,0.679450273513794,0.2990020513534546,0.9737306237220764,0.48621803522109985,0.6883586645126343,0.2977849841117859,0.9494193196296692,0.5445683002471924,0.459987610578537,-0.15139713883399963,0.8879050016403198,0.44095295667648315,0.48215365409851074,-0.1510724574327469,0.6699038743972778,-178.14379892092623,0.4976974427700043,0.4740327447652817,142.1136358282369,143.5593012795033,0.7839124302397222,0.0019512319161411528,-0.0007757436968253779,-0.0015823748601060353,-0.07920332317886912,173.66630994503652,1.7180088343677327,69,1762115218.1894207
0.483958899974823,0.15978752076625824,-0.29962867498397827,0.9999309182167053,0.5304024815559387,0.24852171540260315,-0.12725068628787994,0.9998883605003357,0.45073118805885315,0.25747647881507874,-0.1325296014547348,0.9996795058250427,0.5189283490180969,0.4711291491985321,-0.0027399142272770405,0.9998137950897217,0.4766988158226013,0.47528988122940063,0.0026594072114676237,0.9996635913848877,0.5222964286804199,0.5876352787017822,0.06538228690624237,0.9740921854972839,0.4754902422428131,0.5921722650527954,0.07445503771305084,0.9568564891815186,0.5201348066329956,0.679839015007019,0.3019792437553406,0.9747713208198547,0.4861229956150055,0.688280463218689,0.3078087270259857,0.952658474445343,0.5445017218589783,0.46009665727615356,-0.15958240628242493,0.8845795392990112,0.4461509585380554,0.48129063844680786,-0.1704781949520111,0.6836833953857422,-178.11517424843677,0.4978135824203491,0.47320951521396637,141.55967940109352,143.8341396569192,0.8004226975670755,0.0014668860910440524,-0.010397689118016388,-0.006117464207792884,-0.12152867573839858,173.58707723750473,1.710524087304064,70,1762115218.268595
0.48406729102134705,0.1596570611000061,-0.2995277941226959,0.9999346733093262,0.5304600596427917,0.2481350153684616,-0.12946976721286774,0.9998893737792969,0.4507160186767578,0.2571171224117279,-0.13205860555171967,0.9996998906135559,0.5189870595932007,0.4706432819366455,-0.0032115131616592407,0.9998159408569336,0.4767979085445404,0.47482436895370483,0.003132264595478773,0.9996790289878845,0.5218856930732727,0.5876836776733398,0.06266091763973236,0.9755213260650635,0.4754958748817444,0.5921146869659424,0.07443384826183319,0.9599362015724182,0.5199692249298096,0.6800391674041748,0.3012637495994568,0.9757135510444641,0.4860314726829529,0.6881816983222961,0.30812186002731323,0.9555147886276245,0.5445059537887573,0.46021971106529236,-0.16070696711540222,0.8816012144088745,0.44812870025634766,0.4807174801826477,-0.17073167860507965,0.6971759796142578,-178.09929310445224,0.49789248406887054,0.47273382544517517,140.49667716470478,143.53145595360763,0.8003076483512999,0.000910775323510147,-0.005490968961740212,-0.006419282406636237,0.056639116183900697,173.57347793280996,1.6945447288415,71,1762115218.3552263
0.4843464493751526,0.15941151976585388,-0.28413110971450806,0.9999356269836426,0.5305702090263367,0.24659155309200287,-0.11944260448217392,0.9998867511749268,0.4510374069213867,0.2557980716228485,-0.12229222059249878,0.9997146129608154,0.5190510153770447,0.46913909912109375,-0.0032550550531595945,0.9998177289962769,0.4769086241722107,0.4727189242839813,0.003174849320203066,0.9996899962425232,0.5217225551605225,0.5877173542976379,0.05596472695469856,0.9758458137512207,0.47568750381469727,0.5911352634429932,0.07537110894918442,0.9620569348335266,0.519757866859436,0.679034948348999,0.2916964590549469,0.9756467342376709,0.4860200881958008,0.6874827742576599,0.3040998876094818,0.9577004909515381,0.544486403465271,0.45818400382995605,-0.14556743204593658,0.8741120100021362,0.45283380150794983,0.4790043234825134,-0.15645626187324524,0.7073720693588257,-178.12951686385497,0.4979798197746277,0.47092901170253754,137.6836747846221,144.10229495386872,0.7832738658413463,0.0012225535578999362,-0.025264368602505097,0.004364372926565955,-0.2767944665131169,173.39697209462634,1.7147194498384595,72,1762115218.4266634
0.48454028367996216,0.15886534750461578,-0.2791290879249573,0.9999368190765381,0.5305920839309692,0.24584540724754333,-0.11346231400966644,0.9998807907104492,0.45115184783935547,0.25540420413017273,-0.11962486803531647,0.9997278451919556,0.5191680192947388,0.4685943126678467,-0.002387793269008398,0.9998183250427246,0.476982057094574,0.47242575883865356,0.0023143338039517403,0.9996993541717529,0.5218021869659424,0.5874510407447815,0.056066107004880905,0.9762831330299377,0.47591227293014526,0.5905699729919434,0.07549963891506195,0.9640533924102783,0.5198065042495728,0.6785311102867126,0.2908991575241089,0.9756534099578857,0.4860670566558838,0.6868643760681152,0.3060027062892914,0.9597203135490417,0.5441064834594727,0.45727410912513733,-0.12862692773342133,0.8602721691131592,0.4550114572048187,0.4789731800556183,-0.15316787362098694,0.712425708770752,-178.1237570535771,0.49807503819465637,0.4705100357532501,137.3573638414941,144.348029766143,0.7799599279184484,0.0015013984857256712,-0.006606388297832347,0.004396810535857593,0.29419794371399516,173.13876352296293,1.7652207223571754,73,1762115218.4900832
