nose_x,nose_y,nose_z,nose_visibility,left_shoulder_x,left_shoulder_y,left_shoulder_z,left_shoulder_visibility,right_shoulder_x,right_shoulder_y,right_shoulder_z,right_shoulder_visibility,left_hip_x,left_hip_y,left_hip_z,left_hip_visibility,right_hip_x,right_hip_y,right_hip_z,right_hip_visibility,left_knee_x,left_knee_y,left_knee_z,left_knee_visibility,right_knee_x,right_knee_y,right_knee_z,right_knee_visibility,left_ankle_x,left_ankle_y,left_ankle_z,left_ankle_visibility,right_ankle_x,right_ankle_y,right_ankle_z,right_ankle_visibility,left_wrist_x,left_wrist_y,left_wrist_z,left_wrist_visibility,right_wrist_x,right_wrist_y,right_wrist_z,right_wrist_visibility,trunk_lateral_inclination,center_mass_x,center_mass_y,left_knee_angle,right_knee_angle,person_height,center_mass_velocity_x,center_mass_velocity_y,center_mass_acceleration_x,center_mass_acceleration_y,body_orientation,torso_leg_ratio,frame,timestamp
0.5024429559707642,0.3544570505619049,-0.30026304721832275,0.9999816417694092,0.526929497718811,0.4332887530326843,-0.09540574252605438,0.9999786615371704,0.455157607793808,0.43512216210365295,-0.160508394241333,0.9999743700027466,0.5125041007995605,0.6333948969841003,0.025993671268224716,0.9997292160987854,0.47148483991622925,0.6374906897544861,-0.02606266364455223,0.9998618364334106,0.5179224610328674,0.7903912663459778,-1.63170880114194e-05,0.9597935676574707,0.4767104983329773,0.7870156764984131,-0.03640570119023323,0.9655576944351196,0.5063427090644836,0.8067672848701477,0.3242863416671753,0.4085635840892792,0.4714289605617523,0.8922043442726135,0.12942443788051605,0.899491012096405,0.5452354550361633,0.6277774572372437,-0.07676495611667633,0.959308922290802,0.4331068992614746,0.6490631699562073,-0.18301527202129364,0.9573008418083191,-179.72925918789633,0.4919944703578949,0.6354427933692932,83.4219965035298,118.33851650036385,0.7232503849621504,0.0,0.0,0.0,0.0,178.53670062537344,0.11277960780711226,0,1762115223.285014
0.5026895403862,0.3553991913795471,-0.35361629724502563,0.9999823570251465,0.5284910202026367,0.4328565299510956,-0.12649671733379364,0.9999781250953674,0.45515918731689453,0.43399590253829956,-0.177100270986557,0.9999749064445496,0.5130919814109802,0.633310079574585,0.02600053884088993,0.999731183052063,0.4719861149787903,0.6370660662651062,-0.026069674640893936,0.9998644590377808,0.5184049010276794,0.7919382452964783,0.0171939916908741,0.9570857286453247,0.47607144713401794,0.7857583165168762,-0.04547814279794693,0.9662964940071106,0.510918140411377,0.82356196641922,0.3431682586669922,0.4209461212158203,0.47105783224105835,0.8924531936645508,0.12228624522686005,0.9010531902313232,0.5453885793685913,0.6278284192085266,-0.12476390600204468,0.959409236907959,0.43294692039489746,0.6502200365066528,-0.20012204349040985,0.957840085029602,-179.79725686072697,0.49253904819488525,0.6351880729198456,92.31768402938954,114.95621710686176,0.7723670606649311,0.008081793607099135,-0.0037801723832909923,0.11993765348350942,-0.0560995525815988,179.1098546748832,0.114209405179155,1,1762115223.3523972
0.5028148889541626,0.3568008542060852,-0.35375526547431946,0.9999833703041077,0.5322304964065552,0.43297719955444336,-0.14254096150398254,0.9999790787696838,0.45531564950942993,0.4338425397872925,-0.1743883639574051,0.9999746680259705,0.5140236616134644,0.6332264542579651,0.01933128573000431,0.9997366666793823,0.4720216691493988,0.6363033652305603,-0.019404616206884384,0.9998579621315002,0.5184165239334106,0.794073224067688,-0.001222756109200418,0.9572913646697998,0.4756789803504944,0.7855796217918396,-0.015892039984464645,0.9665298461914062,0.5191378593444824,0.8422055840492249,0.30062004923820496,0.44926702976226807,0.47107475996017456,0.8925284743309021,0.17057786881923676,0.90351402759552,0.5458978414535522,0.627848744392395,-0.14326700568199158,0.9611766934394836,0.432560533285141,0.6502236723899841,-0.1957603543996811,0.9582218527793884,179.78647175662996,0.4930226653814316,0.6347649097442627,91.78101179642891,121.12963969703975,0.7797920512368686,0.005650778903851618,-0.004944409776970521,-0.02840495950560742,-0.013603420817736562,179.35541376677895,0.3863216443057843,2,1762115223.4379814
0.5033753514289856,0.3576183021068573,-0.33793896436691284,0.999984860420227,0.5359514951705933,0.43302127718925476,-0.15164461731910706,0.9999806880950928,0.45653802156448364,0.43307653069496155,-0.17298352718353271,0.9999755620956421,0.5160357356071472,0.6332139372825623,0.009095942601561546,0.9997482895851135,0.4725349545478821,0.6355295181274414,-0.009230220690369606,0.999852180480957,0.5177167654037476,0.7916572690010071,0.009343469515442848,0.9602802991867065,0.47568804025650024,0.7853670120239258,0.01569375768303871,0.9684250950813293,0.5266360640525818,0.869564414024353,0.24487538635730743,0.5012868642807007,0.4711773991584778,0.8926498293876648,0.2000560313463211,0.9107452630996704,0.5482175350189209,0.6281288266181946,-0.15296950936317444,0.9640998244285583,0.43218016624450684,0.6463873386383057,-0.18586966395378113,0.9603817462921143,179.44237535948983,0.49428534507751465,0.6343717277050018,108.40139019315437,129.5848818316459,0.7668858523755853,0.013605218269208538,-0.004236488066031798,0.08570810484288159,0.0076277692788680514,179.9601353268445,0.8884903293674113,3,1762115223.5307899
0.5043045282363892,0.3578181862831116,-0.3336055278778076,0.9999861717224121,0.5395675301551819,0.4342942535877228,-0.1591183990240097,0.9999821186065674,0.4584294259548187,0.43308767676353455,-0.17252907156944275,0.9999756813049316,0.518074095249176,0.633737325668335,0.002203651936724782,0.9997587203979492,0.47308048605918884,0.6350746750831604,-0.002359188161790371,0.9998412728309631,0.5176277160644531,0.7915737628936768,0.01678989641368389,0.9632930159568787,0.4757172465324402,0.7853720784187317,0.02963116765022278,0.9700723886489868,0.5296772718429565,0.8909149169921875,0.20898790657520294,0.5496851205825806,0.47147607803344727,0.8945982456207275,0.2059701383113861,0.9170649647712708,0.5527217984199524,0.6341623663902283,-0.15668727457523346,0.9665551781654358,0.4306911528110504,0.6454504132270813,-0.17474699020385742,0.9617326855659485,179.0234881069885,0.49557729065418243,0.6344060003757477,122.54438727875132,133.74132254121128,0.7608846653445944,0.016373557557206698,0.00043435695530127,0.035084730725905906,0.059196262736425774,-179.1480369773,0.8760608861977681,4,1762115223.6096942
0.5048667788505554,0.35790249705314636,-0.33026641607284546,0.9999873638153076,0.5400808453559875,0.43513360619544983,-0.15361012518405914,0.999983549118042,0.45902055501937866,0.4332636594772339,-0.1630783975124359,0.9999755024909973,0.5192661285400391,0.6340430974960327,0.0012132530100643635,0.9997658133506775,0.4735424518585205,0.6348886489868164,-0.0013487394899129868,0.9998274445533752,0.5176253914833069,0.7915688157081604,0.01627962850034237,0.9661898016929626,0.475761741399765,0.7854092121124268,0.02389509230852127,0.9717698097229004,0.5310589075088501,0.8886080384254456,0.21336480975151062,0.5932421088218689,0.4715845584869385,0.8956423401832581,0.2012804001569748,0.9229167103767395,0.5535333156585693,0.6354623436927795,-0.1555197536945343,0.9691511988639832,0.43012911081314087,0.6437010169029236,-0.1704161912202835,0.9628788828849792,179.09989680870086,0.4964042901992798,0.6344658732414246,121.56635020753347,131.3394793355621,0.7578973596702172,0.01175579200303665,0.0008510923128020551,-0.06564150088766987,0.005923889816062295,-178.67850145520976,0.6796925429441734,5,1762115223.6800425
0.5061412453651428,0.3578844368457794,-0.3327638506889343,0.999988317489624,0.542812705039978,0.436337411403656,-0.15561218559741974,0.9999845623970032,0.46188482642173767,0.43327221274375916,-0.1631428301334381,0.999974250793457,0.5200810432434082,0.6350727677345276,0.002332663396373391,0.9997719526290894,0.47437459230422974,0.6344001889228821,-0.0024588839150965214,0.9998124241828918,0.5183227062225342,0.7916713356971741,0.01644480600953102,0.9685105681419373,0.47598379850387573,0.7853819727897644,0.02581528201699257,0.9731003642082214,0.5309381484985352,0.896187424659729,0.2113220989704132,0.6322129368782043,0.4719955325126648,0.8959502577781677,0.20958992838859558,0.9276971817016602,0.5558244585990906,0.6390314698219299,-0.15721485018730164,0.9706326723098755,0.428825318813324,0.6386246681213379,-0.1732594072818756,0.9617860913276672,178.53277586237405,0.49722781777381897,0.6347364783287048,123.24655354397454,131.61206301346596,0.7646908684009235,0.011118988833127851,0.0036536177253573944,-0.008597899516696083,0.037838743631865054,-177.8309200635344,1.186891491848455,6,1762115223.7541075
0.5080970525741577,0.3578803539276123,-0.31299832463264465,0.9999889731407166,0.5477423667907715,0.4390166699886322,-0.15254774689674377,0.9999850392341614,0.4656371474266052,0.433771014213562,-0.15511007606983185,0.9999724626541138,0.523018479347229,0.6371682286262512,0.000280178792309016,0.9997802376747131,0.4763631820678711,0.6342540979385376,-0.00043369270861148834,0.9998027086257935,0.5202363729476929,0.7928634881973267,0.014959861524403095,0.9707127213478088,0.47701001167297363,0.7853592038154602,0.03687487542629242,0.9743666648864746,0.5322275161743164,0.9069679379463196,0.1799165904521942,0.667833149433136,0.4727415144443512,0.8962122797966003,0.20883873105049133,0.9323167204856873,0.5595466494560242,0.6451534628868103,-0.14877314865589142,0.9705280065536499,0.42818889021873474,0.6345694661140442,-0.16107411682605743,0.9602446556091309,177.98891413447836,0.49969083070755005,0.6357111632823944,129.88447547624762,136.6533738473336,0.7436949567800094,0.027071584679405875,0.010713003532457731,0.17533892875448712,0.07759145640052036,-176.34437374380062,1.8121028207504688,7,1762115223.845089
0.5111309289932251,0.35792076587677,-0.2749079167842865,0.9999893307685852,0.5516082048416138,0.4407956898212433,-0.14384980499744415,0.9999854564666748,0.4687303900718689,0.43627628684043884,-0.13099105656147003,0.9999651908874512,0.5259169340133667,0.6397504806518555,-0.0011304402723908424,0.9997819662094116,0.47848811745643616,0.6342262029647827,0.0009534830460324883,0.9997780323028564,0.5213415622711182,0.7952728271484375,0.007958943024277687,0.9725356101989746,0.47808584570884705,0.7853919863700867,0.02856125496327877,0.975247323513031,0.5323517918586731,0.9090377688407898,0.159958615899086,0.6997601389884949,0.47352585196495056,0.8963848352432251,0.203290656208992,0.936190664768219,0.5643981695175171,0.6490643620491028,-0.1304139643907547,0.9701542258262634,0.4282301068305969,0.6355022192001343,-0.11937874555587769,0.9526057839393616,177.70112363961377,0.5022025257349014,0.6369883418083191,129.92746968406013,132.76461441574506,0.7108345874496532,0.03766360811989646,0.019151668883263976,0.15883051712694465,0.12654027713025023,-176.87870018524333,2.469460793089271,8,1762115223.9117765
0.5130957365036011,0.35818639397621155,-0.32497477531433105,0.9999890327453613,0.5553287863731384,0.44316866993904114,-0.17217066884040833,0.999984622001648,0.4714175760746002,0.4388448894023895,-0.15455730259418488,0.999947726726532,0.5294758081436157,0.6415069699287415,-0.0026907494757324457,0.9997723698616028,0.48130518198013306,0.6337592601776123,0.0025155218318104744,0.9997314810752869,0.5225256681442261,0.7957576513290405,0.00521723460406065,0.9738934636116028,0.479966402053833,0.7849932909011841,0.030003661289811134,0.9760210514068604,0.5318042635917664,0.9095597267150879,0.18602296710014343,0.7284229397773743,0.47366198897361755,0.8978303670883179,0.20699307322502136,0.9398460984230042,0.5715577602386475,0.6543151140213013,-0.15402275323867798,0.9619956016540527,0.4299296736717224,0.6363231539726257,-0.14316034317016602,0.9258134961128235,177.67516803185987,0.5053904950618744,0.6376331150531769,124.90558333614703,132.81336301422002,0.7547392795433341,0.04593737224170924,0.009290926455886243,0.11922165595761886,-0.14208938324264758,-177.0502693547695,5.364379716536155,9,1762115223.9811747
0.5143312215805054,0.35800692439079285,-0.3301476538181305,0.9999886751174927,0.5550354719161987,0.44286930561065674,-0.17085875570774078,0.9999836683273315,0.4721941351890564,0.43933674693107605,-0.15848498046398163,0.9999334216117859,0.5301852822303772,0.642090380191803,-0.0026558288373053074,0.9997679591178894,0.4822862148284912,0.6337458491325378,0.002486265730112791,0.9996973872184753,0.5234434604644775,0.7965018153190613,0.005497238598763943,0.975458562374115,0.48058706521987915,0.7849814295768738,0.03759700432419777,0.9768774509429932,0.531576931476593,0.9110002517700195,0.19154426455497742,0.7544986605644226,0.4737747311592102,0.8981323838233948,0.2170625627040863,0.9435493350028992,0.5711919665336609,0.6522238254547119,-0.15455195307731628,0.9537284970283508,0.4307919442653656,0.6353529095649719,-0.1454795002937317,0.9042123556137085,177.8528537679251,0.5062357485294342,0.6379181146621704,124.45298678301612,135.29472601389134,0.7645266261801222,0.012421429922848915,0.004188214313243219,-0.49253383131789313,-0.0749869521142488,-177.55824610701674,11.153879445549654,10,1762115224.0492227
0.5164913535118103,0.3579995334148407,-0.30899277329444885,0.9999890923500061,0.5577622652053833,0.4436034858226776,-0.16122844815254211,0.9999840259552002,0.4745810925960541,0.4406473934650421,-0.1496877372264862,0.9999216198921204,0.5325586795806885,0.6446353197097778,-0.0031609260477125645,0.9997754096984863,0.4841446876525879,0.633985698223114,0.0029657052364200354,0.9996891021728516,0.5254974961280823,0.7971959710121155,0.011953087523579597,0.9770658612251282,0.4820585250854492,0.7850205898284912,0.047949593514204025,0.9779152274131775,0.5318026542663574,0.9078192710876465,0.20274457335472107,0.7781793475151062,0.4740366041660309,0.8979845643043518,0.22898666560649872,0.9474130272865295,0.5803662538528442,0.6553578972816467,-0.14843517541885376,0.9525015950202942,0.43237248063087463,0.6354839205741882,-0.12901487946510315,0.8887612223625183,177.72894543147416,0.5083516836166382,0.6393105089664459,125.60901626850462,138.5386019671145,0.7566895879831209,0.031645349583523504,0.020824270452989502,0.2875077131177476,0.24880433025431595,-177.96467924139318,9.099563208925488,11,1762115224.1160867
0.5179054737091064,0.3580334186553955,-0.31319838762283325,0.9999893307685852,0.5601827502250671,0.44347459077835083,-0.17394791543483734,0.9999843835830688,0.4767313003540039,0.4409312903881073,-0.15114465355873108,0.9999067783355713,0.5354809165000916,0.6446149349212646,-0.004815055988729,0.9997804760932922,0.4867390990257263,0.6337133646011353,0.0045906295999884605,0.9996771812438965,0.5267643332481384,0.7964635491371155,0.014292659237980843,0.9784390330314636,0.4846102297306061,0.7848919630050659,0.054317377507686615,0.9787423610687256,0.5320051908493042,0.9055824875831604,0.20525474846363068,0.7994472980499268,0.4744594097137451,0.8969624042510986,0.2368120700120926,0.9507893323898315,0.586296021938324,0.6555824279785156,-0.1544525921344757,0.9524185657501221,0.43711328506469727,0.6352418065071106,-0.11700506508350372,0.8676397800445557,177.86375185805167,0.5111100077629089,0.6391641497612,126.73646096890383,139.73384277753948,0.7620548244947457,0.0351777243979567,-0.001866562271953296,0.045049421715143596,-0.28938290702249597,-178.25437079688643,2.9914795370382583,12,1762115224.1944978
0.5185211896896362,0.3581264913082123,-0.28058546781539917,0.9999896883964539,0.5621879696846008,0.4445759356021881,-0.16588693857192993,0.99998539686203,0.47903090715408325,0.4409647285938263,-0.12850674986839294,0.9998927712440491,0.5368291139602661,0.6452083587646484,-0.0067480700090527534,0.9997952580451965,0.48826637864112854,0.6336507201194763,0.0065341852605342865,0.999683141708374,0.5283309817314148,0.7959015965461731,0.009137970395386219,0.9796242117881775,0.48629823327064514,0.785123348236084,0.057875316590070724,0.9792775511741638,0.5319977402687073,0.9077469110488892,0.16455841064453125,0.818569540977478,0.47454071044921875,0.8938713073730469,0.23677857220172882,0.9528415203094482,0.5895987749099731,0.6567206978797913,-0.15047502517700195,0.9554194808006287,0.4438949525356293,0.6283918023109436,-0.050623077899217606,0.8442444205284119,177.65257641298177,0.5125477463006973,0.6394295394420624,131.5843466004349,139.96448039228707,0.725494603337952,0.02015559614690429,0.003720486784229314,-0.21059458471563747,0.0783246059485773,-177.51341622389765,1.992321000736395,13,1762115224.2658298
0.5193079113960266,0.35885801911354065,-0.2454674243927002,0.9999902248382568,0.5633102655410767,0.44524526596069336,-0.1532035917043686,0.999986469745636,0.48122701048851013,0.44085031747817993,-0.10760989040136337,0.999893307685852,0.5374068021774292,0.6472920179367065,-0.009718656539916992,0.9998112320899963,0.4892471432685852,0.6346436142921448,0.00951552577316761,0.9997004270553589,0.5287027955055237,0.795880138874054,0.007072098553180695,0.9809343218803406,0.4871732294559479,0.7869272828102112,0.0733029693365097,0.9801200032234192,0.5325976610183716,0.9063317775726318,0.1535421907901764,0.8357264399528503,0.4773673117160797,0.8884562849998474,0.2452758252620697,0.9553849697113037,0.5895489454269409,0.6631240248680115,-0.13561394810676575,0.9588123559951782,0.4516521096229553,0.6249060034751892,-0.025685857981443405,0.8401322364807129,177.41324026624525,0.5133269727230072,0.6409678161144257,133.26378257611773,143.24237445346753,0.6986710916667649,0.010213636150564852,0.020162815043985063,-0.1303132942092423,0.2155162524077144,-176.93516320712519,3.024382315084717,14,1762115224.3421226
0.5192998647689819,0.35895660519599915,-0.24164696037769318,0.9999906420707703,0.5635818243026733,0.4464254677295685,-0.14973978698253632,0.9999874234199524,0.4816698133945465,0.44082343578338623,-0.10416784137487411,0.9998910427093506,0.5378260016441345,0.647682249546051,-0.011185603216290474,0.9998254776000977,0.49000659584999084,0.6350383162498474,0.010984392836689949,0.9997148513793945,0.5289664268493652,0.79532790184021,0.005983372684568167,0.9821509718894958,0.4876003861427307,0.7882744669914246,0.07548733055591583,0.9808845520019531,0.5328730940818787,0.9057489037513733,0.15053525567054749,0.8513078689575195,0.47811761498451233,0.8860811591148376,0.243605375289917,0.9578441977500916,0.5899448990821838,0.66567063331604,-0.13280722498893738,0.962011992931366,0.451995849609375,0.6241238713264465,-0.01879524067044258,0.8338999152183533,177.47796641106373,0.5139162987470627,0.6413602828979492,133.79430439259949,142.98436908910668,0.6935328140369992,0.008389490958212278,0.005587054359336392,-0.02596805328974847,-0.20749671231456412,-176.08758527797025,3.122752898673016,15,1762115224.4123683
0.5191707015037537,0.3590368926525116,-0.23266112804412842,0.9999900460243225,0.5642002820968628,0.44635453820228577,-0.14816144108772278,0.9999881386756897,0.4827389717102051,0.43975168466567993,-0.09309131652116776,0.9998909831047058,0.5377153158187866,0.6484187841415405,-0.015319682657718658,0.9998361468315125,0.4904199242591858,0.6364138126373291,0.015145689249038696,0.999723494052887,0.5300354957580566,0.7947824001312256,0.002636661985889077,0.9832944273948669,0.4879570007324219,0.7898887395858765,0.08353963494300842,0.9816441535949707,0.5334755182266235,0.9044232964515686,0.14142832159996033,0.8651371002197266,0.48217272758483887,0.8848474025726318,0.24162963032722473,0.9602542519569397,0.5920171141624451,0.6657397150993347,-0.12479645013809204,0.9650219082832336,0.4578471779823303,0.6225755214691162,0.0104228425770998,0.8336215019226074,177.29992038790027,0.5140676200389862,0.6424162983894348,135.1282335642381,145.00535849276747,0.6833240052671462,0.002136383526600131,0.014909032768399616,-0.08828259088422692,0.13160951017064984,-175.36601624474014,8.01449474144886,16,1762115224.483199
0.5187312960624695,0.3595699667930603,-0.2426401674747467,0.9999880194664001,0.564275860786438,0.44684261083602905,-0.16394777595996857,0.9999886751174927,0.48399338126182556,0.4383694529533386,-0.10702948272228241,0.9998838901519775,0.5373226404190063,0.6489506959915161,-0.017431672662496567,0.9998407363891602,0.4909326434135437,0.6380205750465393,0.017311055213212967,0.9997081756591797,0.5306962728500366,0.7945833206176758,0.0025962425861507654,0.9840728640556335,0.4879826009273529,0.7916138768196106,0.09047146141529083,0.9816519618034363,0.5333554744720459,0.9035980105400085,0.1614060401916504,0.8770505785942078,0.4887768626213074,0.8816277384757996,0.2729070782661438,0.9610978960990906,0.5930594801902771,0.6653216481208801,-0.13773047924041748,0.967585563659668,0.461749792098999,0.6215407252311707,-0.0199439637362957,0.8290602564811707,177.14812216397843,0.514127641916275,0.6434856355190277,132.19024282883896,141.71158918152386,0.7039932709424956,0.0008980198973385793,0.01599893343416364,-0.01852783067524049,0.016306595664594317,-173.97520410094947,5.79197531145878,17,1762115224.550037
0.5185548067092896,0.3596852719783783,-0.2919771075248718,0.9999869465827942,0.5644001364707947,0.44731494784355164,-0.17916397750377655,0.99998939037323,0.4847165048122406,0.43821609020233154,-0.11095163971185684,0.9998811483383179,0.5373870134353638,0.6493117213249207,-0.021062597632408142,0.9998403191566467,0.49183526635169983,0.6409157514572144,0.020985370501875877,0.9996801018714905,0.5315855145454407,0.7945213317871094,-0.0003099727618973702,0.9848148226737976,0.48777443170547485,0.792264997959137,0.08848181366920471,0.981662929058075,0.5331836342811584,0.9044089317321777,0.1699446141719818,0.8876972794532776,0.4949178695678711,0.8826248049736023,0.2837950587272644,0.9615023732185364,0.5928991436958313,0.666827380657196,-0.16957955062389374,0.9702675342559814,0.46364933252334595,0.6218252182006836,-0.032514188438653946,0.8305454850196838,177.18567797752144,0.5146111398935318,0.6451137363910675,130.90709575309748,138.73413019011397,0.7444451699547365,0.007474393516095504,0.025168805608179332,0.10166413645481187,0.14175702142490626,-173.4857651235747,2.27531657139914,18,1762115224.6147242
0.5163842439651489,0.35967713594436646,-0.3005427420139313,0.9999820590019226,0.5635619163513184,0.44748297333717346,-0.19262877106666565,0.9999889731407166,0.48643428087234497,0.43799540400505066,-0.10268823057413101,0.9998716711997986,0.5371376276016235,0.6489906907081604,-0.02729550376534462,0.9998384118080139,0.492516428232193,0.6413765549659729,0.027222976088523865,0.9996532201766968,0.5320110321044922,0.7945024967193604,-0.0020737808663398027,0.9852185249328613,0.48779210448265076,0.7923234701156616,0.09480631351470947,0.9806066751480103,0.5330466032028198,0.9042572975158691,0.19379791617393494,0.8966435194015503,0.502265989780426,0.8830586671829224,0.31479954719543457,0.9594489932060242,0.5914273262023926,0.6715087294578552,-0.19581913948059082,0.9689933657646179,0.4640501141548157,0.622715950012207,-0.057352107018232346,0.8139748573303223,177.123804187483,0.5148270279169083,0.6451836228370667,129.05538145195783,136.2516551739804,0.7700559871730844,0.0032329586838234243,0.0010465610316904928,-0.0635161847257898,-0.3612345828970789,-172.98720311042285,1.3114269137846757,19,1762115224.6898334
0.514928936958313,0.3598347008228302,-0.30764132738113403,0.9999760389328003,0.5630868673324585,0.4474961459636688,-0.19999545812606812,0.9999884366989136,0.487060546875,0.43771857023239136,-0.10435713827610016,0.9998583793640137,0.5369881987571716,0.6480330228805542,-0.02824476920068264,0.9998372197151184,0.4929651618003845,0.6411715745925903,0.028169605880975723,0.9996280074119568,0.5322893857955933,0.7944450974464417,-0.0036439814139157534,0.9856691956520081,0.48777446150779724,0.7925738096237183,0.09007254242897034,0.9799796938896179,0.5330246686935425,0.9041802287101746,0.19602668285369873,0.9049983024597168,0.5043572187423706,0.8828749060630798,0.3184644281864166,0.9572319388389587,0.5911155939102173,0.6730974912643433,-0.2028312236070633,0.9675048589706421,0.46488112211227417,0.6216915845870972,-0.06553218513727188,0.7964867949485779,177.13836443581033,0.5149766802787781,0.6446022987365723,128.29864016234316,133.4880350138709,0.7771353929591466,0.0022483415598650324,-0.008733675289600184,-0.014792653939376236,-0.14693594883312713,-172.6715448539849,1.1659357308291165,20,1762115224.7480626
0.5121226906776428,0.3612360656261444,-0.3059309124946594,0.9999673962593079,0.5629359483718872,0.4482059180736542,-0.2071104347705841,0.9999860525131226,0.4882042407989502,0.4374377429485321,-0.10276313126087189,0.9998477101325989,0.5368615984916687,0.6481320858001709,-0.03157147392630577,0.9998246431350708,0.49317580461502075,0.6420682072639465,0.031484365463256836,0.9995939135551453,0.5320554971694946,0.7947779893875122,0.016017001122236252,0.9855248332023621,0.4886912405490875,0.7925240397453308,0.11890323460102081,0.9784834980964661,0.5325450301170349,0.9053967595100403,0.21836650371551514,0.9120298027992249,0.504676103591919,0.8859261274337769,0.3192971348762512,0.957139253616333,0.5891255140304565,0.6787909865379333,-0.2074218988418579,0.9626134634017944,0.46509283781051636,0.6217846274375916,-0.0712747573852539,0.7794421315193176,177.01400092448105,0.5150187015533447,0.6451001465320587,136.60628465164982,144.7200616312233,0.7848597166871294,0.0006448320144003337,0.007639658723799698,-0.02460644759054454,0.251254871804612,-171.80062223807062,1.2807889587310093,21,1762115224.8132288
0.5090163946151733,0.36349567770957947,-0.2844765782356262,0.9999582171440125,0.561969518661499,0.4482349753379822,-0.21170273423194885,0.9999837279319763,0.4909454882144928,0.43569216132164,-0.08310654014348984,0.9998350739479065,0.5367920398712158,0.6478866338729858,-0.03954412788152695,0.9997875094413757,0.49342766404151917,0.6419086456298828,0.03945238143205643,0.9995303750038147,0.532028317451477,0.7953141331672668,0.008265072479844093,0.9848478436470032,0.4916455149650574,0.7924649715423584,0.10838937759399414,0.9763232469558716,0.5323232412338257,0.9076554179191589,0.1880885660648346,0.918118417263031,0.5057607889175415,0.8926588892936707,0.2861793637275696,0.9566771388053894,0.5839552283287048,0.685749888420105,-0.20117302238941193,0.9626850485801697,0.46474558115005493,0.6159927248954773,-0.03998333215713501,0.7713473439216614,176.79947213862647,0.5151098519563675,0.6448976397514343,139.92351316377577,143.73928639390311,0.7484541478832679,0.0014337561081713551,-0.0031853433889240993,0.012409432112387242,-0.1702725647434507,-169.98485282731326,1.5747288082514077,22,1762115224.8768034
0.5054582357406616,0.3642180263996124,-0.2572420835494995,0.9999468326568604,0.5588913559913635,0.44876834750175476,-0.2151508629322052,0.9999797940254211,0.49326008558273315,0.43364331126213074,-0.0660899430513382,0.9998328685760498,0.5346123576164246,0.6498086452484131,-0.04421001300215721,0.9997561573982239,0.49316829442977905,0.6422661542892456,0.044127266854047775,0.9995036721229553,0.5317298769950867,0.797055721282959,0.01604948192834854,0.9852120280265808,0.4935780465602875,0.7923949360847473,0.12858060002326965,0.9751815795898438,0.5320352911949158,0.9090369343757629,0.18810050189495087,0.9236819744110107,0.5058358311653137,0.8942887783050537,0.2924959659576416,0.9571934342384338,0.575363039970398,0.6932363510131836,-0.20410189032554626,0.9635682702064514,0.463653028011322,0.6134046316146851,-0.026902366429567337,0.7733981609344482,176.59549640828294,0.5138903260231018,0.6460373997688293,145.29596932625637,151.0309158521732,0.7325127651072079,-0.015223762768161146,0.014228017333746042,-0.2079415523377846,0.21737698675128653,-167.02249323454464,1.939546672232189,23,1762115224.9569101
0.503987729549408,0.3642199635505676,-0.2576785683631897,0.9999474883079529,0.5544179081916809,0.44899365305900574,-0.21242079138755798,0.9999794960021973,0.494439035654068,0.43189823627471924,-0.04565368965268135,0.9998335838317871,0.5306843519210815,0.6528971195220947,-0.048765819519758224,0.9997441172599792,0.4930797219276428,0.6435388922691345,0.048713020980358124,0.9994950890541077,0.5302385091781616,0.7995795607566833,0.015794072300195694,0.9860391616821289,0.4934311509132385,0.7922855019569397,0.13690535724163055,0.9738450050354004,0.531999409198761,0.9093940854072571,0.19041921198368073,0.9286872148513794,0.5063191652297974,0.8938974142074585,0.3088473379611969,0.9579553604125977,0.5624461770057678,0.7050984501838684,-0.2103842794895172,0.9661343693733215,0.4633314609527588,0.6057096719741821,0.01281765103340149,0.7766611576080322,176.54435767765847,0.5118820369243622,0.6482180058956146,145.91160089473593,151.0417880782479,0.7392035973155845,-0.02501663147328124,0.02716313099364143,-0.12198671377341411,0.16112867997824207,-164.0911775013978,1.7127169963299185,24,1762115225.0371883
0.5028077363967896,0.3645157217979431,-0.25618526339530945,0.9999487400054932,0.5528141260147095,0.4491657316684723,-0.21139922738075256,0.999979555606842,0.4946743845939636,0.4314636290073395,-0.04137339070439339,0.9998341798782349,0.5293530225753784,0.6549826264381409,-0.04983850196003914,0.999735951423645,0.49300259351730347,0.6450347900390625,0.04978788644075394,0.999488115310669,0.5296674966812134,0.8003299236297607,0.015887606889009476,0.9866759181022644,0.4933904707431793,0.7920425534248352,0.13873343169689178,0.9729171991348267,0.5318767428398132,0.9091300964355469,0.19262564182281494,0.9333029985427856,0.5067036747932434,0.8936353325843811,0.3113703429698944,0.9588987827301025,0.560206413269043,0.7076898813247681,-0.21396324038505554,0.9684565663337708,0.4631977081298828,0.6037644743919373,0.00916023924946785,0.7794398069381714,176.57050641171287,0.5111778080463409,0.6500087082386017,145.94363055178044,151.4331434024237,0.7394241416316704,-0.011093980048676422,0.028209601574471922,0.21932871819065566,0.016485441179124937,-163.06581394768958,1.6189233227702295,25,1762115225.1006668
0.5009954571723938,0.364602267742157,-0.26115721464157104,0.9999479055404663,0.5506026744842529,0.44882842898368835,-0.2204093039035797,0.9999770522117615,0.4944584369659424,0.43069785833358765,-0.05140798166394234,0.9998301267623901,0.527216374874115,0.6552821397781372,-0.05015261098742485,0.9997124075889587,0.49294590950012207,0.6457096934318542,0.05007051303982735,0.9994663596153259,0.5271117091178894,0.8015068173408508,-0.005849781446158886,0.987106204032898,0.4934263229370117,0.791756272315979,0.12959875166416168,0.971808671951294,0.5321411490440369,0.9090584516525269,0.16675689816474915,0.9375514984130859,0.5077364444732666,0.8933524489402771,0.3022915720939636,0.9598628282546997,0.5510146617889404,0.7081798911094666,-0.2152327001094818,0.968961238861084,0.46316567063331604,0.6060234308242798,-0.014741773717105389,0.7749944925308228,176.61907943154264,0.5100811421871185,0.6504959166049957,138.75919683802744,148.81635025240956,0.730754353588833,-0.013820533621777537,0.006139955531518538,-0.03436089945878342,-0.27812873227733775,-162.1032565700798,1.2873224907078242,26,1762115225.1800172
0.4987693428993225,0.3636940121650696,-0.2454984188079834,0.9999501705169678,0.5476507544517517,0.44871172308921814,-0.22565814852714539,0.999978244304657,0.4954078197479248,0.4292428195476532,-0.024072423577308655,0.999824047088623,0.5231046676635742,0.6587067246437073,-0.05627621337771416,0.9997215270996094,0.4918813109397888,0.6479464769363403,0.0561610572040081,0.9994784593582153,0.5253347158432007,0.8055514097213745,-0.006955286953598261,0.9866963028907776,0.49412912130355835,0.7917172908782959,0.1454993188381195,0.9699587225914001,0.5354301333427429,0.9089265465736389,0.17274627089500427,0.9408342242240906,0.508404016494751,0.8913098573684692,0.30234020948410034,0.9599391222000122,0.5359824895858765,0.706779420375824,-0.2270233929157257,0.9713738560676575,0.46278324723243713,0.6001235246658325,0.020988894626498222,0.7709042429924011,176.25343331483037,0.5074929893016815,0.6533266007900238,138.451052471327,154.04331079385824,0.7222298617709888,-0.039662183639691775,0.043378857796338315,-0.39601071263226306,0.5706680577018646,-159.56153820756268,1.1518232164724063,27,1762115225.2452722
0.49575042724609375,0.3627496063709259,-0.2495095431804657,0.9999526739120483,0.5447864532470703,0.4486926198005676,-0.241173654794693,0.999979555606842,0.49729233980178833,0.43037688732147217,-0.030394205823540688,0.9998145699501038,0.524098813533783,0.661690890789032,-0.05821369215846062,0.999725878238678,0.49231529235839844,0.6530398726463318,0.05811641365289688,0.9994828701019287,0.5208428502082825,0.8111125230789185,0.006552339997142553,0.9868765473365784,0.4969731867313385,0.7935576438903809,0.15570315718650818,0.9682056307792664,0.5368909239768982,0.9074124097824097,0.17262321710586548,0.9445833563804626,0.5086816549301147,0.8904719948768616,0.3067986071109772,0.9597959518432617,0.5212725400924683,0.703769862651825,-0.25578492879867554,0.9738864898681641,0.4627161920070648,0.6009795665740967,0.061068080365657806,0.763242781162262,176.62861743930844,0.5082070529460907,0.6573653817176819,143.09664785288066,157.37247568702404,0.7263402038158869,0.0127563515556786,0.0721505845773793,0.9364281016422802,0.5139909650302503,-158.91125790710885,0.9245689916576174,28,1762115225.3012493
0.49277982115745544,0.3619290292263031,-0.2271319180727005,0.9999544620513916,0.5410320162773132,0.44867366552352905,-0.24464087188243866,0.9999809265136719,0.49727287888526917,0.43260443210601807,-0.027585500851273537,0.9998152256011963,0.5231926441192627,0.6617870926856995,-0.061424799263477325,0.9997410774230957,0.4922521710395813,0.652681291103363,0.06132683902978897,0.9995107054710388,0.512454628944397,0.8160858154296875,-0.006477729883044958,0.9871958494186401,0.4977797567844391,0.7944618463516235,0.1601870208978653,0.9628448486328125,0.5371304154396057,0.9039084315299988,0.14882232248783112,0.9470678567886353,0.5080457329750061,0.88663649559021,0.30287161469459534,0.9572016000747681,0.5107055902481079,0.702147901058197,-0.2568873465061188,0.9762539863586426,0.4637327194213867,0.5963384509086609,0.08757232129573822,0.7614777684211731,176.979220608787,0.507722407579422,0.6572341918945312,137.56271256700276,157.7102702980099,0.7003810553264105,-0.00762924013481358,-0.0020651774119695844,-0.32090799787495256,-1.1682972931256108,-159.83575170453838,0.6541962927490876,29,1762115225.364774
0.4919520318508148,0.3616056740283966,-0.21813194453716278,0.9999568462371826,0.5393572449684143,0.44766417145729065,-0.23737986385822296,0.9999821782112122,0.4977189600467682,0.4330696165561676,-0.020103352144360542,0.9998158812522888,0.5224090814590454,0.6612449884414673,-0.06211056560277939,0.9997559785842896,0.4922216832637787,0.6522004008293152,0.06200246885418892,0.9995367527008057,0.5095350742340088,0.8172982931137085,-0.0330752357840538,0.9872310161590576,0.49824780225753784,0.7951591610908508,0.147695392370224,0.9543563723564148,0.5373823642730713,0.9028958082199097,0.11736966669559479,0.9483558535575867,0.5078843235969543,0.8866679072380066,0.27210694551467896,0.9527156352996826,0.5096577405929565,0.701045572757721,-0.24229338765144348,0.9783666729927063,0.46422895789146423,0.5932802557945251,0.08343120664358139,0.7581310868263245,177.03063788991776,0.507315382361412,0.6567226946353912,128.4644288351117,157.24893536481005,0.6750407614671415,-0.005134398496240602,-0.006452255639097744,0.03147105041814496,-0.05534057069580916,-160.6840244492735,0.5987716276362783,30,1762115225.4440482
0.4898436665534973,0.3610841929912567,-0.15178272128105164,0.9999552965164185,0.5368131995201111,0.44493481516838074,-0.2182021141052246,0.9999833106994629,0.4980115294456482,0.4347878396511078,0.003437995444983244,0.9997949600219727,0.5204465389251709,0.6622774600982666,-0.06206633523106575,0.9997708797454834,0.4921887516975403,0.6524348855018616,0.06194145604968071,0.9995577335357666,0.5005670189857483,0.8186962604522705,-0.04763980954885483,0.986352264881134,0.4979768395423889,0.7972902655601501,0.13475795090198517,0.9387959241867065,0.5371516346931458,0.9013524651527405,0.09073556214570999,0.9501668214797974,0.5075012445449829,0.88609379529953,0.2303626835346222,0.9408951997756958,0.500064492225647,0.7004014849662781,-0.2071966826915741,0.980174720287323,0.46469011902809143,0.591137170791626,0.10130419582128525,0.7495765686035156,177.07979258173722,0.5063176453113556,0.6573561728000641,122.85443743425301,159.4891859089516,0.6183126627013963,-0.014056060499188843,0.00892440288456048,-0.1256878461711518,0.21662545504517214,-165.34484324986167,0.48121767858068754,31,1762115225.5150309
0.48816952109336853,0.36108195781707764,-0.12640905380249023,0.9999492764472961,0.5331264734268188,0.44366663694381714,-0.1988345831632614,0.999984085559845,0.5002774000167847,0.4366580843925476,0.007701808121055365,0.99976646900177,0.5194770097732544,0.6679321527481079,-0.06032906845211983,0.9997786283493042,0.4940582811832428,0.657849907875061,0.06020570546388626,0.9995568990707397,0.4922090470790863,0.8220092058181763,-0.032278019934892654,0.9851741194725037,0.4934019148349762,0.8015554547309875,0.13396304845809937,0.9149996638298035,0.5374131202697754,0.9016556739807129,0.09304969012737274,0.9519783854484558,0.5109111070632935,0.8962159752845764,0.22207660973072052,0.9128312468528748,0.4908536970615387,0.7001819014549255,-0.19405493140220642,0.9819657802581787,0.4651664197444916,0.5915929675102234,0.10004516690969467,0.7402292490005493,177.44614844060322,0.5067676454782486,0.6628910303115845,126.14483043061475,162.36728773495892,0.6092802813654329,0.007092270202836251,0.08723264543862681,0.3333102667789944,1.2341844651687195,-167.95617327408178,0.31680616121709015,32,1762115225.5784802
0.48648571968078613,0.3608004152774811,-0.1277088224887848,0.9999445676803589,0.5293440818786621,0.44377174973487854,-0.2038682997226715,0.9999843835830688,0.5037091970443726,0.43728530406951904,-0.0030523687601089478,0.999703049659729,0.5190548896789551,0.6684359908103943,-0.05991718918085098,0.9997674226760864,0.4976229667663574,0.6601356267929077,0.05977325513958931,0.9994666576385498,0.4880353808403015,0.8217716813087463,-0.0030525666661560535,0.9842191338539124,0.48736533522605896,0.801044225692749,0.1337425708770752,0.88484787940979,0.5362308025360107,0.9058504104614258,0.10142835229635239,0.9545852541923523,0.5117443203926086,0.895611047744751,0.23187711834907532,0.8786458373069763,0.48573654890060425,0.6961135268211365,-0.1760520339012146,0.9832989573478699,0.4736507833003998,0.6283162236213684,0.06198231503367424,0.6890506744384766,177.90437172713163,0.5083389282226562,0.664285808801651,136.96187548329524,157.0643963958406,0.616100526409601,0.02467746374450972,0.021905411831665188,0.27618070497453856,-1.02598367136823,-165.80037268305625,0.22563010743698989,33,1762115225.642153
0.4853132665157318,0.3601946532726288,-0.10600461810827255,0.9999349117279053,0.5207116603851318,0.4463680386543274,-0.19247381389141083,0.9999815821647644,0.5111995339393616,0.43828505277633667,0.006282869726419449,0.9996392726898193,0.5156290531158447,0.6757404208183289,-0.06035671755671501,0.9997255802154541,0.506221354007721,0.6694104671478271,0.06018887832760811,0.9992772936820984,0.4816547930240631,0.8214578628540039,0.01736638881266117,0.9828784465789795,0.488165944814682,0.8010099530220032,0.1430692970752716,0.8442175984382629,0.5274373888969421,0.9184263348579407,0.11842606216669083,0.9560733437538147,0.5131024718284607,0.9044176936149597,0.24509210884571075,0.8389038443565369,0.47480446100234985,0.694104790687561,-0.14353758096694946,0.9838334918022156,0.485618531703949,0.6617940068244934,0.037710316479206085,0.632561206817627,178.7484219025383,0.5109252035617828,0.672575443983078,145.3111437946285,159.48451735891186,0.6228013495010809,0.039587560580404066,0.12688766349410252,0.22822564667457007,1.60694075556452,-139.64358285910282,0.14226000366328753,34,1762115225.7074835
0.4848062992095947,0.359618604183197,-0.11096654832363129,0.9999263286590576,0.5184704065322876,0.4479551613330841,-0.19486892223358154,0.9999801516532898,0.515093982219696,0.43821263313293457,0.0041040657088160515,0.9995699524879456,0.5131627917289734,0.6779643893241882,-0.060293108224868774,0.9996962547302246,0.508239209651947,0.6713816523551941,0.06011165305972099,0.9990751147270203,0.4807201027870178,0.8218514323234558,0.022520743310451508,0.9814679026603699,0.48832717537879944,0.8006346225738525,0.1478751003742218,0.8042500615119934,0.5251244306564331,0.9216994643211365,0.12322475016117096,0.9569859504699707,0.5126820802688599,0.9044824242591858,0.2497645616531372,0.7989192605018616,0.47264042496681213,0.692936360836029,-0.14569012820720673,0.9845910668373108,0.48926371335983276,0.6654987335205078,0.03145291656255722,0.5801095962524414,178.49584177836996,0.5107010006904602,0.6746730208396912,147.7751644809001,160.347165985376,0.629267353127135,-0.0030885434457027247,0.028895514201634304,-0.5878916741806005,-1.3499069331366977,-109.11455242877136,0.17687855326280755,35,1762115225.7800753
0.48541608452796936,0.35932567715644836,-0.08507060259580612,0.999866783618927,0.5114394426345825,0.4478624165058136,-0.1807706356048584,0.9999756217002869,0.5202446579933167,0.43757280707359314,0.026073914021253586,0.999524712562561,0.509006142616272,0.6757744550704956,-0.06030476093292236,0.9996355772018433,0.5141834616661072,0.6686628460884094,0.06015481427311897,0.9988709688186646,0.4792267680168152,0.8215479254722595,0.018385600298643112,0.9798976182937622,0.4914407730102539,0.801820695400238,0.1356864720582962,0.7467567920684814,0.5159062743186951,0.9448654055595398,0.08693087846040726,0.948932945728302,0.5123504996299744,0.9233161211013794,0.22096498310565948,0.7401022911071777,0.4674839377403259,0.6902698874473572,-0.12815678119659424,0.9848049879074097,0.4892624318599701,0.6665921211242676,0.06244524195790291,0.5299791693687439,178.939779879081,0.5115948021411896,0.6722186505794525,155.22107008915077,162.63508069076417,0.6231445738309542,0.014076316530554774,-0.03865343095841547,0.2703262587359682,-1.0638160551227913,-49.445121190061464,0.14749634474892528,36,1762115225.8435721
0.48532313108444214,0.3564779460430145,-0.09453771263360977,0.999813973903656,0.5044875144958496,0.44773343205451965,-0.17720463871955872,0.9999695420265198,0.5239640474319458,0.4351639747619629,0.012570371851325035,0.9994189739227295,0.5029963850975037,0.6746203899383545,-0.05772942304611206,0.9995792508125305,0.5195938944816589,0.6671382188796997,0.05752941966056824,0.9984910488128662,0.48262152075767517,0.8209327459335327,0.031619079411029816,0.9749181270599365,0.49932408332824707,0.8013022541999817,0.13522237539291382,0.6983180642127991,0.5018353462219238,0.9506241083145142,0.10473589599132538,0.9412767887115479,0.5094336271286011,0.9195775389671326,0.22783513367176056,0.6901366114616394,0.46265357732772827,0.6896486878395081,-0.12179072201251984,0.9842843413352966,0.49445444345474243,0.656965434551239,0.05594624951481819,0.48204588890075684,179.26816981570366,0.5112951397895813,0.6708793044090271,165.72020237696097,166.1629938069385,0.6350163317827695,-0.004728631570234875,-0.02113470227726758,-0.2967395496590849,0.27644318035768606,-32.83675044615397,0.19987070906921892,37,1762115225.906944
0.4838046133518219,0.34886640310287476,-0.09124252200126648,0.9996582865715027,0.49901866912841797,0.4467866122722626,-0.17334318161010742,0.9999498724937439,0.5239771604537964,0.43044227361679077,0.007719122804701328,0.9991578459739685,0.4990888237953186,0.6723873019218445,-0.05421247333288193,0.9994587898254395,0.5219703912734985,0.6649420261383057,0.0540456660091877,0.9978196620941162,0.483612060546875,0.8170652389526367,0.03552000969648361,0.9606208205223083,0.5027292966842651,0.8001419901847839,0.13112515211105347,0.6501851677894592,0.4910261631011963,0.9537560939788818,0.1179688349366188,0.9249132871627808,0.5109894275665283,0.919498085975647,0.21989473700523376,0.6393537521362305,0.45985841751098633,0.6863261461257935,-0.10567142814397812,0.9788295030593872,0.49567919969558716,0.6535094976425171,0.03513214364647865,0.43736544251441956,179.75883704356647,0.5105296075344086,0.6686646640300751,172.09926235640344,167.63088053966547,0.6430001905397625,-0.008639675710291866,-0.024994080340541864,-0.0441394243422252,-0.04355632918769784,-33.219219018352504,0.12353825434097167,38,1762115225.9955506
0.4829862117767334,0.34397706389427185,-0.06725696474313736,0.9996184706687927,0.4947222173213959,0.44462132453918457,-0.15042349696159363,0.999945878982544,0.5236963033676147,0.42671406269073486,0.005474677309393883,0.9990502595901489,0.495718777179718,0.6696177124977112,-0.05010809749364853,0.9994868636131287,0.5241824388504028,0.6573145985603333,0.049908485263586044,0.9977827668190002,0.48217543959617615,0.8150052428245544,0.031895268708467484,0.9628086090087891,0.5049872398376465,0.7892307639122009,0.13484542071819305,0.631068766117096,0.48347586393356323,0.9613087773323059,0.09941516816616058,0.9294654130935669,0.5114977955818176,0.899262547492981,0.22871598601341248,0.6253718137741089,0.455291211605072,0.6851634383201599,-0.09762881696224213,0.9752424955368042,0.49816784262657166,0.651918888092041,0.02575606107711792,0.3981790244579315,-179.8135371838681,0.5099506080150604,0.6634661555290222,173.0826264261301,167.7332029534909,0.6304586893512147,-0.00915648023165499,-0.0822108460082497,-0.00817290900140801,-0.9048439009853242,-31.71789206513157,0.18977334200684656,39,1762115226.0587845
0.4837191700935364,0.3435419797897339,-0.04763638228178024,0.999535858631134,0.4924708306789398,0.4407934546470642,-0.14346398413181305,0.9999405741691589,0.5264463424682617,0.42535972595214844,0.007377653382718563,0.9989245533943176,0.49495729804039,0.6682195067405701,-0.04861052334308624,0.9995111227035522,0.5259172916412354,0.6559320092201233,0.048386942595243454,0.9977383017539978,0.4816095232963562,0.8149436116218567,0.032909613102674484,0.9643994569778442,0.5050625801086426,0.7869703769683838,0.13863511383533478,0.6177846193313599,0.482178270816803,0.9662485718727112,0.09590762853622437,0.9337312579154968,0.5114274024963379,0.8945549726486206,0.2325594127178192,0.616493284702301,0.45464617013931274,0.6831790804862976,-0.09273852407932281,0.9710084795951843,0.49950337409973145,0.6502946615219116,0.024975957348942757,0.3640023171901703,-179.75512788000927,0.5104372948408127,0.6620757579803467,171.98160619443576,168.01720407586564,0.6240708726645903,0.006138990304225962,-0.017538253798313464,0.19293463547777437,0.8157698041492872,-24.430416321118642,0.2822286503270477,40,1762115226.1380625
0.4841681122779846,0.3430182933807373,-0.011635791510343552,0.999434769153595,0.4885109066963196,0.4308423399925232,-0.13361570239067078,0.9999402761459351,0.5261279940605164,0.4251959025859833,0.022924598306417465,0.9988420605659485,0.49340248107910156,0.6679719090461731,-0.04913640394806862,0.9995394945144653,0.5251346826553345,0.6565766930580139,0.04890458658337593,0.9977566599845886,0.4799472689628601,0.8157832622528076,0.038465533405542374,0.9664614796638489,0.5045381784439087,0.7867343425750732,0.14819040894508362,0.617493748664856,0.4818336069583893,0.9669106602668762,0.1016772985458374,0.9383919835090637,0.5116179585456848,0.8913576006889343,0.2431216537952423,0.6193442940711975,0.45143336057662964,0.6821283102035522,-0.09069804847240448,0.9703574180603027,0.4987623691558838,0.6494848728179932,0.02726929448544979,0.3351726531982422,-179.52327871232256,0.509268581867218,0.6622743010520935,170.52364957462095,168.82752017160823,0.6144578499248123,-0.0183542295393786,0.0031180496791151516,-0.3846574730707968,0.32440004006602197,-8.536536742475898,0.434680156450151,41,1762115226.2017379
0.4842604100704193,0.344125360250473,0.00021943578030914068,0.9993698000907898,0.4809436798095703,0.43242698907852173,-0.12474062293767929,0.9999343752861023,0.5259286165237427,0.42539072036743164,0.02051621675491333,0.9987826943397522,0.49078673124313354,0.668057382106781,-0.04800399765372276,0.9995630383491516,0.5249632000923157,0.6593211889266968,0.04772931709885597,0.9977715611457825,0.47897058725357056,0.8156457543373108,0.032973792403936386,0.9682657718658447,0.507059633731842,0.7861633896827698,0.1477944552898407,0.6115636229515076,0.4818297028541565,0.9688746929168701,0.0863819420337677,0.9420530796051025,0.5122233033180237,0.8915153741836548,0.24152347445487976,0.6142328977584839,0.44612327218055725,0.6786561608314514,-0.07996207475662231,0.9649692177772522,0.49949827790260315,0.650179922580719,0.032642755657434464,0.3088189661502838,-178.91688071314968,0.5078749656677246,0.6636892855167389,169.21563771253412,170.90933744499512,0.6086453972588488,-0.019491053505571967,0.019789909101215763,-0.015899568876672102,0.23317187626812902,-8.889825049007761,1.1062769651173907,42,1762115226.2732382
0.48303547501564026,0.3442821800708771,-0.013296405784785748,0.9993552565574646,0.4746033549308777,0.4349103569984436,-0.128644660115242,0.9999142289161682,0.5260816216468811,0.42931318283081055,0.017935726791620255,0.9987647533416748,0.48640674352645874,0.6686301231384277,-0.04807884991168976,0.9995749592781067,0.523970901966095,0.6594640612602234,0.04782373458147049,0.9978118538856506,0.47849035263061523,0.8171261548995972,0.019927632063627243,0.9709564447402954,0.5109845399856567,0.7857336401939392,0.1485852748155594,0.6084651947021484,0.4806246757507324,0.9711441993713379,0.06196540594100952,0.945989191532135,0.5130711793899536,0.8924640417098999,0.24477508664131165,0.6179848909378052,0.43907418847084045,0.6787766218185425,-0.0728040412068367,0.9566638469696045,0.5037880539894104,0.6496588587760925,0.05000879615545273,0.28311946988105774,-178.8029675402237,0.5051888227462769,0.6640470921993256,170.00183009612334,173.55513057267387,0.6108605301483402,-0.04144823247651947,0.005521096604015142,-0.33880783157504757,-0.22017333955896914,-6.20532935032618,2.295229677923742,43,1762115226.3380454
0.48251858353614807,0.34497392177581787,0.014104182831943035,0.9990969300270081,0.4653048515319824,0.4370163083076477,-0.13020040094852448,0.9998761415481567,0.5310570597648621,0.4399212598800659,-0.0005988719640299678,0.9984981417655945,0.48109275102615356,0.6696455478668213,-0.046390075236558914,0.9995812177658081,0.5241998434066772,0.6623911261558533,0.046181585639715195,0.9977954030036926,0.47734537720680237,0.821317732334137,0.01539410650730133,0.9729395508766174,0.5115963816642761,0.7857653498649597,0.15022969245910645,0.6026647090911865,0.4812471270561218,0.9730101823806763,0.06452736258506775,0.9488165974617004,0.5129592418670654,0.8925947546958923,0.25277402997016907,0.614099383354187,0.43185824155807495,0.6798129677772522,-0.06742876768112183,0.9411020278930664,0.5117343664169312,0.6472907662391663,0.06844763457775116,0.2594408392906189,-178.87579479081987,0.5026462972164154,0.6660183370113373,174.96172691931068,173.7748763092562,0.6055153222853477,-0.040090846206188746,0.031082823619637667,0.02140342882188746,0.4030603643943534,2.5296990573721403,1.6957175579024422,44,1762115226.4014645
0.48274439573287964,0.34537768363952637,0.010993890464305878,0.9989221692085266,0.464103639125824,0.44073063135147095,-0.12523110210895538,0.9998571872711182,0.5316057205200195,0.44377848505973816,-0.007427666336297989,0.9981144070625305,0.4803774356842041,0.6711259484291077,-0.043706923723220825,0.9995943307876587,0.5246683955192566,0.6649367213249207,0.043510351330041885,0.9977339506149292,0.47703900933265686,0.8209738731384277,0.01888200081884861,0.974422037601471,0.511627197265625,0.7822075486183167,0.1496705710887909,0.5949737429618835,0.4812355041503906,0.9726614952087402,0.07617484778165817,0.9515964984893799,0.513861894607544,0.8888311386108398,0.25217053294181824,0.6062058210372925,0.43066972494125366,0.6855523586273193,-0.07216811180114746,0.930881917476654,0.513431966304779,0.6507667303085327,0.059614431113004684,0.2390083223581314,-178.81550216921246,0.5025229156017303,0.6680313348770142,176.6479000457823,174.1397533855525,0.6052597367751795,-0.0017013679985008235,0.027758188758149307,0.529370845635517,-0.04584497758823302,2.5852628999345857,1.451296856352758,45,1762115226.4739835
0.48284822702407837,0.3465985953807831,0.014430658891797066,0.9986716508865356,0.46009740233421326,0.4444652199745178,-0.1290362924337387,0.9998375773429871,0.5335155129432678,0.4506666362285614,-0.01988091692328453,0.9978069067001343,0.4758186340332031,0.6731565594673157,-0.041478533297777176,0.9996124505996704,0.5241185426712036,0.6661790013313293,0.041289787739515305,0.997769296169281,0.4758492410182953,0.8264617919921875,0.021663231775164604,0.9754572510719299,0.5121889114379883,0.7817643284797668,0.14957205951213837,0.592420220375061,0.48092570900917053,0.9760920405387878,0.08163376152515411,0.9539631009101868,0.5150188207626343,0.8890795111656189,0.25670015811920166,0.6024979948997498,0.4241003096103668,0.686791718006134,-0.07499785721302032,0.92368084192276,0.5158655643463135,0.650250256061554,0.07110990583896637,0.2217710018157959,-179.18431790544415,0.49996858835220337,0.6696677803993225,178.06155805566195,174.30072178432167,0.6062615236213726,-0.03508384855193011,0.022476684175366437,-0.45851051083652283,-0.07254180408676801,4.828148712062755,0.799691412612984,46,1762115226.54679
0.48480576276779175,0.3473671078681946,0.03455208241939545,0.998485803604126,0.45509400963783264,0.44779056310653687,-0.1224965825676918,0.9998024702072144,0.5342956781387329,0.45449116826057434,-0.030354317277669907,0.997593879699707,0.4740816056728363,0.6769737601280212,-0.038952626287937164,0.9996167421340942,0.5236824154853821,0.6702326536178589,0.038783688098192215,0.9977626204490662,0.474830687046051,0.8309157490730286,0.031486332416534424,0.9760371446609497,0.5120559334754944,0.7840510010719299,0.14888039231300354,0.5946327447891235,0.4803484082221985,0.977400541305542,0.09958522021770477,0.9555063843727112,0.5161258578300476,0.8979491591453552,0.25468742847442627,0.6009559035301208,0.4155305027961731,0.6837295293807983,-0.07259204238653183,0.9158157110214233,0.5274214148521423,0.648838996887207,0.07611488550901413,0.21223391592502594,-178.92171118008687,0.4988820105791092,0.6736032068729401,178.19478836525272,174.16235322847322,0.6074322171565629,-0.014982994930533181,0.05426622591016984,0.2771738897724316,0.4383510821321114,4.835811668189231,0.8732682928522121,47,1762115226.6193106
0.48548680543899536,0.3477514982223511,0.05397564172744751,0.9981635808944702,0.4539826512336731,0.44820883870124817,-0.12085630744695663,0.9997243285179138,0.5344346761703491,0.452881783246994,-0.035590145736932755,0.9974466562271118,0.4734036922454834,0.6791250109672546,-0.040205299854278564,0.9996026158332825,0.5233794450759888,0.6722384095191956,0.04002683237195015,0.9977313876152039,0.4745829701423645,0.8343754410743713,0.03879626840353012,0.9769242405891418,0.5123361349105835,0.7898254990577698,0.1614583283662796,0.5987155437469482,0.48049578070640564,0.9779675602912903,0.12277587503194809,0.9559974670410156,0.5177579522132874,0.9175155758857727,0.2821194529533386,0.6040523052215576,0.4117911756038666,0.6812348961830139,-0.07347668707370758,0.9050952792167664,0.5408109426498413,0.6497461199760437,0.07820264995098114,0.2177906483411789,-178.93559979673125,0.4983915686607361,0.6756817102432251,176.2362007638042,173.91807832403805,0.6182378802679381,-0.007031754740393589,0.029800727424377605,0.11400161528706687,-0.350776266278863,3.324211125017089,0.7379451822697931,48,1762115226.6890574
0.486196368932724,0.3474602997303009,0.04392638057470322,0.9979060292243958,0.45159459114074707,0.44808274507522583,-0.12510141730308533,0.9996383190155029,0.5347923636436462,0.4522334933280945,-0.05491703003644943,0.9974201917648315,0.4698076844215393,0.6821703910827637,-0.037078991532325745,0.9995810389518738,0.5228315591812134,0.6742357611656189,0.03688106685876846,0.9976686835289001,0.4731258451938629,0.8353559970855713,0.05845312029123306,0.9760435819625854,0.512336790561676,0.7955273985862732,0.16988389194011688,0.5999959707260132,0.4800181984901428,0.9801164269447327,0.16374315321445465,0.9545724987983704,0.5211116671562195,0.9350647926330566,0.3001251220703125,0.6032406687736511,0.41050177812576294,0.6770905256271362,-0.06184624880552292,0.8874256014823914,0.5506255030632019,0.6515548229217529,0.0677061676979065,0.23711691796779633,-179.21461248425015,0.49631962180137634,0.6782030761241913,175.73758207671904,172.44670388163837,0.6386018850567933,-0.032919209366985995,0.04005960430469221,-0.41130134925105416,0.16299361847415653,2.8561261924022094,0.39901698181229756,49,1762115226.7519977
0.48635441064834595,0.3471812903881073,0.05016539618372917,0.9976497292518616,0.45208820700645447,0.44794774055480957,-0.11867213249206543,0.9995671510696411,0.5350922346115112,0.45137715339660645,-0.05198795720934868,0.9974340200424194,0.4691462516784668,0.6824784874916077,-0.03450953587889671,0.9995456337928772,0.5227601528167725,0.6746625900268555,0.03427787870168686,0.9975773096084595,0.47291040420532227,0.8372446894645691,0.060954175889492035,0.9739511013031006,0.5128252506256104,0.803236722946167,0.1620526909828186,0.599679172039032,0.4792627692222595,0.9817581176757812,0.16088984906673431,0.9510819315910339,0.5219234228134155,0.941693127155304,0.2760465145111084,0.5978707671165466,0.4104955792427063,0.6759009957313538,-0.058745212852954865,0.8739573955535889,0.5506253242492676,0.6541360020637512,0.0661630928516388,0.2533458173274994,-179.40856588469103,0.49595320224761963,0.6785705387592316,176.8429473911995,171.9156001807121,0.637332961512713,-0.005859918633159085,0.005876599979410453,0.4327423041306946,-0.5466673978760226,2.365899544782292,0.3058373401504024,50,1762115226.8145275
0.48826488852500916,0.3461572825908661,0.08350013196468353,0.9976896047592163,0.4513038694858551,0.44793662428855896,-0.10241599380970001,0.9995477795600891,0.5350134968757629,0.45098787546157837,-0.04096303507685661,0.9975667595863342,0.46689361333847046,0.6838026642799377,-0.03199902921915054,0.9995332360267639,0.522047221660614,0.6751239895820618,0.03172827884554863,0.9976175427436829,0.47274819016456604,0.8357834815979004,0.07423762232065201,0.9714226722717285,0.5145079493522644,0.8110220432281494,0.16003482043743134,0.6124696135520935,0.4795709550380707,0.9838593602180481,0.187649667263031,0.9447473287582397,0.5242281556129456,0.958321213722229,0.27514880895614624,0.5995987057685852,0.407106876373291,0.6763967871665955,-0.049244049936532974,0.8701289892196655,0.5531564950942993,0.6575550436973572,0.07821913063526154,0.28092268109321594,-179.67323620206142,0.49447041749954224,0.6794633269309998,177.45295370063815,172.47022487085894,0.6423404935855487,-0.02646230368942614,0.015933015066610504,-0.36767748710143744,0.17947035833047628,2.087531099896037,0.15856592412214787,51,1762115226.8705614
0.48975738883018494,0.34532445669174194,0.08927362412214279,0.9977983832359314,0.45031434297561646,0.4478458762168884,-0.09840166568756104,0.9995496273040771,0.5345304012298584,0.45067355036735535,-0.03989444673061371,0.9977258443832397,0.46499282121658325,0.6841686367988586,-0.027319829910993576,0.9995321035385132,0.521124005317688,0.6753038763999939,0.027032876387238503,0.997718334197998,0.4731011986732483,0.8349727988243103,0.08235892653465271,0.9682762622833252,0.5163349509239197,0.8171535730361938,0.1593853384256363,0.6306732296943665,0.4797777235507965,0.9828696250915527,0.1984773576259613,0.9391096830368042,0.5240160226821899,0.9708923101425171,0.2744085192680359,0.6112436056137085,0.4045632779598236,0.6759378910064697,-0.05302100256085396,0.8722884058952332,0.5542548894882202,0.6607518792152405,0.07509316504001617,0.3141252100467682,-179.84188246976936,0.4930584132671356,0.6797362565994263,177.8014347282594,172.75479791036324,0.6485906263967399,-0.016197461409708017,0.003130845977967159,0.11775062913167972,-0.1468569534104222,1.9230649790887293,0.08858760876495048,52,1762115226.9577358
0.49052414298057556,0.344722718000412,0.11579824984073639,0.9979445934295654,0.4501644968986511,0.4475819766521454,-0.08183212578296661,0.9995666146278381,0.5342761278152466,0.45021700859069824,-0.03346692770719528,0.9978956580162048,0.4648175835609436,0.6838465929031372,-0.026753371581435204,0.999547004699707,0.5209406018257141,0.6753533482551575,0.026508605107665062,0.99784916639328,0.4733065664768219,0.8353019952774048,0.07889704406261444,0.9652003049850464,0.5174509882926941,0.822443962097168,0.1559496819972992,0.6502547264099121,0.4799072742462158,0.9837692379951477,0.18768112361431122,0.9318236112594604,0.5233743786811829,0.9757524132728577,0.26318058371543884,0.6215460896492004,0.40724897384643555,0.6733881831169128,-0.03003866598010063,0.875748336315155,0.555385947227478,0.6610195636749268,0.07901019603013992,0.3529535233974457,-179.83638859078056,0.49287909269332886,0.6795999705791473,178.48365692929883,173.00935925450128,0.6445279564299569,-0.003157867114516637,-0.002400020992967356,0.229629568639439,-0.09739954848182437,1.7943635794794102,0.1051852425354712,53,1762115227.0145211
0.4906255304813385,0.34431013464927673,0.12370844185352325,0.9980234503746033,0.4489305019378662,0.4470125436782837,-0.07407385855913162,0.9995762705802917,0.5340622663497925,0.4482884705066681,-0.028060192242264748,0.9980409741401672,0.46480268239974976,0.683480978012085,-0.02467983588576317,0.9995574951171875,0.5206750631332397,0.6755057573318481,0.024442462250590324,0.9979604482650757,0.4734962582588196,0.8353255987167358,0.08040017634630203,0.9616286158561707,0.5175287127494812,0.8243095278739929,0.15260165929794312,0.6671969890594482,0.47992411255836487,0.9846209287643433,0.18785656988620758,0.9215471148490906,0.5231595635414124,0.9764856100082397,0.2580339312553406,0.6252247095108032,0.40650075674057007,0.6727620363235474,-0.01758110150694847,0.8760935068130493,0.5561296939849854,0.6606922745704651,0.08955302834510803,0.38187432289123535,-179.69294429655582,0.49273887276649475,0.6794933676719666,178.65923193938758,173.40395428156938,0.6440282885675896,-0.001765568524322442,-0.0013422823828908343,0.01753102160874513,0.013318435111730717,0.8586659702723727,0.20603913506574315,54,1762115227.0939403
0.49217167496681213,0.3443743884563446,0.1275051236152649,0.9981791377067566,0.4501838684082031,0.4464817941188812,-0.0676838606595993,0.9995977282524109,0.5340288877487183,0.44696497917175293,-0.022186612710356712,0.9981968402862549,0.46548524498939514,0.6832449436187744,-0.023303741589188576,0.9995793700218201,0.5206720232963562,0.6753584146499634,0.023070495575666428,0.9981011152267456,0.4736151099205017,0.8360517024993896,0.08853477239608765,0.9603193998336792,0.517060399055481,0.8319250345230103,0.14977821707725525,0.6891271471977234,0.4792817533016205,0.9839180111885071,0.1980864554643631,0.919349193572998,0.5156704187393188,0.9802780151367188,0.25705379247665405,0.641679584980011,0.4087184965610504,0.6682324409484863,-0.01453274767845869,0.8812178373336792,0.5579164028167725,0.660156786441803,0.09529249370098114,0.41050177812576294,-179.76048562395286,0.49307863414287567,0.6793016791343689,179.11567909484734,176.80464869379676,0.6455482651058885,0.005337952488687783,-0.0030115968955080757,0.11160261379248763,-0.026226411171108695,0.3301824963208782,0.4544672247637359,55,1762115227.1575904
0.49302488565444946,0.344404935836792,0.12473256886005402,0.9983100891113281,0.4500948488712311,0.44694676995277405,-0.06211644411087036,0.9996010661125183,0.5358524918556213,0.44721144437789917,-0.022248338907957077,0.9983406066894531,0.4653286933898926,0.6845273375511169,-0.016116343438625336,0.9995791912078857,0.5205186605453491,0.6773778796195984,0.01594395563006401,0.9982089996337891,0.474264919757843,0.8394126892089844,0.0989249050617218,0.9566069841384888,0.5168696045875549,0.8399343490600586,0.13647791743278503,0.709466814994812,0.4787471890449524,0.9849008917808533,0.21556735038757324,0.9129577279090881,0.5103204250335693,0.9898437261581421,0.2390277087688446,0.6571951508522034,0.41022247076034546,0.6650667190551758,0.008052026852965355,0.8778198957443237,0.5602004528045654,0.6623903512954712,0.09013292193412781,0.43194738030433655,179.98775230831134,0.49292367696762085,0.6809526085853577,177.49322674562734,177.55087417215373,0.6510982191067906,-0.0024268604607744298,0.025856017325715994,-0.1216085508874992,0.45210989058861506,0.17683181146048865,0.04832823985241493,56,1762115227.2214413
0.4945431649684906,0.34445619583129883,0.143633171916008,0.9984006285667419,0.4504041075706482,0.44701075553894043,-0.04861863702535629,0.9995861053466797,0.5391314625740051,0.44835391640663147,-0.009555719792842865,0.9984571933746338,0.46519774198532104,0.684952437877655,-0.014766119420528412,0.9995535612106323,0.5204760432243347,0.6809999346733093,0.014640627428889275,0.9982701539993286,0.47444772720336914,0.8424871563911438,0.09874175488948822,0.9515342712402344,0.5164012312889099,0.8503351807594299,0.12436516582965851,0.729300320148468,0.4782644808292389,0.9857416152954102,0.2157708704471588,0.9016265273094177,0.5055373907089233,0.998371958732605,0.21617284417152405,0.6714202165603638,0.4103251099586487,0.6656543016433716,0.013373367488384247,0.868951141834259,0.5612479448318481,0.6678324937820435,0.09857886284589767,0.4402787387371063,179.5298240663977,0.4928368926048279,0.6829761862754822,176.1769401616783,177.29968618849523,0.6516336336314845,-0.0013684827886972345,0.03190933425568071,0.01668931569658807,0.09545337162811378,0.8672812480277577,0.5478418637951673,57,1762115227.2848577
0.49615544080734253,0.34413957595825195,0.11888287216424942,0.9984644651412964,0.4509449005126953,0.44718584418296814,-0.06454817950725555,0.999577522277832,0.5420264005661011,0.4484805762767792,-0.033348895609378815,0.9985721707344055,0.4655296802520752,0.6848850250244141,-0.010510044172406197,0.9995279908180237,0.5202653408050537,0.6818962693214417,0.010413488373160362,0.9983122944831848,0.4749109745025635,0.8430836200714111,0.10156340897083282,0.9456401467323303,0.5148838758468628,0.8537236452102661,0.12352456152439117,0.7401193976402283,0.4775075912475586,0.9864333271980286,0.21436040103435516,0.8912086486816406,0.5036627054214478,1.0001301765441895,0.22021234035491943,0.676723837852478,0.418315589427948,0.6594614386558533,0.013950461521744728,0.8440244793891907,0.5612174868583679,0.6695420145988464,0.07679026573896408,0.440187931060791,179.12730677019934,0.49289751052856445,0.6833906471729279,176.49167734762906,177.79589295005798,0.6565819379408268,0.0007633897205858509,0.005219498940111813,0.02684766252072061,-0.33611751554832514,0.8144100444828847,0.8318826135581591,58,1762115227.364264
0.49707865715026855,0.34396204352378845,0.11269525438547134,0.9985172152519226,0.4513472020626068,0.447191447019577,-0.060695160180330276,0.999563992023468,0.5431163907051086,0.44839948415756226,-0.03185827285051346,0.9986717104911804,0.4657020568847656,0.684755265712738,-0.009106287732720375,0.999488115310669,0.5201512575149536,0.6823998689651489,0.009014527313411236,0.9983185529708862,0.4751197397708893,0.8424443602561951,0.09734733402729034,0.9387052059173584,0.5138791799545288,0.8532963991165161,0.1173119768500328,0.7503586411476135,0.4772818684577942,0.9861018657684326,0.2036062777042389,0.8786419034004211,0.5029911398887634,1.0003008842468262,0.20510172843933105,0.6805639266967773,0.42082762718200684,0.6576581001281738,0.015658454969525337,0.8254282474517822,0.5616088509559631,0.6696479916572571,0.0737522691488266,0.4420866370201111,178.9539541081607,0.4929266571998596,0.6835775673389435,176.70583856110747,177.55950773223225,0.6557142893397104,0.0004590652717591306,0.002944025955494138,-0.0047931643510439595,-0.035839105381385995,0.754190299477948,0.9865222037944642,59,1762115227.4277554
0.49905985593795776,0.3440542221069336,0.1079559475183487,0.9985160827636719,0.4515381455421448,0.44718825817108154,-0.04801230877637863,0.9995452165603638,0.5434389710426331,0.4483800232410431,-0.04631630331277847,0.9987478852272034,0.4658568799495697,0.6851304173469543,0.004641604609787464,0.9994082450866699,0.5197130441665649,0.6834786534309387,-0.004762405063956976,0.9982929229736328,0.475974977016449,0.8437862992286682,0.10756304115056992,0.9328689575195312,0.5137168169021606,0.8572524189949036,0.0986788347363472,0.7604578137397766,0.47737765312194824,0.9858518838882446,0.20626680552959442,0.868391215801239,0.5023239850997925,1.0034351348876953,0.18167699873447418,0.6881924271583557,0.43049654364585876,0.654617428779602,0.04522018879652023,0.7782442569732666,0.5625978112220764,0.6685301065444946,0.07437914609909058,0.43154531717300415,178.86072955824153,0.4927849620580673,0.6843045353889465,176.79780704764056,177.48558380719652,0.6563154512368524,-0.0017462214478377632,0.008959003002861827,-0.027177494723402137,0.07412732571849048,0.7429670084467981,0.9414577548657483,60,1762115227.5088992
0.5012391209602356,0.3440919518470764,0.0941208153963089,0.9984427094459534,0.45170754194259644,0.44688987731933594,-0.017429837957024574,0.9994816184043884,0.5436896681785583,0.4469086527824402,-0.06597844511270523,0.9987928867340088,0.46600717306137085,0.6851593852043152,0.023255344480276108,0.999199628829956,0.5193072557449341,0.683896005153656,-0.023390958085656166,0.9981460571289062,0.47669559717178345,0.8433272242546082,0.11747536808252335,0.9137957096099854,0.5135937333106995,0.8584736585617065,0.07578063011169434,0.7657365202903748,0.4772353172302246,0.985289454460144,0.20661213994026184,0.8466047048568726,0.5016015768051147,1.0035864114761353,0.15713903307914734,0.6970928311347961,0.47301554679870605,0.6491946578025818,0.07507127523422241,0.7071117162704468,0.5645661950111389,0.6653369665145874,0.05127190798521042,0.41773566603660583,178.78462740164926,0.49265721440315247,0.6845276951789856,176.55621165713603,177.4477257141833,0.6563463440485817,-0.0022841452133396424,0.003990126993464889,-0.00961814911539223,-0.08884416986054855,0.011695258887328036,0.8802511901285412,61,1762115227.5648272
0.5039626359939575,0.344760000705719,0.08060450106859207,0.9984694719314575,0.45209574699401855,0.4468703269958496,-0.009693230502307415,0.9994443655014038,0.5439429879188538,0.4452817142009735,-0.07146678119897842,0.9988681077957153,0.46607908606529236,0.6853325963020325,0.028809865936636925,0.998984158039093,0.5192834734916687,0.684787929058075,-0.0289327260106802,0.9980400800704956,0.4776480197906494,0.8430201411247253,0.11868429183959961,0.8913115859031677,0.5135829448699951,0.8595449924468994,0.06719718873500824,0.7731040716171265,0.4769604206085205,0.9851458072662354,0.20511703193187714,0.8235937356948853,0.5015021562576294,1.005139708518982,0.14625300467014313,0.7093847990036011,0.485078901052475,0.6468393206596375,0.07465355098247528,0.6416656374931335,0.5677238702774048,0.6625984311103821,0.0281095951795578,0.41113975644111633,178.72042172291708,0.49268127977848053,0.6850602626800537,175.76475546770516,177.40885721018546,0.6574610621201565,0.000379591291823204,0.008400367040099882,0.04201601542828445,0.0695642055746522,-0.9909032926501063,0.836010270613223,62,1762115227.6282253
0.5075969696044922,0.34653085470199585,0.0734395682811737,0.9985557198524475,0.4544703960418701,0.4467492401599884,-0.008599800057709217,0.9994348287582397,0.5436972975730896,0.44423186779022217,-0.0776461809873581,0.9989550709724426,0.46766147017478943,0.6853554844856262,0.030800800770521164,0.998849630355835,0.5194503664970398,0.6853981614112854,-0.030898679047822952,0.9980300068855286,0.4793795943260193,0.8410142064094543,0.12307194620370865,0.8752710223197937,0.513723611831665,0.8595864176750183,0.06383873522281647,0.7834622263908386,0.4767374098300934,0.9850296974182129,0.20873841643333435,0.8083482384681702,0.5018826723098755,1.008203148841858,0.1427246332168579,0.7251612544059753,0.48727673292160034,0.6324099898338318,0.07752318680286407,0.5825561285018921,0.5706567764282227,0.6611415147781372,0.013036529533565044,0.41678667068481445,178.67991224805357,0.4935559183359146,0.6853768229484558,175.36729471976133,177.51887958652776,0.6583382887294473,0.013789849978761714,0.004990997222107364,0.2114307148907109,-0.053753288044105306,-1.6160659913093725,0.7632559396529203,63,1762115227.6916516
0.5081028938293457,0.34748533368110657,0.0709395557641983,0.9986297488212585,0.45552462339401245,0.4467414319515228,-0.01307232677936554,0.9994205236434937,0.543786346912384,0.4438512921333313,-0.07827119529247284,0.9990324378013611,0.46847668290138245,0.6853895783424377,0.030569765716791153,0.9986911416053772,0.5195667743682861,0.685877799987793,-0.030665278434753418,0.998012900352478,0.48005256056785583,0.8391066789627075,0.12860114872455597,0.8579599261283875,0.5138499140739441,0.8592054843902588,0.0662311464548111,0.7925710082054138,0.4766433835029602,0.9849433898925781,0.21783366799354553,0.7916985154151917,0.5022055506706238,1.009278416633606,0.1486811339855194,0.7391570210456848,0.4849184453487396,0.6296051144599915,0.07137742638587952,0.5295044779777527,0.5704655051231384,0.6601790189743042,0.011945185251533985,0.4184845983982086,178.6571733483664,0.4940217286348343,0.6856336891651154,175.0857959644663,177.67754545201615,0.6595282879728194,0.007342137008128493,0.004048744649587938,-0.10162933737031729,-0.014851856001775713,-1.875486451344261,0.7483964498328692,64,1762115227.755095
0.5099891424179077,0.3490796983242035,0.06565225124359131,0.9987157583236694,0.4578017294406891,0.44673338532447815,-0.0017126522725448012,0.999411404132843,0.5435582399368286,0.4437411427497864,-0.0835661068558693,0.9991106390953064,0.47023358941078186,0.6857455372810364,0.03291366994380951,0.998529314994812,0.5198224782943726,0.6874018907546997,-0.03299332037568092,0.9979850649833679,0.48018407821655273,0.8373755812644958,0.1231338232755661,0.8393368721008301,0.51450514793396,0.8600648641586304,0.058108411729335785,0.7981616258621216,0.47429853677749634,0.9833717942237854,0.21404850482940674,0.7716863751411438,0.5025728344917297,1.008354902267456,0.13336002826690674,0.7482454776763916,0.48904839158058167,0.6347898840904236,0.075070820748806,0.48203766345977783,0.5761188268661499,0.6607632040977478,-0.009629325941205025,0.43814775347709656,178.65841341213755,0.4950280338525772,0.686573714017868,174.66435722951925,177.26101637907362,0.6561012721496261,0.015868853321903773,0.014823650165239852,0.13446140208263463,0.16991405010177907,-1.9983712595097454,0.6343430823465338,65,1762115227.8185089
0.5126978754997253,0.3510390520095825,0.04652992635965347,0.9987945556640625,0.46126827597618103,0.44740885496139526,0.005334833171218634,0.9993682503700256,0.5430432558059692,0.44374558329582214,-0.104462169110775,0.9991843700408936,0.47398075461387634,0.6867563724517822,0.044103290885686874,0.9983248710632324,0.5203049778938293,0.6910803914070129,-0.044143423438072205,0.9979893565177917,0.4817107617855072,0.8295538425445557,0.13688193261623383,0.8220155239105225,0.5166212320327759,0.8594452738761902,0.04509143531322479,0.8106215596199036,0.4697887897491455,0.9697307348251343,0.2253282070159912,0.7661502361297607,0.5028275847434998,1.006406545639038,0.1264873892068863,0.767167329788208,0.4979105591773987,0.6341619491577148,0.06839825958013535,0.43888059258461,0.582771897315979,0.6630532741546631,-0.038699038326740265,0.47137436270713806,178.81985698486943,0.49714286625385284,0.6889183819293976,173.22671290641807,176.23457743329357,0.6505703233441146,0.025816455125164076,0.028622132838944204,0.12143364902200565,0.16844261915325828,-2.564962714108612,0.38984165476195115,66,1762115227.9004269
0.5203362703323364,0.35246288776397705,0.014615146443247795,0.9988576769828796,0.4640280604362488,0.4483947455883026,0.018202777951955795,0.9993038773536682,0.5407669544219971,0.4435787498950958,-0.13207992911338806,0.9992532134056091,0.4768628180027008,0.6896399855613708,0.0528152659535408,0.998105525970459,0.5205966234207153,0.6964994072914124,-0.05289797857403755,0.9979988932609558,0.4821956753730774,0.8255771994590759,0.1494777947664261,0.8114939332008362,0.5172818899154663,0.8620418906211853,0.04154093563556671,0.8250560760498047,0.4646309018135071,0.9590021967887878,0.24779129028320312,0.7656117677688599,0.5030134916305542,1.0051947832107544,0.13447612524032593,0.786080539226532,0.5081623792648315,0.63329017162323,0.07672319561243057,0.39771032333374023,0.5937014222145081,0.673127293586731,-0.04218435660004616,0.5114135146141052,179.14954363925128,0.49872972071170807,0.6930696964263916,172.04520982764217,174.9715473126703,0.6549298219385103,0.02182477874365087,0.057095041037765235,-0.05489946063517989,0.3916017115189313,-3.5910709669927297,0.2304235538813682,67,1762115227.9731357
0.5254366397857666,0.3528624475002289,0.005538176745176315,0.9989388585090637,0.4680102467536926,0.44846072793006897,0.017424941062927246,0.9992506504058838,0.5382344126701355,0.44361865520477295,-0.1353386491537094,0.9993208646774292,0.47795194387435913,0.6923783421516418,0.05515644699335098,0.9979552030563354,0.5205433368682861,0.701717734336853,-0.055211346596479416,0.9980699419975281,0.48303961753845215,0.8222260475158691,0.15852530300617218,0.7936771512031555,0.5181523561477661,0.863982081413269,0.04989054799079895,0.8385809659957886,0.4603724479675293,0.9435635805130005,0.2702719271183014,0.7599413990974426,0.5030706524848938,1.0058567523956299,0.14501459896564484,0.8039043545722961,0.5092716813087463,0.6349472999572754,0.09440405666828156,0.361209899187088,0.5975929498672485,0.6880400776863098,-0.06646651774644852,0.5547352433204651,179.11562416862327,0.49924764037132263,0.6970480382442474,169.56401175574095,175.5465738168196,0.655325919318499,0.009121001738283382,0.07006195258769093,-0.2237242205382837,0.22835824165287893,-3.9443959547857936,0.2052768060010198,68,1762115228.029919
0.5249729156494141,0.3535451591014862,0.002937332261353731,0.9990052580833435,0.4686320424079895,0.44890493154525757,0.014201273210346699,0.9991897940635681,0.5370944142341614,0.4437122642993927,-0.1367291659116745,0.9993810057640076,0.4781106412410736,0.6939628720283508,0.05501413345336914,0.9977768659591675,0.5205231308937073,0.7037674188613892,-0.055058468133211136,0.9981213212013245,0.48356741666793823,0.8183619379997253,0.16227562725543976,0.7774203419685364,0.5186349153518677,0.8630676865577698,0.05269424244761467,0.8510246276855469,0.4598977565765381,0.939853310585022,0.27533379197120667,0.7572445273399353,0.5031901001930237,1.00584077835083,0.14529560506343842,0.8203900456428528,0.5111165046691895,0.6360434889793396,0.08961309492588043,0.32795149087905884,0.5993422269821167,0.6959530115127563,-0.0777827799320221,0.5935803651809692,179.19551841769166,0.49931688606739044,0.69886514544487,169.7374003454276,175.22521909789623,0.6545427978280113,0.000873937809178773,0.022933391909295525,-0.10408475026810293,-0.5948013148527274,-4.337409782256371,0.18132217849372118,69,1762115228.109153
0.5293920040130615,0.35642626881599426,-0.00689461175352335,0.9990488290786743,0.47104698419570923,0.44889673590660095,0.023424439132213593,0.9991395473480225,0.5345637798309326,0.44358131289482117,-0.14547905325889587,0.9994372725486755,0.47829389572143555,0.6979988813400269,0.057409562170505524,0.997728705406189,0.5203449130058289,0.7093496322631836,-0.057472873479127884,0.9982038736343384,0.48501211404800415,0.819115936756134,0.18162842094898224,0.7536196112632751,0.5187400579452515,0.8631629347801208,0.05590338259935379,0.8601642847061157,0.4603137969970703,0.9304506182670593,0.31036680936813354,0.7417126297950745,0.5025746822357178,1.0056082010269165,0.18651072680950165,0.8328989148139954,0.5079328417778015,0.6430888175964355,0.11518342792987823,0.29772183299064636,0.5959753394126892,0.6983746886253357,-0.07051777839660645,0.6292455792427063,179.2241947676167,0.4993194043636322,0.7036742568016052,168.97409811676783,172.51208241970457,0.6644941872181334,3.973314374275869e-05,0.07587713853654132,-0.013161904200548219,0.8353352000994732,-4.783669052581618,0.17060656086863013,70,1762115228.1725333
0.5299733877182007,0.3604396879673004,0.0010091520380228758,0.9990842938423157,0.47342342138290405,0.44684338569641113,0.043175067752599716,0.9991365075111389,0.5300737619400024,0.4427109658718109,-0.13877519965171814,0.9994897246360779,0.47893649339675903,0.6979904770851135,0.05832783505320549,0.9977045059204102,0.5199272632598877,0.7097459435462952,-0.05844341591000557,0.9982755780220032,0.48965615034103394,0.8168907165527344,0.18707436323165894,0.733323335647583,0.5186350345611572,0.8626757264137268,0.05701548606157303,0.8694183826446533,0.46237093210220337,0.9099038243293762,0.3125983476638794,0.7242212295532227,0.5020231008529663,1.0085057020187378,0.18039561808109283,0.8447907567024231,0.509854257106781,0.6614246964454651,0.1046350821852684,0.2717615067958832,0.5932341814041138,0.7059488892555237,-0.06618644297122955,0.6619736552238464,179.48769219629392,0.49943187832832336,0.7038682103157043,165.23745049099324,174.40712355876678,0.648896349214637,0.0014091890777764833,0.002430048361995059,0.01715794717502438,-0.9202204043632141,-4.1721124158361675,0.1055470655071308,71,1762115228.252348
0.533286452293396,0.3600131571292877,-0.009532829746603966,0.9990915060043335,0.4777339994907379,0.44435784220695496,0.05269468575716019,0.9990914463996887,0.527368426322937,0.4414035379886627,-0.144069641828537,0.9995364546775818,0.4808313250541687,0.6977524161338806,0.05989927053451538,0.9975048899650574,0.5201988220214844,0.7095872759819031,-0.06001342087984085,0.9982990026473999,0.49388885498046875,0.8159646987915039,0.18302592635154724,0.7011145949363708,0.5185864567756653,0.8624361753463745,0.04644978046417236,0.8762524724006653,0.47438496351242065,0.8953647017478943,0.30344855785369873,0.6897475123405457,0.5014007687568665,1.009924292564392,0.16406938433647156,0.8530092835426331,0.5109537839889526,0.6721773743629456,0.09892315417528152,0.24784666299819946,0.5918713808059692,0.7087026238441467,-0.07359740138053894,0.6927282810211182,179.55266613185879,0.5005150735378265,0.7036698460578918,164.04834486814042,173.99061706855932,0.6422331221629499,0.01708149262148698,-0.0031281135445060627,0.24714505289068184,-0.08764966901808546,-3.4062988768620266,0.11098673850989892,72,1762115228.3157613
0.5354487299919128,0.35965168476104736,-0.029036056250333786,0.9990171194076538,0.4819068908691406,0.43950533866882324,0.044937729835510254,0.9989681839942932,0.5252853631973267,0.441488653421402,-0.1559419482946396,0.999577522277832,0.48327454924583435,0.6948862671852112,0.06316430866718292,0.9971242547035217,0.5188325643539429,0.7106281518936157,-0.06319399923086166,0.9983193874359131,0.49223628640174866,0.8131399154663086,0.19110924005508423,0.6613640189170837,0.5171198844909668,0.8650484681129456,0.036153994500637054,0.8832739591598511,0.47729772329330444,0.9027089476585388,0.3187530040740967,0.6574310064315796,0.5007476806640625,1.01027250289917,0.14283087849617004,0.861945390701294,0.5164952874183655,0.6781006455421448,0.09606708586215973,0.22601689398288727,0.5841772556304932,0.7177005410194397,-0.11365310102701187,0.721655011177063,179.44454411250658,0.5010535567998886,0.7027572095394135,168.59601285929142,174.1341009304668,0.6525969695505737,0.007416649153110079,-0.012569944766620912,-0.1331160282497623,-0.13004443122177153,2.6178073039018805,0.1623983111166559,73,1762115228.388366
0.5361870527267456,0.35930198431015015,-0.02581966482102871,0.9989519119262695,0.4828155040740967,0.4384625256061554,0.04392186552286148,0.9988605380058289,0.5251153111457825,0.4415321350097656,-0.15686474740505219,0.9996150732040405,0.48433834314346313,0.6939401030540466,0.06418806314468384,0.9967902898788452,0.5182280540466309,0.7115792036056519,-0.0641934722661972,0.9983493685722351,0.4912479519844055,0.8125194311141968,0.1939390003681183,0.623206377029419,0.5163031220436096,0.8663873672485352,0.03427984565496445,0.8891432285308838,0.47841697931289673,0.9050101637840271,0.3238754868507385,0.6254403591156006,0.5004749298095703,1.0108287334442139,0.13807527720928192,0.8697739839553833,0.5147802233695984,0.6796883344650269,0.08814653009176254,0.20618686079978943,0.5810834765434265,0.7204834222793579,-0.11932690441608429,0.7477962374687195,179.41515999247778,0.501283198595047,0.7027596533298492,170.2118437598154,174.45222258676864,0.6530476972738366,0.0033914336316838377,3.6090786814363075e-05,-0.059445848194686624,0.18617052226331762,4.150560511266185,0.1871667829086297,74,1762115228.4560783
0.5390888452529907,0.3590620756149292,-0.06655725836753845,0.9988439679145813,0.48988455533981323,0.4375082552433014,0.039695631712675095,0.9987917542457581,0.5194551944732666,0.4445217549800873,-0.1665845811367035,0.999644935131073,0.4885251522064209,0.6930980086326599,0.06278353184461594,0.995991051197052,0.5129643678665161,0.7110634446144104,-0.06274314224720001,0.99815434217453,0.5005375742912292,0.8231726884841919,0.18198440968990326,0.584362268447876,0.5144754648208618,0.8720817565917969,0.02822449803352356,0.891017496585846,0.4921360909938812,0.9277886152267456,0.29320842027664185,0.5888439416885376,0.5007777214050293,1.0122826099395752,0.1317717730998993,0.8717696070671082,0.5131704211235046,0.6811877489089966,0.05133913829922676,0.18861764669418335,0.5741562247276306,0.7266319990158081,-0.11923462152481079,0.771588146686554,179.138624667064,0.5007447600364685,0.7020807266235352,171.75899242461762,171.42653185523267,0.6730331132021498,-0.008172923814073333,-0.010305384259058206,-0.1755346285236501,-0.15697257621778601,13.342743283755846,0.355194299484796,75,1762115228.521959
0.5394467115402222,0.35813623666763306,-0.07452913373708725,0.9987033009529114,0.49559035897254944,0.43790850043296814,0.03463363274931908,0.9986973404884338,0.5171992182731628,0.44799771904945374,-0.16938970983028412,0.9996638298034668,0.49440431594848633,0.6933063268661499,0.06377734243869781,0.9951941967010498,0.5085514783859253,0.7111712694168091,-0.06374260038137436,0.9978750944137573,0.5056812167167664,0.8364095091819763,0.1683654487133026,0.5451099872589111,0.5138516426086426,0.8730466365814209,0.026451796293258667,0.8891280889511108,0.4969862103462219,0.9657713174819946,0.2740723490715027,0.5528272390365601,0.5012106895446777,1.0127040147781372,0.131832093000412,0.8668003678321838,0.5332000851631165,0.6843995451927185,0.05016192048788071,0.17287003993988037,0.5664793252944946,0.7330558896064758,-0.10973943769931793,0.790177047252655,178.9136177591818,0.5014778971672058,0.7022387981414795,172.67934652477868,170.20180415458407,0.6905888058243708,0.011548168066217009,0.0024898977001306913,0.31064104372106127,0.20154765094320864,25.027962588514956,0.46085863746637185,76,1762115228.5854442
0.542060136795044,0.36093223094940186,-0.09229694306850433,0.9986383318901062,0.5049470067024231,0.43969616293907166,0.032576240599155426,0.9983668327331543,0.5095290541648865,0.45669201016426086,-0.18028667569160461,0.9996808171272278,0.49883967638015747,0.6974920630455017,0.0657399371266365,0.9920254349708557,0.5056150555610657,0.712924599647522,-0.0656738355755806,0.9972927570343018,0.5068156123161316,0.8381967544555664,0.15795579552650452,0.5052059888839722,0.5110293626785278,0.874086320400238,0.014184115454554558,0.881817102432251,0.49404653906822205,0.9694595336914062,0.25940799713134766,0.511288583278656,0.4951246380805969,1.0326515436172485,0.11126110702753067,0.8472743630409241,0.5405820608139038,0.6816006898880005,0.05234050750732422,0.15955771505832672,0.5548657774925232,0.7428576946258545,-0.13402554392814636,0.8051735162734985,178.8831219750997,0.5022273659706116,0.7052083313465118,171.59004422111303,171.62936389867343,0.6993503620460425,0.011609141067590424,0.04599755149975256,0.0009444611584121449,0.6739259702131237,74.9118916670641,0.34946992512503233,77,1762115228.6500027
0.5429858565330505,0.3640635907649994,-0.09829967468976974,0.9987332224845886,0.5088025331497192,0.4411822557449341,0.030907010659575462,0.9981877207756042,0.506332278251648,0.4571239948272705,-0.1753627359867096,0.9997069835662842,0.4987545609474182,0.698863685131073,0.06489064544439316,0.9900773167610168,0.5013827085494995,0.7123393416404724,-0.06481795758008957,0.99705970287323,0.5039438009262085,0.8466501832008362,0.14325633645057678,0.478401243686676,0.5089186429977417,0.8740411400794983,0.0038587104063481092,0.8838410377502441,0.4921036660671234,0.9742016196250916,0.2245284616947174,0.48406413197517395,0.4945085942745209,1.042076587677002,0.0864134430885315,0.8419656157493591,0.5346108078956604,0.6188233494758606,0.09860974550247192,0.14688953757286072,0.5430417656898499,0.745408296585083,-0.14929643273353577,0.8179671168327332,178.3250994891249,0.5000686347484589,0.7056015133857727,172.2411346304062,172.44020250902324,0.6940467366684573,-0.0346316475934029,0.006307659649337535,-0.7418221781920646,-0.6367288032333892,98.8082246909987,0.571287407671409,78,1762115228.7123368
0.5432698130607605,0.3651635944843292,-0.10394038259983063,0.9987771511077881,0.5088168382644653,0.44218626618385315,0.026596292853355408,0.9979574084281921,0.5060119032859802,0.45844566822052,-0.18049800395965576,0.9997266530990601,0.4984676241874695,0.6994532942771912,0.06532727926969528,0.9882165193557739,0.5002836585044861,0.7120977640151978,-0.06525640189647675,0.9967925548553467,0.5026811361312866,0.8486462235450745,0.1427440345287323,0.45191752910614014,0.5081671476364136,0.8740352988243103,0.00447364617139101,0.8855380415916443,0.4921191334724426,0.9856326580047607,0.2301742136478424,0.4584353566169739,0.4941712021827698,1.0447016954421997,0.08938025683164597,0.8375025391578674,0.5327522158622742,0.6446405053138733,0.08391322195529938,0.13477551937103271,0.5415236353874207,0.746120810508728,-0.1466052234172821,0.8293431997299194,178.19762733012058,0.4993756413459778,0.7057755291461945,172.7183805527819,172.52896115819314,0.7032525285716776,-0.010886072867822205,0.0027335732798010517,0.37301373407814864,-0.05614449504910919,99.78784743991754,0.6546210433691926,79,1762115228.7759955
0.5427728891372681,0.364857941865921,-0.10052023828029633,0.9988942742347717,0.510956883430481,0.4422000050544739,0.03291698917746544,0.9980534315109253,0.5048248171806335,0.4574851095676422,-0.17195847630500793,0.9997518062591553,0.5003276467323303,0.6991968750953674,0.06462259590625763,0.9883413314819336,0.4993607997894287,0.7092109322547913,-0.06457720696926117,0.9968412518501282,0.5024672746658325,0.8476654291152954,0.14192502200603485,0.4357524812221527,0.5070194602012634,0.8740943074226379,-0.002256427425891161,0.8849849700927734,0.4939039349555969,0.9870063066482544,0.22062714397907257,0.4367982745170593,0.4946240484714508,1.04483962059021,0.07098838686943054,0.8316832184791565,0.5349938869476318,0.40355247259140015,0.21933893859386444,0.15357626974582672,0.5271020531654358,0.7438859939575195,-0.14234936237335205,0.8377840518951416,178.18807348931813,0.4998442232608795,0.7042039036750793,175.70297946557923,173.19876321529043,0.6977938528598361,0.00590078662143093,-0.019791260095475424,0.21139457742580353,-0.2836520813200097,111.8596307211898,0.7677803983022876,80,1762115228.8554056
0.5434534549713135,0.36445266008377075,-0.11870606988668442,0.998995304107666,0.5173070430755615,0.4451705515384674,0.032638974487781525,0.9980274438858032,0.4996863305568695,0.45772168040275574,-0.1875832974910736,0.9997745156288147,0.5022385716438293,0.6990540623664856,0.06561552733182907,0.9879828691482544,0.49623847007751465,0.7081952691078186,-0.06558863818645477,0.996921181678772,0.5011962652206421,0.8492461442947388,0.15896539390087128,0.41960346698760986,0.503337025642395,0.8777008056640625,-0.007533473428338766,0.8863593935966492,0.4932977259159088,0.9827718138694763,0.25111228227615356,0.4201711118221283,0.49372047185897827,1.0483448505401611,0.056392304599285126,0.8273091912269592,0.5319891571998596,0.5387300848960876,0.14999058842658997,0.1463579535484314,0.5153974890708923,0.7450616359710693,-0.1723231077194214,0.8481188416481018,177.89745912727324,0.499238520860672,0.7036246657371521,176.28922897698354,174.4468795296962,0.7075779778358332,-0.007342740210643144,-0.0070219198353700125,-0.16054712176686942,0.15479870669017762,144.5379549665445,1.0570436440514768,81,1762115228.9378955
0.5427785515785217,0.3643689751625061,-0.13941000401973724,0.9990839958190918,0.5214635729789734,0.4469161033630371,0.016183270141482353,0.9979276061058044,0.4953312277793884,0.4573591947555542,-0.19080397486686707,0.9997953176498413,0.503339409828186,0.6994937062263489,0.06506481766700745,0.9880864024162292,0.49101537466049194,0.7081255912780762,-0.06504122912883759,0.9970839023590088,0.5011193752288818,0.8491162061691284,0.1679965853691101,0.40294912457466125,0.501548171043396,0.8773084282875061,-0.00047023239312693477,0.8904811143875122,0.4930900037288666,0.9781327247619629,0.27318257093429565,0.4071272909641266,0.4940977096557617,1.0217430591583252,0.07738272845745087,0.8275877237319946,0.5306130647659302,0.6380693912506104,0.09602921456098557,0.13601279258728027,0.5074344873428345,0.7425482869148254,-0.1866745799779892,0.8599430322647095,177.44733734063743,0.497177392244339,0.7038096487522125,174.88157992762007,170.48149569006034,0.7109138122957981,-0.025706291127835647,0.0023070987424880837,-0.22902927176763588,0.11635104456803179,158.2172042183877,1.4494418349900364,82,1762115229.0180755
0.5425722002983093,0.364141583442688,-0.16544285416603088,0.9991697669029236,0.5255125164985657,0.4488462209701538,0.006118605379015207,0.9979029297828674,0.4902612268924713,0.45932620763778687,-0.18803943693637848,0.9998143911361694,0.5082603096961975,0.7018706202507019,0.06425068527460098,0.9889973402023315,0.49021586775779724,0.7096264958381653,-0.06425943225622177,0.9973204135894775,0.5015398859977722,0.8479713201522827,0.1677115261554718,0.4157956838607788,0.5007113218307495,0.8760848045349121,0.02544429339468479,0.8991590738296509,0.49337252974510193,0.9422807693481445,0.2734678387641907,0.43009546399116516,0.4931974411010742,0.9995637536048889,0.12879744172096252,0.8383806347846985,0.5330159068107605,0.6639066934585571,0.049041371792554855,0.1288232058286667,0.4942614436149597,0.7409258484840393,-0.19367024302482605,0.8729228973388672,178.03171263096795,0.4992380887269974,0.7057485580444336,166.9838258262875,166.99688324058715,0.7106262124958973,0.027997031271257265,0.02634240633847071,0.7296239932618279,0.3265484577869133,163.4431174727439,1.1029334031306093,83,1762115229.0916796
0.5408716797828674,0.36449334025382996,-0.18817725777626038,0.9992501735687256,0.5270662307739258,0.4509075880050659,0.010134119540452957,0.9977987408638,0.4896579384803772,0.4595790505409241,-0.1834997832775116,0.9998316764831543,0.5093496441841125,0.70269376039505,0.06414777785539627,0.9898290634155273,0.49044713377952576,0.7100550532341003,-0.06413321942090988,0.9975365400314331,0.5017973184585571,0.8473367691040039,0.1672266125679016,0.43121981620788574,0.5006674528121948,0.8748099207878113,0.024939807131886482,0.9072077870368958,0.4934539794921875,0.9350058436393738,0.2710498571395874,0.4519215226173401,0.49295854568481445,0.9947291016578674,0.12704269587993622,0.8479709029197693,0.5329528450965881,0.6700054407119751,0.04504399001598358,0.12256286293268204,0.4924984574317932,0.7399213910102844,-0.19777211546897888,0.8848334550857544,178.06973096796105,0.49989838898181915,0.7063744068145752,165.623139030706,166.60023253317647,0.7160049974337251,0.009069533637015617,0.008596326339471383,-0.25997805574771754,-0.2437507305211269,166.94900294311356,1.054387181547852,84,1762115229.1644838
0.5373591184616089,0.36460626125335693,-0.19748565554618835,0.9993231892585754,0.5289103984832764,0.4510735273361206,0.017610520124435425,0.9976114630699158,0.4879956841468811,0.4588202238082886,-0.1720067709684372,0.9998469352722168,0.5124951601028442,0.6975454688072205,0.06332172453403473,0.9906603097915649,0.4896978437900543,0.7036215662956238,-0.06334163248538971,0.9977355599403381,0.5050169229507446,0.8445980548858643,0.15756690502166748,0.45963484048843384,0.49932894110679626,0.8686566948890686,0.014296559616923332,0.9148226976394653,0.49559226632118225,0.9283739924430847,0.2446824610233307,0.4821331799030304,0.4913962781429291,0.986924409866333,0.08891121298074722,0.8568944931030273,0.5346978902816772,0.6639865636825562,0.06030593067407608,0.11851897090673447,0.48522886633872986,0.7350660562515259,-0.19218839704990387,0.8956816792488098,178.2845690158406,0.5010965019464493,0.7005835175514221,166.4010675851264,170.55185877208683,0.6973706243302267,0.01838259501774152,-0.08884936167099536,0.14288989501929322,-1.4951049456965018,169.278664135392,0.8475607962669087,85,1762115229.2296603
0.5352029800415039,0.36451107263565063,-0.21141520142555237,0.9993879795074463,0.5300625562667847,0.4505249857902527,0.01265273243188858,0.9976024627685547,0.4853309094905853,0.4578108787536621,-0.17386199533939362,0.9998604655265808,0.5153132081031799,0.6911143660545349,0.06317346543073654,0.9914901852607727,0.48947280645370483,0.6981601715087891,-0.06319111585617065,0.9979263544082642,0.5067762136459351,0.8358433842658997,0.17279134690761566,0.4830072820186615,0.49803608655929565,0.8625544309616089,0.030205726623535156,0.9215389490127563,0.496999591588974,0.9214175939559937,0.27731624245643616,0.5097460746765137,0.48813289403915405,0.9733816981315613,0.13572050631046295,0.8650718927383423,0.542632520198822,0.6555549502372742,0.04013536497950554,0.12495570629835129,0.4788769781589508,0.718372106552124,-0.21994523704051971,0.9053096175193787,178.73650488436743,0.5023930072784424,0.694637268781662,166.38513964159876,164.6572363377788,0.7185022297527418,0.02016366012829545,-0.09247793763209611,0.027699686742025238,-0.05643275860413333,170.74889985792004,0.5389468109726874,86,1762115229.2939594
0.5327085852622986,0.36448150873184204,-0.20765283703804016,0.9994472861289978,0.5302765965461731,0.44972240924835205,0.008271199651062489,0.9977205395698547,0.48203206062316895,0.45615607500076294,-0.1643456220626831,0.9998728036880493,0.5157901048660278,0.6862133145332336,0.06238469481468201,0.9922149181365967,0.4880964159965515,0.6934475302696228,-0.062429897487163544,0.9980942010879517,0.5076303482055664,0.8318831324577332,0.17598369717597961,0.5177186727523804,0.4954696297645569,0.8570526838302612,0.02175118774175644,0.9281366467475891,0.4973572790622711,0.9218912720680237,0.2858142554759979,0.542540967464447,0.48237085342407227,0.9718847274780273,0.10847793519496918,0.8730851411819458,0.5452386736869812,0.654979944229126,0.01843300089240074,0.14824147522449493,0.47164487838745117,0.7129397988319397,-0.21912148594856262,0.9138433337211609,178.98159558944158,0.5019432604312897,0.6898304224014282,167.1946631584287,167.63293836121454,0.7105597436300688,-0.005595592641152356,-0.05980509791823634,-0.32048759463424087,0.4065040202635305,172.40411863213416,0.3603230932884865,87,1762115229.3743346
0.5302118062973022,0.36444905400276184,-0.18498262763023376,0.999498724937439,0.5307676792144775,0.4470984935760498,0.011983057484030724,0.997833788394928,0.47943004965782166,0.45267316699028015,-0.1305946260690689,0.9998834133148193,0.5180302262306213,0.6822039484977722,0.05741038918495178,0.9928324222564697,0.48683446645736694,0.6895714998245239,-0.0574633963406086,0.9982284307479858,0.5088002681732178,0.8307403326034546,0.12797829508781433,0.5457943081855774,0.4903567433357239,0.856063187122345,0.011480370536446571,0.9322441220283508,0.49858394265174866,0.9205130934715271,0.26332056522369385,0.5617771744728088,0.4761110842227936,0.9661047458648682,0.11362206935882568,0.8779231309890747,0.5481595993041992,0.6248010396957397,0.021219607442617416,0.17966517806053162,0.46622753143310547,0.7054586410522461,-0.2046603411436081,0.9212032556533813,179.3526588735943,0.5024323463439941,0.6858877241611481,149.01850527132888,158.6216113847709,0.6902057234318061,0.007500731288164101,-0.06046610479359391,0.20084816206087144,-0.010137349743463222,173.80262290601266,0.21799540279354163,88,1762115229.4395397
0.5293533802032471,0.36441293358802795,-0.19135847687721252,0.9995459318161011,0.5313372015953064,0.44630953669548035,0.011936688795685768,0.9979878067970276,0.47856348752975464,0.45133212208747864,-0.1329733282327652,0.9998931288719177,0.5187441110610962,0.6814825534820557,0.05612145736813545,0.9934460520744324,0.48620638251304626,0.6892518997192383,-0.05617215111851692,0.9983619451522827,0.5093288421630859,0.8300043940544128,0.12934201955795288,0.5694989562034607,0.48978185653686523,0.8552525639533997,0.011869520880281925,0.9357820749282837,0.4985913336277008,0.9200736880302429,0.27348488569259644,0.5770696997642517,0.4747556746006012,0.9611915349960327,0.1360889971256256,0.8816008567810059,0.5494598150253296,0.6245706081390381,0.0052362410351634026,0.2149750143289566,0.4664901793003082,0.7048618197441101,-0.2042217254638672,0.9276028871536255,179.40050880923616,0.5024752467870712,0.685367226600647,148.2960057204345,152.03311436204655,0.7005582641581957,0.000653937708969327,-0.007934020206425352,-0.10436667283177409,0.8007542248593524,174.56341503745261,0.19212353561281198,89,1762115229.505143
0.5277702808380127,0.36359021067619324,-0.2009958028793335,0.999586820602417,0.5325812697410583,0.44503721594810486,0.010888978838920593,0.9981328845024109,0.47576361894607544,0.4486958086490631,-0.13260555267333984,0.999900758266449,0.5198093056678772,0.6806437969207764,0.055035464465618134,0.9940025210380554,0.4854361116886139,0.6872013211250305,-0.055076442658901215,0.9984752535820007,0.5105999708175659,0.829897403717041,0.1145261749625206,0.5877495408058167,0.48623189330101013,0.8543297648429871,-0.0009325966238975525,0.9375683069229126,0.4982438087463379,0.922398030757904,0.2760618329048157,0.585052490234375,0.47025853395462036,0.9590833187103271,0.1415337473154068,0.8805696964263916,0.5500821471214294,0.6259361505508423,0.006669820286333561,0.2511419951915741,0.4635423719882965,0.7000541090965271,-0.20216712355613708,0.9329870343208313,179.6254385859521,0.5026227086782455,0.6839225590229034,141.59899441216174,143.91228479480628,0.7091737163122035,0.0021706324138415106,-0.02126544184740647,0.02232567792315652,-0.19623792768461315,176.31570616886663,0.10940010192023474,90,1762115229.573078
0.5250738263130188,0.36313849687576294,-0.20123545825481415,0.9996253848075867,0.5327793955802917,0.4449610412120819,0.004117674194276333,0.9982661604881287,0.4719312787055969,0.4476732611656189,-0.1255916804075241,0.9999074935913086,0.5218177437782288,0.6796473860740662,0.0491974912583828,0.9945293068885803,0.4844551682472229,0.6865098476409912,-0.04924248903989792,0.9985882639884949,0.5121856927871704,0.8258175253868103,0.11999547481536865,0.6180036664009094,0.48105257749557495,0.8511156439781189,0.0012865607859566808,0.9411236047744751,0.5006029009819031,0.9181864261627197,0.2857077419757843,0.6132348775863647,0.4674178957939148,0.9476472735404968,0.1619345247745514,0.886277437210083,0.5498000383377075,0.6272752285003662,0.010033761151134968,0.2888767719268799,0.45721369981765747,0.6980587840080261,-0.19870761036872864,0.9374290704727173,-179.81097155302766,0.5031364560127258,0.6830786168575287,145.0414023455404,138.00656432217374,0.7120440174040682,0.008105857414777644,-0.013315640587735203,0.0936454251989077,0.12543122107271545,177.44780987164975,0.06194569205157515,91,1762115229.6364577
0.5215129852294922,0.3614750802516937,-0.2214350700378418,0.9996590614318848,0.5331138968467712,0.4433634579181671,-0.021764857694506645,0.9983558654785156,0.468740314245224,0.4455246925354004,-0.13390906155109406,0.9999133348464966,0.5220014452934265,0.675174355506897,0.04321129247546196,0.9949870705604553,0.4829595983028412,0.6815059185028076,-0.04326789081096649,0.9986861348152161,0.5119997262954712,0.8176809549331665,0.11755402386188507,0.6475216746330261,0.47882455587387085,0.8428038954734802,0.012293213978409767,0.944499135017395,0.5018297433853149,0.9080304503440857,0.2936323285102844,0.6413463950157166,0.46502676606178284,0.9366135597229004,0.1789403110742569,0.8921381831169128,0.5485615730285645,0.6278530359268188,-0.01762441173195839,0.31059467792510986,0.45037466287612915,0.6972021460533142,-0.20110854506492615,0.9413261413574219,-179.61947676332906,0.5024805217981339,0.6783401370048523,144.76428111536632,138.34548830186137,0.7249197131013346,-0.008287183603880945,-0.05986675442269287,-0.20711244775069595,-0.588134631085569,178.07711295587478,0.1296146000328689,92,1762115229.7156081
0.5184863209724426,0.36117109656333923,-0.24251914024353027,0.999687671661377,0.5333168506622314,0.4417005777359009,-0.047279588878154755,0.9984322786331177,0.46490997076034546,0.4452519416809082,-0.13782334327697754,0.9999189972877502,0.5221555233001709,0.670656144618988,0.03619658201932907,0.9953446984291077,0.48094210028648376,0.6771442294120789,-0.03623491898179054,0.9987620711326599,0.511860728263855,0.8126644492149353,0.11164690554141998,0.6775918006896973,0.47576355934143066,0.8347124457359314,0.017411306500434875,0.9483023881912231,0.5034159421920776,0.9090387225151062,0.2761688828468323,0.6714456677436829,0.46561670303344727,0.9389902949333191,0.17139612138271332,0.8993166089057922,0.5478740930557251,0.6278266310691833,-0.059254299849271774,0.33279719948768616,0.4459471106529236,0.6980413794517517,-0.20142588019371033,0.9447576999664307,-179.39445087349193,0.5015488117933273,0.6739001870155334,148.3681190523531,142.9168882039997,0.7316993160223004,-0.014667823965468707,-0.06989771980857652,-0.10044982787339399,-0.15791655528525234,177.0281402074642,0.26196062420667227,93,1762115229.7791288
0.5179306268692017,0.3607967793941498,-0.246649831533432,0.999714195728302,0.5328835248947144,0.4415394961833954,-0.0479082316160202,0.9984579086303711,0.4645423889160156,0.4443979561328888,-0.14497879147529602,0.9999247789382935,0.521739661693573,0.6690952181816101,0.03736979141831398,0.9956488013267517,0.4797440469264984,0.6742866635322571,-0.03741999343037605,0.9988335371017456,0.511619508266449,0.8120251893997192,0.11290234327316284,0.7037823796272278,0.4745253026485443,0.8333143591880798,0.016764800995588303,0.9518507122993469,0.5050370097160339,0.907922089099884,0.2741810381412506,0.6979413032531738,0.4656337797641754,0.9407501816749573,0.16225677728652954,0.9060934782028198,0.5474239587783813,0.6277338266372681,-0.05910738557577133,0.3405950367450714,0.445546954870224,0.6983686089515686,-0.20966434478759766,0.9481954574584961,-179.49176685965145,0.5007418543100357,0.6716909408569336,148.58731073786734,145.26972947295116,0.7312605552333962,-0.011675468795275482,-0.03196449022394547,0.04329490727499249,0.5488371413482827,177.6049229763747,0.2621988362087121,94,1762115229.8482444
0.5155192613601685,0.3601631224155426,-0.2585919499397278,0.9997374415397644,0.5328567028045654,0.43998265266418457,-0.06796662509441376,0.9985421299934387,0.4608871340751648,0.4441150724887848,-0.1437818706035614,0.9999300837516785,0.5213240385055542,0.6676309108734131,0.03187963739037514,0.9959299564361572,0.4781392216682434,0.6731050610542297,-0.03194281458854675,0.9988954067230225,0.5115360617637634,0.8124048709869385,0.10655982792377472,0.7279362082481384,0.4725635051727295,0.8300521969795227,0.02199886180460453,0.9548852443695068,0.5050962567329407,0.9098386764526367,0.26459673047065735,0.721880316734314,0.46497035026550293,0.9419254064559937,0.17143626511096954,0.9110061526298523,0.5476413369178772,0.6063176393508911,-0.11185022443532944,0.3660045266151428,0.4406067728996277,0.6977472305297852,-0.1938701570034027,0.9506828784942627,-179.2824042143528,0.4997316300868988,0.6703679859638214,148.94080795140894,145.8063480445692,0.7403532274753807,-0.018336532095084367,-0.024012891695048014,-0.1209046449164208,0.14432908882308096,176.71374266827266,0.4075126198658969,95,1762115229.903338
0.5130909085273743,0.35867035388946533,-0.2906360328197479,0.9997594356536865,0.5325771570205688,0.44007712602615356,-0.09353221207857132,0.9986270666122437,0.45715656876564026,0.44423234462738037,-0.17151108384132385,0.9999352693557739,0.5209363698959351,0.6677005887031555,0.03180072829127312,0.9962156414985657,0.4766262173652649,0.6732907891273499,-0.031873542815446854,0.9989606738090515,0.5114362239837646,0.8132373094558716,0.11080336570739746,0.7501273155212402,0.47158876061439514,0.8295486569404602,0.025793815031647682,0.9578304290771484,0.5052110552787781,0.9112030267715454,0.26631373167037964,0.7443535923957825,0.46390166878700256,0.9423567652702332,0.1818116456270218,0.916256844997406,0.5475775599479675,0.6189625859260559,-0.10538943111896515,0.39742186665534973,0.435823529958725,0.6979678273200989,-0.2227877676486969,0.9535216689109802,-179.01787922700208,0.4987812936306,0.6704956889152527,150.7017308039783,146.13977523318073,0.76712283637347,-0.01185163160633316,0.001592581580316658,0.0808730961408493,0.3193254708414633,176.84653685812452,0.5626502002584118,96,1762115229.983524
0.5106500387191772,0.35817858576774597,-0.29192087054252625,0.9997747540473938,0.5328065156936646,0.4401542544364929,-0.10086829960346222,0.9986928105354309,0.4541843831539154,0.444397509098053,-0.16604146361351013,0.999938428401947,0.5205532908439636,0.6680453419685364,0.028620775789022446,0.9964696764945984,0.4735809862613678,0.6719539761543274,-0.028719216585159302,0.9990101456642151,0.5111557841300964,0.8141130208969116,0.10151831805706024,0.7704883813858032,0.4701594412326813,0.8293466567993164,0.027402814477682114,0.9604602456092834,0.5054201483726501,0.9126636981964111,0.2656407952308655,0.7651310563087463,0.4633830487728119,0.9442865252494812,0.18573208153247833,0.9213432669639587,0.5442744493484497,0.6375487446784973,-0.10921700298786163,0.4247859716415405,0.4285888671875,0.6968067288398743,-0.21463331580162048,0.9545662999153137,-179.10142920867176,0.4970671385526657,0.6699996590614319,147.49755962905158,145.60446030662834,0.7706130250511226,-0.02676995639919128,-0.007746497227941751,-0.232979448239339,-0.14584837493639896,176.9107306732138,0.5708296428377206,97,1762115230.0475569
0.5092682242393494,0.3581558167934418,-0.2801887094974518,0.9997878074645996,0.5326690673828125,0.4404991567134857,-0.09261965751647949,0.9987336993217468,0.4519422650337219,0.44442540407180786,-0.16253510117530823,0.9999415278434753,0.519197404384613,0.6686643958091736,0.028710514307022095,0.9966763854026794,0.47121191024780273,0.6726977229118347,-0.02879628911614418,0.9990554451942444,0.5114193558692932,0.8162813186645508,0.1007600650191307,0.7883700132369995,0.4690071642398834,0.830697774887085,0.028159771114587784,0.9627950191497803,0.5059435367584229,0.9132989645004272,0.26662272214889526,0.7825331687927246,0.46327224373817444,0.9455214738845825,0.18450412154197693,0.9254641532897949,0.5423769950866699,0.6369912624359131,-0.1041155681014061,0.4385548233985901,0.4221038818359375,0.6966292262077332,-0.2110314816236496,0.9555413722991943,-179.2722289415259,0.4952046573162079,0.6706810593605042,146.34621542960326,146.11053156335055,0.7633642267559665,-0.027833920643630324,0.010183212308218543,-0.01590045352816472,0.26795121616471035,177.21554341172381,0.5170888129228212,98,1762115230.114471
0.5088354349136353,0.35793375968933105,-0.29489246010780334,0.9998025298118591,0.5325550436973572,0.4422003924846649,-0.10789278894662857,0.9987916946411133,0.4514135718345642,0.44449475407600403,-0.17136138677597046,0.9999436736106873,0.5184810757637024,0.669061005115509,0.028238046914339066,0.9969184994697571,0.47087788581848145,0.6734265089035034,-0.028344159945845604,0.9991083145141602,0.5115076899528503,0.8171300888061523,0.09963710606098175,0.8036129474639893,0.46890512108802795,0.8312994837760925,0.03228557109832764,0.9641947150230408,0.5061726570129395,0.9135788679122925,0.27221712470054626,0.7967649102210999,0.463408887386322,0.9432522058486938,0.1963389813899994,0.9280523657798767,0.5439022183418274,0.6425593495368958,-0.09898053109645844,0.4686068296432495,0.4209754467010498,0.6964683532714844,-0.21373096108436584,0.9572457075119019,-179.3224334070658,0.4946794807910919,0.6712437570095062,144.95114655114133,145.31182156348498,0.7784915130577256,-0.00963806131780334,0.010326650535776012,0.33393116319073723,0.0026323842868084062,178.3803323415904,0.4975734677807177,99,1762115230.1689608
0.5077885389328003,0.35795435309410095,-0.3189414143562317,0.9998204708099365,0.5327253937721252,0.4453601837158203,-0.12772980332374573,0.9988966584205627,0.45003700256347656,0.4446246325969696,-0.17809513211250305,0.9999454617500305,0.5165082812309265,0.6695551872253418,0.026849236339330673,0.9971756935119629,0.4679529666900635,0.673565685749054,-0.026969078928232193,0.9991675019264221,0.5120543241500854,0.8206373453140259,0.09079324454069138,0.819892406463623,0.46872735023498535,0.8316773176193237,0.030450472608208656,0.966310977935791,0.5067831873893738,0.9117817282676697,0.28015080094337463,0.8123705983161926,0.46364626288414,0.9438837766647339,0.20013515651226044,0.9324511289596558,0.5438417196273804,0.6624372005462646,-0.13059422373771667,0.5165202021598816,0.4169105589389801,0.6967271566390991,-0.222815603017807,0.9591226577758789,-179.78519350118614,0.492230623960495,0.6715604364871979,138.6558468672163,143.39596457920328,0.7986528192715316,-0.02903697735561021,0.0037549826138580274,-0.2300199336585461,-0.07792263322752464,-179.490341237058,0.16407328710337526,100,1762115230.2532966
0.5072325468063354,0.359817236661911,-0.3153451383113861,0.9998366236686707,0.5327047109603882,0.44625145196914673,-0.12170873582363129,0.9989993572235107,0.44837212562561035,0.4451638460159302,-0.17307431995868683,0.9999465942382812,0.5156435370445251,0.6696692705154419,0.023362888023257256,0.9974133372306824,0.4672304093837738,0.6739216446876526,-0.0234525166451931,0.9992260336875916,0.5129835605621338,0.8304857015609741,0.07707317173480988,0.8336459398269653,0.46877485513687134,0.8322009444236755,0.015445217490196228,0.9673526287078857,0.5088030695915222,0.9123350381851196,0.2906514108181,0.8231801390647888,0.4640326499938965,0.9452950358390808,0.19024942815303802,0.9345639944076538,0.5438169836997986,0.6612803339958191,-0.12235227972269058,0.5615665316581726,0.41414278745651245,0.6959015130996704,-0.19487307965755463,0.9607418179512024,-179.77228699817016,0.4914369732141495,0.6717954576015472,129.4432059459153,136.67061863059143,0.7956760962009964,-0.010645455039686854,0.00315240263768876,0.2466905308501065,-0.00808257041735688,-179.26111862726424,0.20136370128777853,101,1762115230.3278496
0.5061968564987183,0.36038339138031006,-0.3243895173072815,0.9998514652252197,0.5326675176620483,0.4470584988594055,-0.13256312906742096,0.9990949034690857,0.4473734498023987,0.44529229402542114,-0.1715814620256424,0.999946653842926,0.5144680142402649,0.6699404120445251,0.018123287707567215,0.997635543346405,0.4659572243690491,0.6736552119255066,-0.018204400315880775,0.999278724193573,0.5140714645385742,0.8351927995681763,0.06167592480778694,0.847255289554596,0.46890467405319214,0.8323187232017517,0.01571640744805336,0.9682815670967102,0.5116804838180542,0.9124211668968201,0.29086336493492126,0.8337622880935669,0.4641474187374115,0.9455419778823853,0.20013609528541565,0.9362616539001465,0.5431188344955444,0.6631314754486084,-0.13232114911079407,0.6033468842506409,0.41065993905067444,0.6940292119979858,-0.1783396303653717,0.9619287848472595,-179.95120806278402,0.490212619304657,0.6717978119850159,123.38547086327216,133.5599081120235,0.8052402811536586,-0.01929234101223214,3.709839810056202e-05,-0.13625036975246665,-0.049088348786259645,-178.81373200913754,0.05374244191605106,102,1762115230.3913128
0.5051788687705994,0.36059629917144775,-0.31951794028282166,0.9998649954795837,0.532685399055481,0.44716906547546387,-0.13635143637657166,0.9991825819015503,0.4472576081752777,0.4451279044151306,-0.1569093018770218,0.9999461770057678,0.5133482217788696,0.6689775586128235,0.0112533550709486,0.9978266954421997,0.4648982882499695,0.6722659468650818,-0.011314758099615574,0.9993118643760681,0.5153771042823792,0.8386455774307251,0.018164774402976036,0.8590705394744873,0.4687136709690094,0.8339791297912598,0.010106785222887993,0.9665802717208862,0.5149997472763062,0.9161450862884521,0.2656415104866028,0.8355644345283508,0.4643770158290863,0.9464123249053955,0.1984090954065323,0.9311485290527344,0.5427228808403015,0.6630398631095886,-0.12809407711029053,0.6415191888809204,0.40905842185020447,0.6866582632064819,-0.1519496738910675,0.9638009667396545,179.78348943748435,0.48912325501441956,0.6706217527389526,109.7180439803884,128.3304635870286,0.793799920225376,-0.01181079718761309,-0.01275073670061521,0.08111427697300053,-0.13864464639891425,-178.63126899212327,0.3597313046277639,103,1762115230.4835474
0.504215657711029,0.36060792207717896,-0.3252590298652649,0.9998775124549866,0.5327404141426086,0.44770973920822144,-0.14459173381328583,0.9992620944976807,0.4471358358860016,0.4449518918991089,-0.15721020102500916,0.9999465942382812,0.5128145217895508,0.6679370403289795,0.007925836369395256,0.9980043768882751,0.46441441774368286,0.6708799600601196,-0.007988955825567245,0.9993442893028259,0.5158883333206177,0.8380363583564758,0.021488424390554428,0.8705883026123047,0.46826353669166565,0.8344181776046753,0.012052865698933601,0.9655200242996216,0.5164911150932312,0.9212106466293335,0.25299158692359924,0.8422869443893433,0.4644896984100342,0.9462586045265198,0.20294830203056335,0.9279037117958069,0.5423370599746704,0.6635016798973083,-0.13764747977256775,0.6759725213050842,0.40806204080581665,0.68504399061203,-0.15840081870555878,0.9655499458312988,179.66003336768063,0.4886144697666168,0.6694085001945496,114.31893133437076,127.30352817441648,0.7966962400008027,-0.0066682290446058905,-0.015901101476447153,0.06739940358561883,-0.041289235468263484,-178.15479052063372,0.8343092812412362,104,1762115230.5598474
0.5038045644760132,0.3605680763721466,-0.3231445550918579,0.9998892545700073,0.5328313112258911,0.4482637047767639,-0.1505342274904251,0.9993345737457275,0.4468728005886078,0.44468438625335693,-0.1572849452495575,0.9999489784240723,0.5126000642776489,0.668079674243927,0.004479418508708477,0.9981774091720581,0.463785320520401,0.6709715723991394,-0.004560651257634163,0.9993818402290344,0.515636146068573,0.8373396396636963,0.0182238407433033,0.8818526864051819,0.46754151582717896,0.8345248103141785,0.02248912677168846,0.9655606150627136,0.5203858017921448,0.9355950355529785,0.22943532466888428,0.8522499203681946,0.4646167755126953,0.9463872313499451,0.2126012146472931,0.927257239818573,0.5422567129135132,0.6662379503250122,-0.1451762616634369,0.7072229385375977,0.4076673090457916,0.6813331246376038,-0.15535466372966766,0.9676095843315125,179.57376328493234,0.48819269239902496,0.6695256233215332,119.60144187152906,129.82350283722852,0.7956958395476774,-0.0066323843122846615,0.0018417431794579557,0.0005636529093126034,0.2790035065726947,-177.61557712491532,1.8165739912968633,105,1762115230.623441
0.5032069087028503,0.36060672998428345,-0.32042616605758667,0.9998998045921326,0.5332355499267578,0.44944703578948975,-0.14865447580814362,0.999399721622467,0.4467664361000061,0.44457322359085083,-0.15524756908416748,0.9999510645866394,0.5127097964286804,0.6681388020515442,0.0004740419390145689,0.9983233213424683,0.46348142623901367,0.6708604693412781,-0.0005474332137964666,0.9994016289710999,0.5149646401405334,0.8366518616676331,0.0142885847017169,0.8926050066947937,0.46728891134262085,0.8346880674362183,0.031214842572808266,0.9662906527519226,0.5212675929069519,0.947310209274292,0.19928863644599915,0.863446831703186,0.46467381715774536,0.9469646215438843,0.207744762301445,0.9281471371650696,0.5425511002540588,0.6686335206031799,-0.14101801812648773,0.7352784276008606,0.40800127387046814,0.6777368187904358,-0.1495499610900879,0.96956467628479,179.50933569047498,0.48809561133384705,0.6694996356964111,125.57763990063533,133.38696451795786,0.7865361727516705,-0.001531246356973364,-0.00040989925503630807,0.08045955095541873,-0.035514848016008745,-176.77394972867214,1.0327667781447325,106,1762115230.686841
