nose_x,nose_y,nose_z,nose_visibility,left_shoulder_x,left_shoulder_y,left_shoulder_z,left_shoulder_visibility,right_shoulder_x,right_shoulder_y,right_shoulder_z,right_shoulder_visibility,left_hip_x,left_hip_y,left_hip_z,left_hip_visibility,right_hip_x,right_hip_y,right_hip_z,right_hip_visibility,left_knee_x,left_knee_y,left_knee_z,left_knee_visibility,right_knee_x,right_knee_y,right_knee_z,right_knee_visibility,left_ankle_x,left_ankle_y,left_ankle_z,left_ankle_visibility,right_ankle_x,right_ankle_y,right_ankle_z,right_ankle_visibility,left_wrist_x,left_wrist_y,left_wrist_z,left_wrist_visibility,right_wrist_x,right_wrist_y,right_wrist_z,right_wrist_visibility,trunk_lateral_inclination,center_mass_x,center_mass_y,left_knee_angle,right_knee_angle,person_height,center_mass_velocity_x,center_mass_velocity_y,center_mass_acceleration_x,center_mass_acceleration_y,body_orientation,torso_leg_ratio,frame,timestamp
0.4888675808906555,0.16177067160606384,-0.20373642444610596,0.9999899864196777,0.5312833786010742,0.2532597482204437,-0.07473084330558777,0.9998065829277039,0.45212236046791077,0.2590341567993164,-0.0860629677772522,0.9999521970748901,0.5163988471031189,0.46099111437797546,0.003443145425990224,0.9999234676361084,0.4780983030796051,0.46621060371398926,-0.003562782658264041,0.9999433755874634,0.5229472517967224,0.5833262205123901,0.031241562217473984,0.9898424744606018,0.47733432054519653,0.5937833786010742,0.01893641985952854,0.9952098727226257,0.5220843553543091,0.6827749013900757,0.23508982360363007,0.9872645139694214,0.4857257008552551,0.6880982518196106,0.19364812970161438,0.9925801157951355,0.536079466342926,0.4565171003341675,-0.058792732656002045,0.6343289017677307,0.45134979486465454,0.47354966402053833,-0.10541979968547821,0.7956594228744507,-178.4687207278788,0.497248575091362,0.46360085904598236,128.7286314157277,128.30243482380192,0.6702717592923311,0.0,0.0,0.0,0.0,175.8279428439854,1.472868318780056,0,1762115219.0395274
0.4892331659793854,0.1623535007238388,-0.2790358066558838,0.9999880790710449,0.5312759876251221,0.2534361779689789,-0.10871855914592743,0.9998061060905457,0.4508745074272156,0.25902870297431946,-0.125615194439888,0.9999493956565857,0.5169314742088318,0.4678720235824585,0.004221117589622736,0.999916136264801,0.4777328073978424,0.47316282987594604,-0.004320887848734856,0.9999359846115112,0.5232692360877991,0.5844377875328064,0.07943207025527954,0.9892919063568115,0.4772953391075134,0.5964336395263672,0.06720451265573502,0.9948049187660217,0.5227941870689392,0.6825947165489197,0.3197476267814636,0.9866676926612854,0.48558562994003296,0.6882985234260559,0.2827913165092468,0.9918109178543091,0.5380004644393921,0.4579254984855652,-0.10943412780761719,0.634148895740509,0.4508540630340576,0.47469016909599304,-0.15317443013191223,0.7918971180915833,-178.32749949135012,0.4973321408033371,0.47051742672920227,144.95255749343906,143.1423174454264,0.7814117554735241,0.0011475812392567734,0.09498301547024637,0.015759366725512456,1.3043714225060694,176.02105826822225,1.600793074159513,1,1762115219.1123464
0.49241065979003906,0.16203460097312927,-0.2863561511039734,0.9999845027923584,0.531009316444397,0.25350385904312134,-0.10959712415933609,0.9997977018356323,0.4501134753227234,0.2590155601501465,-0.14275933802127838,0.9999456405639648,0.5171531438827515,0.4706810414791107,0.008594052866101265,0.9999105334281921,0.47757595777511597,0.4755350649356842,-0.008696944452822208,0.9999307990074158,0.5240870714187622,0.5864378809928894,0.08959417790174484,0.9884805679321289,0.4774208664894104,0.5990129113197327,0.06287829577922821,0.9942468404769897,0.5229145288467407,0.6824063062667847,0.32798540592193604,0.9857592582702637,0.48551052808761597,0.6882920265197754,0.27667561173439026,0.990880012512207,0.53839111328125,0.45797285437583923,-0.11320272833108902,0.6321762800216675,0.4508323073387146,0.4764999747276306,-0.17762455344200134,0.7911181449890137,-178.20305634095635,0.4973645508289337,0.47310805320739746,146.77798036704758,142.71219955141638,0.7877495808105572,0.0004449716363826813,0.03556786155019526,-0.009646439303080607,-0.8157370375076878,176.10227294148115,1.9664801023449074,2,1762115219.1851826
0.499824583530426,0.16196727752685547,-0.2733306288719177,0.9999817609786987,0.5297708511352539,0.253397136926651,-0.10087629407644272,0.9997972846031189,0.4496961236000061,0.2590145170688629,-0.1580224335193634,0.9999426603317261,0.517652690410614,0.470132440328598,0.014963473193347454,0.9999055862426758,0.47769951820373535,0.47606149315834045,-0.015052278526127338,0.9999243021011353,0.5260430574417114,0.5869001746177673,0.08849359303712845,0.9881891012191772,0.47767752408981323,0.6010879874229431,0.06039133667945862,0.9938341379165649,0.5232139229774475,0.6817666292190552,0.321164608001709,0.9851269125938416,0.48533207178115845,0.6882861256599426,0.27803200483322144,0.9904341101646423,0.5383297204971313,0.45796576142311096,-0.10144420713186264,0.6305741667747498,0.4518269896507263,0.4789719879627228,-0.1886155754327774,0.7960653305053711,-177.9027489736191,0.4976761043071747,0.47309696674346924,144.1598186674553,142.8982005626234,0.7757951890022402,0.0048944697267636755,-0.00017416708803865387,0.06990110919518835,-0.5615032068672736,175.98717642540942,3.290630640437989,3,1762115219.2488368
0.504454493522644,0.1607384979724884,-0.27533242106437683,0.9999712109565735,0.52848219871521,0.25243061780929565,-0.0900430977344513,0.9997177720069885,0.44970712065696716,0.2589299976825714,-0.18064317107200623,0.9999377131462097,0.5182101130485535,0.4697352647781372,0.024122796952724457,0.9998829960823059,0.47867512702941895,0.47585639357566833,-0.02417777106165886,0.9999065399169922,0.5271899700164795,0.5864762663841248,0.10310839116573334,0.9875326156616211,0.4800131916999817,0.6011263728141785,0.057342082262039185,0.9932301640510559,0.5233965516090393,0.6797475218772888,0.3246596157550812,0.9841517806053162,0.48541003465652466,0.6879357099533081,0.2788444757461548,0.9898213744163513,0.535731852054596,0.453691303730011,-0.08710536360740662,0.5851343274116516,0.4566769003868103,0.4799451529979706,-0.1921992301940918,0.7928473949432373,-177.5346392399818,0.4984426200389862,0.47279582917690277,146.61697634802297,144.44890133943318,0.7788859714118083,0.011568909679740913,-0.004545025188916876,0.10073634470144743,-0.06596872118008612,175.28346384010513,11.64546830696204,4,1762115219.3150933
0.5056709051132202,0.1598425954580307,-0.275136798620224,0.9999613761901855,0.5276957750320435,0.25184980034828186,-0.0861276313662529,0.9996225833892822,0.449758380651474,0.2587945759296417,-0.18367540836334229,0.9999339580535889,0.5183947682380676,0.4696444272994995,0.02630198933184147,0.9998575448989868,0.4791426658630371,0.4755292534828186,-0.02636200189590454,0.9998906254768372,0.5275411009788513,0.5861121416091919,0.10819628089666367,0.986924946308136,0.48164716362953186,0.600953221321106,0.05466577410697937,0.9927846789360046,0.5233944654464722,0.6785100102424622,0.32464492321014404,0.9833332300186157,0.48546066880226135,0.6880171298980713,0.2697596848011017,0.9894278645515442,0.5342642664909363,0.451781302690506,-0.07732655853033066,0.5437986254692078,0.45806917548179626,0.4802913963794708,-0.19500485062599182,0.7922834753990173,-177.3537600726651,0.49876871705055237,0.47258684039115906,147.9009470435002,144.90305592389313,0.7755921034589878,0.004844954375425073,-0.0031050303927680797,-0.09990050664784468,0.021394581491817624,174.90798753262223,59.92676532971269,5,1762115219.3823998
0.5113928914070129,0.15761901438236237,-0.25633758306503296,0.999957263469696,0.5240452885627747,0.24819409847259521,-0.04948792606592178,0.9993277192115784,0.4532046914100647,0.2587284445762634,-0.18340623378753662,0.9999368190765381,0.5190728902816772,0.4692729413509369,0.03670278936624527,0.9998192191123962,0.48215728998184204,0.47790905833244324,-0.03677808493375778,0.999880850315094,0.5277239084243774,0.58403080701828,0.15287412703037262,0.9855953454971313,0.48422735929489136,0.6008036732673645,0.06820032745599747,0.9926650524139404,0.5234125852584839,0.6780751347541809,0.32349005341529846,0.9825785756111145,0.4861629009246826,0.6881218552589417,0.264240562915802,0.9892000555992126,0.5311823487281799,0.44528377056121826,-0.03869795426726341,0.49944812059402466,0.4641873836517334,0.48136451840400696,-0.19752010703086853,0.8065826296806335,-176.88227498010394,0.5006150901317596,0.47359099984169006,163.63846440231825,154.51026131340865,0.7608518476417335,0.025396146101830535,0.0138118240429202,0.28267367682226985,0.23268477601028764,171.54181732851862,10.08511502279925,6,1762115219.4551027
0.51850426197052,0.15393495559692383,-0.21465373039245605,0.9999513030052185,0.5201991200447083,0.2428065836429596,-0.0389411598443985,0.999186635017395,0.46138304471969604,0.2583322823047638,-0.20400726795196533,0.9999405741691589,0.5191971659660339,0.4691757261753082,0.04454474151134491,0.9997970461845398,0.48509302735328674,0.4777207374572754,-0.04462769255042076,0.9998778700828552,0.5275963544845581,0.5755665898323059,0.1852494478225708,0.9843962788581848,0.4858848452568054,0.5947026014328003,0.07979300618171692,0.9927669167518616,0.5213110446929932,0.6739612221717834,0.34280461072921753,0.9822259545326233,0.487241268157959,0.6880612969398499,0.2625628113746643,0.9892787933349609,0.5299779772758484,0.4401997923851013,-0.02960483729839325,0.4650188386440277,0.47102847695350647,0.4812229871749878,-0.21254463493824005,0.8226639628410339,-177.08372787833864,0.5021450966596603,0.4734482318162918,173.06917541807178,163.81716100249616,0.7386811879983156,0.016648236545471054,-0.0015534808607785401,-0.09518735045692034,-0.16719224785338033,165.21291173960253,4.605262513539807,7,1762115219.5470047
0.5242251753807068,0.15139980614185333,-0.1621231883764267,0.9999377131462097,0.5152130722999573,0.23914077877998352,-0.017836308106780052,0.9990723729133606,0.47065192461013794,0.25549525022506714,-0.21302442252635956,0.999941885471344,0.5192739963531494,0.4681912660598755,0.049420569092035294,0.9997808337211609,0.48830294609069824,0.4776575267314911,-0.04945390671491623,0.9998724460601807,0.5278955698013306,0.5739225745201111,0.1914694607257843,0.9813933968544006,0.4862403869628906,0.5895205736160278,0.08987365663051605,0.9924027323722839,0.5182771682739258,0.6721047759056091,0.3412286937236786,0.980840265750885,0.4881226420402527,0.6877841353416443,0.27169132232666016,0.9889448285102844,0.5237629413604736,0.4316193461418152,0.010321182198822498,0.42861562967300415,0.47753992676734924,0.48118022084236145,-0.1981157809495926,0.8374558091163635,-177.24510444976693,0.5037884712219238,0.4729243963956833,173.20273119748822,169.5533393030036,0.7066623807970278,0.019126353074368104,-0.0060966388536640185,0.028841466078086405,-0.05287537353923891,159.84626234581637,2.8058328533744104,8,1762115219.6329267
0.5261010527610779,0.15177832543849945,-0.1503954827785492,0.9999276995658875,0.5104657411575317,0.24067169427871704,-0.006503368262201548,0.999117374420166,0.4770832061767578,0.25529855489730835,-0.2237202376127243,0.99994295835495,0.5183874368667603,0.46830159425735474,0.058395665138959885,0.9997902512550354,0.4909457564353943,0.4773896634578705,-0.05838678032159805,0.9998754262924194,0.5279073715209961,0.5747179985046387,0.20046932995319366,0.9663968086242676,0.49268850684165955,0.5861703157424927,0.099053755402565,0.991578996181488,0.5138371586799622,0.6725167036056519,0.34643101692199707,0.972298800945282,0.4915021061897278,0.6869251728057861,0.2903767228126526,0.9883105754852295,0.522063136100769,0.43493714928627014,0.0024733548052608967,0.4084025025367737,0.4887791574001312,0.48118239641189575,-0.22814421355724335,0.8507802486419678,-177.22679062439823,0.5046665966510773,0.4728456288576126,171.76852904324159,173.0684231406966,0.7064313603423714,0.010541466081272146,-0.0009455657509859929,-0.10305736748395894,0.061836112007804526,156.33893448528354,1.4276687706853342,9,1762115219.7162287
0.5264565348625183,0.15181872248649597,-0.14349116384983063,0.9999166131019592,0.5091347694396973,0.24140027165412903,-0.0031971395947039127,0.9991461634635925,0.47793689370155334,0.2550899386405945,-0.22159066796302795,0.9999436736106873,0.517511785030365,0.46820738911628723,0.05898165702819824,0.9997973442077637,0.4914328455924988,0.477286159992218,-0.058970917016267776,0.9998772144317627,0.5279496312141418,0.5752901434898376,0.19847530126571655,0.9504525065422058,0.4938638210296631,0.5832784175872803,0.0998297780752182,0.9903097748756409,0.5109034776687622,0.6727891564369202,0.3416404128074646,0.9629156589508057,0.4927403926849365,0.6863188147544861,0.2892879843711853,0.9871664643287659,0.5211749076843262,0.43631505966186523,0.010386903770267963,0.3871855139732361,0.49055248498916626,0.48109909892082214,-0.22153794765472412,0.8626543283462524,-177.21107021530418,0.5044723153114319,0.4727467745542526,170.40318594728507,174.70315843591715,0.6998224032869153,-0.0029117653364587504,-0.0014815655194099823,-0.20162848875248116,-0.008033224132052957,156.3080737420863,1.2036908846951975,10,1762115219.7829516
0.5268487334251404,0.1520751416683197,-0.13442961871623993,0.999788224697113,0.5062440633773804,0.24412472546100616,0.010782667435705662,0.999061644077301,0.4843577742576599,0.2551109790802002,-0.23160412907600403,0.9999391436576843,0.5161095261573792,0.47620850801467896,0.067257359623909,0.9997288584709167,0.49711236357688904,0.4811713695526123,-0.06726916879415512,0.9998303055763245,0.5257025957107544,0.5962846279144287,0.21228070557117462,0.8874549269676208,0.507682204246521,0.5984543561935425,0.08855004608631134,0.9797665476799011,0.5009040832519531,0.6797953844070435,0.37581321597099304,0.910577118396759,0.4921987056732178,0.6856933832168579,0.28054338693618774,0.9782572388648987,0.5175334215164185,0.45520180463790894,0.017178334295749664,0.35528048872947693,0.5054770708084106,0.4852173328399658,-0.2491442710161209,0.8706842660903931,-177.17341830022397,0.5066109448671341,0.47868993878364563,163.5670176704319,165.4986757338926,0.7046515884530196,0.02853154988533387,0.07928801237948924,0.4194866354572035,1.077550450425313,153.3447363390651,0.5615143954061766,11,1762115219.8579082
0.5243788957595825,0.15390603244304657,-0.07787720859050751,0.9995594620704651,0.49963465332984924,0.24592454731464386,0.04373735561966896,0.998979389667511,0.49160656332969666,0.2549758553504944,-0.21063968539237976,0.9999315142631531,0.5154805779457092,0.48902031779289246,0.07008717209100723,0.9996989965438843,0.5057311058044434,0.49036911129951477,-0.07012663036584854,0.9997959136962891,0.5260177850723267,0.6053529381752014,0.1913308948278427,0.8384650349617004,0.520426869392395,0.6173033714294434,0.06866978853940964,0.973271906375885,0.4995609223842621,0.6853312849998474,0.35585102438926697,0.8706241250038147,0.49057716131210327,0.6860126852989197,0.27654382586479187,0.970420777797699,0.5152236223220825,0.46325936913490295,0.034330688416957855,0.328702449798584,0.5184172987937927,0.48876509070396423,-0.23031559586524963,0.8755317330360413,-176.41592424859022,0.5106058418750763,0.4896947145462036,158.5933652385541,152.9734898670137,0.6625171038800407,0.052969574398806306,0.14591572381918824,0.32403132172186394,0.8834374230702063,131.57153687150102,0.5322540899484021,12,1762115219.933327
0.5229271054267883,0.15950869023799896,-0.04277871549129486,0.9987241625785828,0.48875826597213745,0.24603307247161865,0.034241024404764175,0.9987949728965759,0.5032292604446411,0.25429248809814453,-0.18101151287555695,0.9999217987060547,0.5062469244003296,0.4851314127445221,0.06747140735387802,0.9995168447494507,0.5113083720207214,0.49078670144081116,-0.06756962090730667,0.9996975064277649,0.5256346464157104,0.5970891118049622,0.20669269561767578,0.7780404686927795,0.533500075340271,0.6134844422340393,0.0619155578315258,0.9675049781799316,0.503490149974823,0.6775946617126465,0.35094279050827026,0.8169609904289246,0.5073002576828003,0.688407301902771,0.2170836180448532,0.960364043712616,0.49873170256614685,0.4724898040294647,0.009103799238801003,0.3011513948440552,0.5333568453788757,0.4885159730911255,-0.1408250778913498,0.8715909719467163,-176.92275147126978,0.5087776482105255,0.4879590570926666,163.1507768289703,156.36591916034163,0.6173690190899673,-0.027756360832690823,-0.026351439399698112,-1.2256131449796002,-2.615428351296882,29.715849037264295,0.5288463139559328,13,1762115219.9991927
0.5149073004722595,0.1602751910686493,0.04732518643140793,0.9984782338142395,0.480058491230011,0.24652425944805145,0.01215493492782116,0.9986811876296997,0.523767352104187,0.25339391827583313,-0.13626624643802643,0.9999003410339355,0.4981682300567627,0.4780370891094208,0.06359472125768661,0.9994788765907288,0.5196608901023865,0.48283424973487854,-0.0636092871427536,0.9996650815010071,0.5155324339866638,0.5851403474807739,0.19958384335041046,0.7278910875320435,0.5366293787956238,0.602683961391449,0.08281440287828445,0.9600143432617188,0.5067459344863892,0.6761479377746582,0.34638500213623047,0.7798321843147278,0.5207259654998779,0.6886548399925232,0.2287493497133255,0.9527993202209473,0.4917770028114319,0.4518739879131317,0.011141367256641388,0.28088027238845825,0.5437763929367065,0.4819423258304596,-0.10888954252004623,0.8565171957015991,-178.25994906279192,0.5089145600795746,0.48043566942214966,169.22602823190928,166.31063813279223,0.5747463371108726,0.002049063336306869,-0.11259723461195362,0.4460767522345181,-1.2907799601853491,8.932027404800104,0.5671199692236084,14,1762115220.0660095
0.5125427842140198,0.1608685851097107,0.04972574859857559,0.9982522130012512,0.47893843054771423,0.2473134845495224,0.004030740819871426,0.9985859990119934,0.5262114405632019,0.2529214322566986,-0.13169269263744354,0.9998853802680969,0.49687761068344116,0.47565099596977234,0.06327474862337112,0.9994365572929382,0.5220704078674316,0.4805152416229248,-0.06321553140878677,0.9996328949928284,0.513704776763916,0.5816211700439453,0.19382432103157043,0.6790995597839355,0.5366500616073608,0.5995537042617798,0.08571668714284897,0.9513387680053711,0.5087234973907471,0.6750943660736084,0.3368600606918335,0.7416343092918396,0.5218967199325562,0.6888561844825745,0.22691503167152405,0.9431763887405396,0.49064549803733826,0.4445643424987793,0.009845118969678879,0.2615801990032196,0.5466583371162415,0.48114293813705444,-0.11248370260000229,0.8454760313034058,-178.26654947759803,0.5094740092754364,0.47808311879634857,170.53912733786314,168.65035493197504,0.5704900883274494,0.008365746963339025,-0.03517896423745673,0.09445679297083123,1.1576773460094114,6.765320856689046,0.6991139671992298,15,1762115220.1328833
0.5115538239479065,0.16036130487918854,0.052819859236478806,0.9982926249504089,0.4733040928840637,0.24764946103096008,0.002056142082437873,0.9985488653182983,0.5343038439750671,0.251110315322876,-0.1316096931695938,0.9998734593391418,0.49471622705459595,0.4697728157043457,0.05886722356081009,0.9994359016418457,0.5263022184371948,0.46998342871665955,-0.05892607569694519,0.9996213912963867,0.5061699151992798,0.5750016570091248,0.21007493138313293,0.669765055179596,0.5423475503921509,0.5818148851394653,0.10507230460643768,0.9512333273887634,0.5088294148445129,0.6751278638839722,0.36113911867141724,0.7460314035415649,0.5284403562545776,0.6862159371376038,0.24739563465118408,0.9448742866516113,0.4884628355503082,0.43280619382858276,0.04958119988441467,0.2441074699163437,0.5537885427474976,0.46928876638412476,-0.10772887617349625,0.8378567695617676,-178.25819731844106,0.5105092227458954,0.4698781222105026,176.95681982271486,170.65363379267134,0.5779265622715589,0.013149407186444785,-0.10422086279735315,0.0607626329353383,-0.8769785778451805,3.2472262315156133,1.1920775841327176,16,1762115220.2116103
0.5076473355293274,0.15469257533550262,0.06840139627456665,0.9984122514724731,0.47139397263526917,0.24766851961612701,-0.03630568087100983,0.9985881447792053,0.5449147820472717,0.24659277498722076,-0.09276750683784485,0.9998468160629272,0.49474984407424927,0.4634809195995331,0.022229626774787903,0.9994596242904663,0.5324729681015015,0.45857831835746765,-0.022331014275550842,0.9996100664138794,0.5023332834243774,0.5694250464439392,0.17287568747997284,0.6983884572982788,0.5460761785507202,0.570214569568634,0.13884273171424866,0.9520946145057678,0.5084070563316345,0.6753474473953247,0.3048264682292938,0.7659240961074829,0.5427479147911072,0.6861832737922668,0.2726559042930603,0.9454438090324402,0.487501323223114,0.40556514263153076,0.06939002126455307,0.2303333282470703,0.5567024946212769,0.4554571509361267,-0.041628506034612656,0.7957559823989868,-178.53857685679742,0.5136114060878754,0.46102961897850037,176.32340709640678,171.99337795473025,0.5706344615609308,0.04282225710797139,-0.1221439349808622,0.409601325386158,-0.24740846062215363,-0.8382827880940562,3.972346189481668,17,1762115220.2840536
0.5026555061340332,0.15253597497940063,0.07081010937690735,0.998547375202179,0.4710407257080078,0.2471793293952942,-0.07333347201347351,0.9986892342567444,0.5491116046905518,0.24202191829681396,-0.06667643785476685,0.9998394846916199,0.4964175820350647,0.4604875445365906,-0.0037807486951351166,0.9994978904724121,0.5357414484024048,0.4540420174598694,0.003630629973486066,0.9996225237846375,0.5009779334068298,0.5709254145622253,0.14183470606803894,0.7270028591156006,0.5438753366470337,0.5691403150558472,0.16023756563663483,0.9547828435897827,0.5083979964256287,0.6775188446044922,0.27061977982521057,0.7869501709938049,0.549468457698822,0.6852635145187378,0.292159765958786,0.9478286504745483,0.4858263432979584,0.4076136648654938,0.0530552938580513,0.23322756588459015,0.562539279460907,0.44281989336013794,0.0031343097798526287,0.7618427276611328,-178.38301244839266,0.5160795152187347,0.45726478099823,177.28327782049007,174.91054519500682,0.5698439617272475,0.03833733297780938,-0.05847952404230735,-0.06966467876498036,0.9889042953856856,-3.779503490757699,0.9225148083801361,18,1762115220.3484323
0.4954403340816498,0.1526152491569519,0.05525648593902588,0.9986699819564819,0.4734668731689453,0.24731872975826263,-0.09927584230899811,0.9987990856170654,0.5513061881065369,0.2405264526605606,-0.055864643305540085,0.9998332858085632,0.4974307119846344,0.46005091071128845,-0.020032348111271858,0.9995301365852356,0.5382107496261597,0.4537285566329956,0.01980493776500225,0.9996259808540344,0.5023003220558167,0.5715868473052979,0.14007450640201569,0.7510929703712463,0.5438066720962524,0.5716044306755066,0.18036115169525146,0.9534708261489868,0.5084342360496521,0.6821854710578918,0.27343854308128357,0.8033392429351807,0.5492755174636841,0.6861291527748108,0.316760778427124,0.9458539485931396,0.4863041341304779,0.41601571440696716,0.03547876328229904,0.24249596893787384,0.5624054074287415,0.43713802099227905,0.0720248818397522,0.7140111327171326,-178.53832294086448,0.517820730805397,0.45688973367214203,175.13870285710243,176.24134279803533,0.584104652138743,0.022047757846179857,-0.004748953943316709,-0.20626314780915042,0.680351478331613,-4.987011304570926,0.936546807819822,19,1762115220.427407
0.49132293462753296,0.1532188504934311,0.040503233671188354,0.9987629652023315,0.47390055656433105,0.24727536737918854,-0.11699602752923965,0.998893678188324,0.5508519411087036,0.24011819064617157,-0.04767215996980667,0.9998182654380798,0.499053418636322,0.4602997303009033,-0.02903151884675026,0.9995457530021667,0.5389879941940308,0.454221248626709,0.02882959321141243,0.9996027946472168,0.5039361715316772,0.5724677443504333,0.1293458789587021,0.7684311866760254,0.5430029630661011,0.5698630213737488,0.1836068034172058,0.9419431090354919,0.5089322328567505,0.6821529269218445,0.26086190342903137,0.8134310245513916,0.549060046672821,0.6856147050857544,0.3157592713832855,0.9356161952018738,0.4872242510318756,0.4200904369354248,-0.010104048997163773,0.24818280339241028,0.5629490613937378,0.4364975392818451,0.06749583780765533,0.6717753410339355,-178.21797153144698,0.5190207064151764,0.45726048946380615,175.45316449007126,175.4621170011469,0.5868841968996631,0.016875766994588287,0.005214096270813634,-0.072735905461987,0.14011460949607282,-5.313739870343297,1.2020570729109898,20,1762115220.4985135
0.4780682921409607,0.15895338356494904,0.030646398663520813,0.9988700747489929,0.4762841761112213,0.24689950048923492,-0.1298009157180786,0.9989922046661377,0.5477800965309143,0.2368999719619751,-0.013899343088269234,0.9998237490653992,0.5077313780784607,0.4605453610420227,-0.04062962159514427,0.9995580911636353,0.5393321514129639,0.4538251757621765,0.04035796597599983,0.9995772242546082,0.5042754411697388,0.5720753073692322,0.11971090734004974,0.7784169912338257,0.5422179698944092,0.5683234930038452,0.18537287414073944,0.9227801561355591,0.5120329856872559,0.6815139651298523,0.24722489714622498,0.8168877959251404,0.5497578382492065,0.6856010556221008,0.3118876814842224,0.9178773760795593,0.48720964789390564,0.43516239523887634,-0.01859704777598381,0.269854873418808,0.5605401396751404,0.4195319414138794,0.12616530060768127,0.6305031776428223,-176.94241135742936,0.5235317647457123,0.4571852684020996,173.11672270651317,175.16744626714706,0.5830577399543274,0.0622759782898483,-0.0010384403974708792,0.626758149820303,-0.08631740254272222,-7.961828782984945,1.5032770892083047,21,1762115220.57095
0.4741014838218689,0.16639092564582825,-0.013254933059215546,0.9989740252494812,0.4830947518348694,0.24497705698013306,-0.14739039540290833,0.9990826845169067,0.5437568426132202,0.23626938462257385,0.010999144986271858,0.9998279213905334,0.5092946290969849,0.4594947099685669,-0.05126198008656502,0.9995707869529724,0.541302502155304,0.4524887204170227,0.050993144512176514,0.9995507001876831,0.5055236220359802,0.5724520087242126,0.10015517473220825,0.7962916493415833,0.5434913039207458,0.5662657618522644,0.1834712028503418,0.9123900532722473,0.5116227269172668,0.6819561719894409,0.22047331929206848,0.8304053544998169,0.5507189035415649,0.6855459809303284,0.3034890294075012,0.9105733633041382,0.48764219880104065,0.4355182647705078,-0.05898258835077286,0.3078835606575012,0.5588766932487488,0.4180232584476471,0.14428545534610748,0.5888343453407288,-176.84460970373422,0.5252985656261444,0.4559917151927948,173.50386044965742,175.46688130851766,0.5887897324676327,0.02782554821267648,-0.018797405376990088,-0.5425637453980252,-0.2796879612851357,-8.168659281171902,1.7815337417412036,22,1762115220.6344457
0.47345152497291565,0.1698375791311264,-0.03467980772256851,0.9990397691726685,0.4926761984825134,0.24485868215560913,-0.15994754433631897,0.9991616010665894,0.5431705713272095,0.23576320707798004,0.03312520310282707,0.9997410774230957,0.512721836566925,0.46016696095466614,-0.05362987518310547,0.9995545148849487,0.5389261245727539,0.45360618829727173,0.05342872813344002,0.9994286298751831,0.5079060196876526,0.5800593495368958,0.0900815799832344,0.8108936548233032,0.5430309176445007,0.5683183073997498,0.1811407506465912,0.9072742462158203,0.5185505747795105,0.6840891242027283,0.21353456377983093,0.8428155779838562,0.5468981266021729,0.6853915452957153,0.3023774325847626,0.9076308012008667,0.4886972904205322,0.4361681640148163,-0.08824844658374786,0.3592108488082886,0.5319269895553589,0.42346590757369995,0.12862107157707214,0.5329575538635254,-177.91079842028765,0.5258239805698395,0.45688657462596893,174.72552350900347,177.8771160564132,0.5952090645389111,0.006629454482007593,0.011290942427907033,-0.2674429805814349,0.37964152829110104,-10.211104393734642,1.0887038866025738,23,1762115220.7137003
0.47232484817504883,0.1706051230430603,-0.0964844673871994,0.9991154074668884,0.5064858198165894,0.24488861858844757,-0.20325133204460144,0.9992396235466003,0.5312618613243103,0.23592671751976013,0.029361030086874962,0.999671220779419,0.5182141661643982,0.46032536029815674,-0.06345406919717789,0.9995231628417969,0.536886990070343,0.45410600304603577,0.06336978077888489,0.9992983341217041,0.5081671476364136,0.5846380591392517,0.0678337961435318,0.826158344745636,0.542847216129303,0.5694087147712708,0.19181154668331146,0.8883599638938904,0.5233672261238098,0.687188446521759,0.20682314038276672,0.8538615703582764,0.5459632873535156,0.6860746145248413,0.3276103138923645,0.900928258895874,0.4892606735229492,0.4454655647277832,-0.14615513384342194,0.4185417890548706,0.5194270610809326,0.4323056638240814,0.0640568733215332,0.48336732387542725,-177.70822454331477,0.5275505781173706,0.45721568167209625,169.19582191757263,178.3474512479965,0.6343880032405892,0.02725644914826831,0.005195356312148562,0.32562228065622856,-0.09622626490500431,-19.885889328723596,0.9473377697554255,24,1762115220.7770467
0.4719490110874176,0.17021127045154572,-0.09076021611690521,0.9991822838783264,0.5080134272575378,0.24493062496185303,-0.19845546782016754,0.9993096590042114,0.5279060006141663,0.23593474924564362,0.03182091936469078,0.9996131658554077,0.5192749500274658,0.46058765053749084,-0.06429430097341537,0.999507486820221,0.5360434055328369,0.4538832902908325,0.06421361863613129,0.9992040991783142,0.508315920829773,0.5858148336410522,0.06325851380825043,0.8404676914215088,0.5404924750328064,0.5695304274559021,0.18998877704143524,0.87220299243927,0.5255312919616699,0.6877772212028503,0.19771315157413483,0.8645320534706116,0.5454393625259399,0.6860626339912415,0.32355886697769165,0.8952479958534241,0.489488422870636,0.4473890960216522,-0.14512568712234497,0.47183218598365784,0.5195556879043579,0.43242567777633667,0.059712786227464676,0.4390946924686432,-177.4383723344619,0.5276591777801514,0.4572354704141617,168.148618512406,178.43116469763024,0.6280955397550209,0.0017088341661789643,0.0003113792223772866,-0.40199606727981085,-0.07685021025051404,-24.33356858931592,0.8752346747430143,25,1762115220.8405986
0.4730161726474762,0.1702897548675537,-0.11751512438058853,0.9992369413375854,0.5172408223152161,0.24653972685337067,-0.19726788997650146,0.9993691444396973,0.5198675394058228,0.2367219477891922,0.015312631614506245,0.9995140433311462,0.5230940580368042,0.4723011553287506,-0.06062057614326477,0.9995054602622986,0.5319000482559204,0.46403995156288147,0.06048669293522835,0.999104380607605,0.5094825625419617,0.6010347604751587,0.07670117914676666,0.8462545871734619,0.5324640274047852,0.5756387114524841,0.1915513128042221,0.8371516466140747,0.5301438570022583,0.6866745948791504,0.2162633240222931,0.8706478476524353,0.5450831651687622,0.6852849721908569,0.32916060090065,0.8631458878517151,0.49288463592529297,0.45209982991218567,-0.12996309995651245,0.5188679099082947,0.5170530676841736,0.447756290435791,0.046913813799619675,0.3984096050262451,-177.73936802139968,0.5274970531463623,0.46817055344581604,163.78489413022146,175.63937267690574,0.6499124564936065,-0.002548868939408138,0.17191769589744552,-0.0669381755592571,2.69793676726767,-75.02150377187532,0.5373929540714661,26,1762115220.904205
0.4754396975040436,0.1716204136610031,-0.16438153386116028,0.9993069767951965,0.5252286195755005,0.24928498268127441,-0.21557168662548065,0.9994287490844727,0.5119199752807617,0.24568186700344086,0.004676536191254854,0.9994683265686035,0.5282264351844788,0.4883327782154083,-0.06168205291032791,0.9995142817497253,0.5219219326972961,0.48182085156440735,0.061552803963422775,0.9990670680999756,0.5211690664291382,0.627457320690155,0.06567885726690292,0.8566830158233643,0.5271878838539124,0.6041035056114197,0.18523471057415009,0.8277056217193604,0.5433940887451172,0.7120985388755798,0.20365503430366516,0.8805452585220337,0.5441184043884277,0.694844663143158,0.32106509804725647,0.8560672998428345,0.4951706528663635,0.46606382727622986,-0.1656026542186737,0.5662190914154053,0.5049543976783752,0.45805540680885315,0.003861634759232402,0.3697325587272644,-178.43293957468433,0.5250741839408875,0.48507681488990784,161.1808012840034,168.31299764611654,0.6853037498522259,-0.031151809991508718,0.21737064591974053,-0.367759589679844,0.5844069747754166,-164.85118168523275,0.331986434264952,27,1762115220.9819813
0.47695988416671753,0.17434246838092804,-0.17641134560108185,0.9993692636489868,0.5318310260772705,0.2500903308391571,-0.22195370495319366,0.9994832873344421,0.5078920125961304,0.25213703513145447,-0.002456953749060631,0.9993739128112793,0.5316706895828247,0.48843491077423096,-0.05939117819070816,0.9994972348213196,0.5178471207618713,0.4841082692146301,0.05931148678064346,0.9989625215530396,0.5274515748023987,0.6228315830230713,0.0573824942111969,0.8645421862602234,0.5194306373596191,0.5995205640792847,0.18271926045417786,0.8189774751663208,0.5419572591781616,0.7071623206138611,0.19356688857078552,0.8869791626930237,0.5430224537849426,0.6943126916885376,0.30873456597328186,0.8450425267219543,0.5030280947685242,0.473572313785553,-0.1979880928993225,0.6093111634254456,0.503567099571228,0.4574607312679291,0.007914731279015541,0.3470182418823242,-178.80693366453588,0.524758905172348,0.48627158999443054,161.57014390454694,169.94572804389438,0.6813187500871407,-0.0044112986623077695,0.016716983020315577,0.3741462909234175,-2.807493948406144,175.11328920512148,0.2570839896940556,28,1762115221.053452
0.47729507088661194,0.1757911741733551,-0.1793447881937027,0.9994293451309204,0.5369631052017212,0.2521369755268097,-0.21793439984321594,0.999533474445343,0.5038398504257202,0.25498005747795105,0.011396152898669243,0.9992009401321411,0.5362974405288696,0.4901546835899353,-0.06461737304925919,0.9995214343070984,0.5125402212142944,0.4861876964569092,0.06454804539680481,0.998970627784729,0.5260726809501648,0.6339462399482727,-0.06837817281484604,0.8748784065246582,0.49773627519607544,0.5987958312034607,0.09998707473278046,0.8265960216522217,0.5369013547897339,0.7021811008453369,0.12357338517904282,0.8878049850463867,0.5394610166549683,0.68385249376297,0.21080152690410614,0.8459953665733337,0.5104629993438721,0.48894020915031433,-0.18071533739566803,0.6481016278266907,0.5028014183044434,0.4565463662147522,0.013265622779726982,0.3249014914035797,-179.01900064113505,0.524418830871582,0.48817119002342224,107.77051718643139,137.98113661772447,0.6255510055123972,-0.005362372507960616,0.02995334533848126,-0.014996758742080238,0.2087141111235525,175.09413200103018,0.15288065121536198,29,1762115221.1168706
0.4777129292488098,0.17639584839344025,-0.18337439000606537,0.9994828701019287,0.5374751091003418,0.2524033188819885,-0.22164228558540344,0.999578595161438,0.5030297636985779,0.25678813457489014,0.013241158798336983,0.9991011619567871,0.5367828607559204,0.49126845598220825,-0.06666411459445953,0.9995441436767578,0.5116411447525024,0.48769015073776245,0.06661161780357361,0.998988151550293,0.5251258015632629,0.6344823837280273,-0.0656527429819107,0.8831618428230286,0.49671879410743713,0.5967053174972534,0.11311094462871552,0.8299635052680969,0.5353702306747437,0.699896514415741,0.12759828567504883,0.8851817846298218,0.5372938513755798,0.6801649928092957,0.22105856239795685,0.8428966999053955,0.511806309223175,0.49237942695617676,-0.1883333921432495,0.6829981803894043,0.5026113390922546,0.45928874611854553,0.0125722736120224,0.306244432926178,-179.03422385838786,0.5242120027542114,0.48947930335998535,108.76789902227668,142.61580219758704,0.6286559625891032,-0.003292332565438668,0.02082281747763681,0.032951322098589995,-0.14534162278351564,172.74539336117493,0.15582253242947858,30,1762115221.1796918
0.480597585439682,0.1760202795267105,-0.2092696726322174,0.9995325803756714,0.541030764579773,0.2527487874031067,-0.2263288050889969,0.9996194839477539,0.499042809009552,0.2556535005569458,0.005817739758640528,0.9989975094795227,0.5385633111000061,0.49102020263671875,-0.06334713101387024,0.9995680451393127,0.5090168118476868,0.4867370128631592,0.06327637284994125,0.9989652037620544,0.5323848724365234,0.6303101181983948,-0.0551295168697834,0.8932989835739136,0.48980221152305603,0.597341001033783,0.08368931710720062,0.8438737392425537,0.535072922706604,0.6999617218971252,0.12278375774621964,0.8940471410751343,0.5348349213600159,0.6507241129875183,0.25126564502716064,0.8488606810569763,0.5198115110397339,0.4912784695625305,-0.2063702642917633,0.7137503027915955,0.49953508377075195,0.4545174837112427,0.0008391070878133178,0.2879857122898102,-179.0837276726072,0.5237900614738464,0.48887860774993896,114.68756752411905,114.102784821372,0.6397866354824256,-0.006631953292461739,-0.009441563113636023,-0.05249121076040568,-0.4756869447165395,176.0426016537704,0.15729495405401958,31,1762115221.2433143
0.48441559076309204,0.17539402842521667,-0.22484569251537323,0.9995766282081604,0.5455402135848999,0.25269022583961487,-0.21580028533935547,0.9996560215950012,0.4926859438419342,0.25464752316474915,0.0027465452440083027,0.9989816546440125,0.5387853384017944,0.49034368991851807,-0.06005769968032837,0.9995978474617004,0.5045463442802429,0.48586341738700867,0.059944093227386475,0.9990274906158447,0.5349618196487427,0.6208032965660095,-0.04036452993750572,0.9026282429695129,0.48838481307029724,0.6039809584617615,0.07861784100532532,0.8580061793327332,0.5355299711227417,0.6987369060516357,0.1522161364555359,0.9017115235328674,0.5232680439949036,0.6601602435112,0.27911895513534546,0.8584842681884766,0.5288817882537842,0.48970314860343933,-0.2015247792005539,0.7401463985443115,0.49252909421920776,0.45435968041419983,0.003833947004750371,0.27225106954574585,-179.3761300811473,0.5216658413410187,0.48810355365276337,120.59546496220548,112.66117678630029,0.670929509424093,-0.026776778657017403,-0.00976991587950844,-0.25393485427186424,-0.004139038698160249,177.87919396543484,0.1440067183943523,32,1762115221.322645
0.4873014986515045,0.17365966737270355,-0.24760237336158752,0.9996140003204346,0.5476094484329224,0.25260746479034424,-0.21187026798725128,0.9996892809867859,0.486427366733551,0.2542227506637573,-0.013001842424273491,0.9989632368087769,0.5382789373397827,0.48599696159362793,-0.05255108326673508,0.9996216893196106,0.500635027885437,0.4821438789367676,0.05258474871516228,0.9990783333778381,0.5362861752510071,0.615143895149231,-0.012518109753727913,0.9110662341117859,0.4864428639411926,0.6045980453491211,0.08250342309474945,0.8711989521980286,0.535516083240509,0.700748860836029,0.21869432926177979,0.9098254442214966,0.516166090965271,0.6646031141281128,0.3125893473625183,0.8700031042098999,0.5368866920471191,0.4921836853027344,-0.21165306866168976,0.764003336429596,0.48655232787132263,0.4569794237613678,0.00197211978957057,0.2628712058067322,-179.39426995946215,0.5194569826126099,0.48407042026519775,127.53616149879048,117.01916891235352,0.7238801937007805,-0.034809656924076934,-0.06355860958628748,-0.12659104586133757,-0.8476621660978848,178.4876688309272,0.16843817362477825,33,1762115221.3861003
0.49032172560691833,0.1666184514760971,-0.24317726492881775,0.999649167060852,0.5504025220870972,0.25253552198410034,-0.20116743445396423,0.9997194409370422,0.48300236463546753,0.25417909026145935,-0.013513189740478992,0.9990186095237732,0.5369395613670349,0.48495301604270935,-0.048559900373220444,0.9996456503868103,0.4975931644439697,0.48130887746810913,0.04861409217119217,0.9991468787193298,0.5353387594223022,0.6149600744247437,-0.00271484418772161,0.919006884098053,0.48440179228782654,0.603660523891449,0.07100571691989899,0.883499264717102,0.5354808568954468,0.7011335492134094,0.2670649588108063,0.91762775182724,0.5021423101425171,0.6902018189430237,0.2992861866950989,0.8820797801017761,0.5438504815101624,0.4916626513004303,-0.2195781022310257,0.7862441539764404,0.47464028000831604,0.45737186074256897,0.0060238405130803585,0.28348246216773987,-179.85938271723097,0.5172663629055023,0.48313094675540924,127.13458065221215,120.33976444801932,0.746828007145148,-0.027715563398337934,-0.011886151456193535,0.08975396241913998,0.6537562337296519,178.6031061318813,0.06306197073663677,34,1762115221.4651396
0.4916781783103943,0.16550730168819427,-0.2503839135169983,0.99968022108078,0.551115095615387,0.25246912240982056,-0.20059919357299805,0.9997463822364807,0.48197856545448303,0.25409168004989624,-0.023085985332727432,0.9990779161453247,0.536573588848114,0.48432019352912903,-0.046772442758083344,0.9996647238731384,0.496945321559906,0.48116302490234375,0.046812836080789566,0.9992048144340515,0.5342046618461609,0.6145234107971191,0.0010115511249750853,0.9261082410812378,0.48531049489974976,0.6031030416488647,0.07552732527256012,0.8944106101989746,0.5352201461791992,0.7024120092391968,0.25985708832740784,0.9246370196342468,0.5010399222373962,0.6991432905197144,0.2955198585987091,0.892855167388916,0.5450743436813354,0.4910751283168793,-0.2244468629360199,0.8061695694923401,0.4725150465965271,0.4580588936805725,-0.014102977700531483,0.3082311451435089,-179.9469082692516,0.51675945520401,0.4827416092157364,128.89439870346393,126.12848334215104,0.752379221020924,-0.00684096810417223,-0.00525430109429749,0.2817129038964854,0.08950007400521257,178.65557843214842,0.02539270204036582,35,1762115221.5392385
0.49355441331863403,0.16473887860774994,-0.2429819107055664,0.9997098445892334,0.5526412129402161,0.25247475504875183,-0.1756472885608673,0.9997711181640625,0.47815585136413574,0.25464871525764465,-0.019590135663747787,0.9991435408592224,0.5359948873519897,0.4841013252735138,-0.043681271374225616,0.9996909499168396,0.493558406829834,0.48036497831344604,0.043704353272914886,0.9992697834968567,0.5334314703941345,0.620825469493866,-0.019054826349020004,0.9326334595680237,0.486001580953598,0.6131163239479065,0.07504402101039886,0.9039859175682068,0.5351065397262573,0.7084783315658569,0.2701438069343567,0.9304237961769104,0.49429669976234436,0.7240070700645447,0.2942700684070587,0.9024776220321655,0.550565242767334,0.4928534924983978,-0.20442304015159607,0.8243385553359985,0.46747756004333496,0.4608260691165924,0.006284311413764954,0.34257736802101135,179.84418121847762,0.5147766470909119,0.4822331517934799,117.05926565910522,129.8724314989063,0.7618575960819938,-0.031187420779863646,-0.007997483705964854,-0.38294329092057816,-0.043147286830695304,178.32821655259943,0.12472389258589274,36,1762115221.6028156
0.4948377013206482,0.16465933620929718,-0.2379949390888214,0.9997358918190002,0.5530019402503967,0.2539639472961426,-0.1557924449443817,0.9997931718826294,0.4737738072872162,0.25658729672431946,-0.02148674614727497,0.9991961717605591,0.5355768799781799,0.4865249991416931,-0.03797818347811699,0.9997116327285767,0.4914231300354004,0.4829423129558563,0.03797905892133713,0.9993212819099426,0.5328390002250671,0.6265046000480652,-0.02450496330857277,0.938469648361206,0.4853542745113373,0.6237064599990845,0.06750805675983429,0.9124293923377991,0.5339933633804321,0.714139997959137,0.2721831202507019,0.9352335929870605,0.49387869238853455,0.7283190488815308,0.2956755757331848,0.9107640385627747,0.5553988814353943,0.49361497163772583,-0.19993694126605988,0.840467631816864,0.46004992723464966,0.46606603264808655,-0.009160236455500126,0.3782190680503845,-179.97200077912484,0.5135000050067902,0.4847336560487747,111.94433204048705,126.31350338056046,0.7632431334865921,-0.02014561919667715,0.039458362804556876,0.17424142029061931,0.7488609566828219,178.10355298381324,0.02316574202154541,37,1762115221.6661863
0.4952254295349121,0.16479626297950745,-0.2283346951007843,0.9997596740722656,0.5520780682563782,0.2562732994556427,-0.14502429962158203,0.9998124241828918,0.470524400472641,0.2585485875606537,-0.03756067901849747,0.9992538094520569,0.5351303815841675,0.4881097674369812,-0.03124857321381569,0.999727725982666,0.4888325333595276,0.48718202114105225,0.031159764155745506,0.9993681311607361,0.5324665904045105,0.6256227493286133,-0.0004778093716595322,0.943354070186615,0.4844697117805481,0.6252337694168091,0.07327426224946976,0.9197390675544739,0.5339771509170532,0.7142097353935242,0.276378870010376,0.939936101436615,0.4956750273704529,0.7284632325172424,0.2976391911506653,0.9181740283966064,0.5588842034339905,0.49214714765548706,-0.17668811976909637,0.854428768157959,0.4526101052761078,0.472873717546463,-0.03765873983502388,0.4186907410621643,-179.83072161873704,0.5119814574718475,0.4876458942890167,120.34262584995044,131.4901221359368,0.758749206932084,-0.022548092921826433,0.04324225415436465,-0.03567303594415252,0.05618496082494011,178.4019039114788,0.1069711800710254,38,1762115221.7335334
0.4947350025177002,0.1651969999074936,-0.22262287139892578,0.9997811317443848,0.5505871176719666,0.25903400778770447,-0.12449236959218979,0.9998285174369812,0.46650558710098267,0.2616574466228485,-0.042798809707164764,0.9993095397949219,0.5342823266983032,0.49220898747444153,-0.02528182603418827,0.999739944934845,0.48692256212234497,0.4929371774196625,0.025148943066596985,0.9994096755981445,0.5331872701644897,0.6284735798835754,0.002540511777624488,0.9477774500846863,0.4833446443080902,0.6312373876571655,0.06148168444633484,0.9264969229698181,0.5339370965957642,0.7126179933547974,0.2702796757221222,0.9431446194648743,0.4952327609062195,0.7313423752784729,0.2736971080303192,0.9247012138366699,0.5589212775230408,0.4927122890949249,-0.14629676938056946,0.8656928539276123,0.44676095247268677,0.47961607575416565,-0.035278864204883575,0.45865732431411743,-179.4927285071964,0.5106024444103241,0.492573082447052,118.98343946359313,129.80105039320333,0.7450112990894081,-0.02309221715627171,0.08250806470931114,-0.009111614191615727,0.6575243189866186,178.21288666190438,0.32533248275985105,39,1762115221.793251
0.4956642985343933,0.16537900269031525,-0.2206914871931076,0.9998011589050293,0.5499139428138733,0.2599620223045349,-0.11630722135305405,0.9998437166213989,0.4657611846923828,0.26277175545692444,-0.042190149426460266,0.9993599653244019,0.5340911746025085,0.4933985471725464,-0.022970078513026237,0.9997509121894836,0.4868783950805664,0.4943588972091675,0.022835660725831985,0.9994473457336426,0.5337427854537964,0.6301943063735962,0.007422741502523422,0.9518677592277527,0.4827805459499359,0.6322421431541443,0.0588654987514019,0.9326087236404419,0.5341628789901733,0.7138493657112122,0.2638922929763794,0.9468522071838379,0.49541813135147095,0.7340068221092224,0.2674868702888489,0.9307094812393188,0.5584259629249573,0.4933559000492096,-0.14174915850162506,0.8768690824508667,0.44671183824539185,0.48181262612342834,-0.040926091372966766,0.4965026378631592,-179.34769753210128,0.5104847848415375,0.49387872219085693,120.5902729131768,130.4350934104317,0.7408842306291377,-0.0014803504846010553,0.016427090863822755,0.2719127532972817,-0.83140710665431,178.08769108813627,0.4054037011162034,40,1762115221.872732
0.49597328901290894,0.16539731621742249,-0.21268829703330994,0.9998183250427246,0.549414336681366,0.25967782735824585,-0.0996134802699089,0.9998561143875122,0.4639682173728943,0.2630003094673157,-0.04044352099299431,0.9994053840637207,0.5330952405929565,0.49708297848701477,-0.020329508930444717,0.999761164188385,0.4853590130805969,0.4981669485569,0.020182747393846512,0.999479353427887,0.5333384275436401,0.6334418058395386,0.007065708748996258,0.9550999999046326,0.4822656214237213,0.6332507133483887,0.05867861956357956,0.9376208186149597,0.5338151454925537,0.7145536541938782,0.2664759159088135,0.9493465423583984,0.49572595953941345,0.7328434586524963,0.271676242351532,0.9352147579193115,0.5588759183883667,0.49281036853790283,-0.11204817146062851,0.8851573467254639,0.4437335133552551,0.4843519330024719,-0.04627392441034317,0.5343862771987915,-179.38511812708592,0.5092271268367767,0.4976249635219574,118.7223869656539,130.77601386769558,0.7376655923050015,-0.015616026335577304,0.04651614593509654,-0.17551916778999355,0.3736083057770828,177.77323593218986,0.363848139772632,41,1762115221.9532683
0.49620112776756287,0.1643260270357132,-0.2099585235118866,0.9998342394828796,0.5492111444473267,0.2594110369682312,-0.09802930802106857,0.9998655915260315,0.46238774061203003,0.262523353099823,-0.04694892838597298,0.9994533658027649,0.5323601961135864,0.4967426359653473,-0.01658550277352333,0.9997680187225342,0.48422345519065857,0.4983121156692505,0.016437062993645668,0.9995129108428955,0.5331149697303772,0.6321118474006653,0.018367094919085503,0.9575963616371155,0.4820447564125061,0.6315019130706787,0.06182130053639412,0.9421087503433228,0.5335196852684021,0.7137746214866638,0.2664303183555603,0.9516769051551819,0.4950084686279297,0.7340449690818787,0.27134570479393005,0.9397634267807007,0.5589257478713989,0.49078047275543213,-0.10959615558385849,0.893151581287384,0.4410231113433838,0.48148033022880554,-0.059937190264463425,0.5734506845474243,-179.3963576214366,0.5082918256521225,0.4975273758172989,122.69828009621786,134.72824871073735,0.7367185812675217,-0.011708269040790075,-0.0012216205003924706,0.048918011122153104,-0.5975899763665206,177.94702522651843,0.3728202520373845,42,1762115222.033152
0.4965443015098572,0.16387057304382324,-0.22439010441303253,0.9998488426208496,0.5488563776016235,0.2592164874076843,-0.10257750749588013,0.9998745322227478,0.46130314469337463,0.262195885181427,-0.05436370521783829,0.9994949698448181,0.5320878624916077,0.49730923771858215,-0.015294899232685566,0.9997742772102356,0.48393458127975464,0.49859699606895447,0.015171718783676624,0.9995414018630981,0.5334956645965576,0.6345974206924438,0.015108147636055946,0.9599980115890503,0.48076334595680237,0.635779082775116,0.05729041248559952,0.9462701678276062,0.5334964394569397,0.7158674597740173,0.2705559730529785,0.9532853960990906,0.4947550296783447,0.7358148097991943,0.2718408703804016,0.943759024143219,0.5578542947769165,0.49002328515052795,-0.11612831056118011,0.9000328779220581,0.43955689668655396,0.4804861843585968,-0.06396537274122238,0.6069287061691284,-179.29208027811814,0.5080112218856812,0.4979531168937683,120.13264989072663,131.86109244931305,0.7494851608172738,-0.005087391503561796,0.007718754322567259,0.12003757667329483,0.1620904362397092,178.05100206446525,0.41894593077983155,43,1762115222.0883088
0.49718213081359863,0.16392065584659576,-0.2554493546485901,0.9998593926429749,0.548655092716217,0.25955840945243835,-0.1158406138420105,0.9998812079429626,0.4616034924983978,0.26300927996635437,-0.07839903235435486,0.9995207786560059,0.5314961671829224,0.49864691495895386,-0.013646138831973076,0.9997813701629639,0.4833323359489441,0.4989802837371826,0.0135395098477602,0.9995627999305725,0.5334701538085938,0.633807897567749,0.02944769337773323,0.9620589017868042,0.48093685507774353,0.636318564414978,0.05867045000195503,0.9499954581260681,0.5334864258766174,0.7225751876831055,0.2862107455730438,0.9555490016937256,0.49495306611061096,0.7349972128868103,0.29726243019104004,0.9474642872810364,0.5570924282073975,0.4901098608970642,-0.12851975858211517,0.9029836654663086,0.4419387876987457,0.48592376708984375,-0.09159638732671738,0.6249573230743408,-179.44885024280475,0.5074142515659332,0.49881359934806824,126.74995021041741,130.5124104861607,0.7866230477985028,-0.007641733148587857,0.011014914941799072,-0.032697768341073276,0.04219368875439168,177.72988844348401,0.32562067903743613,44,1762115222.1664286
0.49728894233703613,0.1639496088027954,-0.2553917467594147,0.9998681545257568,0.5484956502914429,0.25966235995292664,-0.11782509088516235,0.9998860955238342,0.4617425501346588,0.2632709741592407,-0.08044695109128952,0.9995429515838623,0.5303834676742554,0.5000342726707458,-0.013156840577721596,0.9997861385345459,0.48288607597351074,0.49977385997772217,0.013060239143669605,0.9995791912078857,0.5333629846572876,0.6342398524284363,0.03308752179145813,0.963675856590271,0.48156681656837463,0.6362624764442444,0.06971118599176407,0.9530694484710693,0.533461332321167,0.7243556380271912,0.28706789016723633,0.9572492837905884,0.4951198101043701,0.7344711422920227,0.30585047602653503,0.9505196213722229,0.5564928650856018,0.49022382497787476,-0.1329752504825592,0.9038833379745483,0.44322624802589417,0.4886419177055359,-0.10020679235458374,0.6390010714530945,-179.63579364210088,0.5066347718238831,0.499904066324234,128.5375607066389,135.00079115255429,0.7903023422678408,-0.011365493050775574,0.015899957588525263,-0.054295660307676304,0.07122817343280649,177.61807660202152,0.2220220806971563,45,1762115222.2350116
0.4974655210971832,0.16389726102352142,-0.257284551858902,0.9998772144317627,0.5485053658485413,0.2599269449710846,-0.11997536569833755,0.9998915195465088,0.4620246887207031,0.2636241018772125,-0.08193699270486832,0.9995642304420471,0.5297531485557556,0.5006098747253418,-0.01397519838064909,0.9997889995574951,0.4829588532447815,0.5002399682998657,0.013887512497603893,0.9995929598808289,0.5332204699516296,0.634691059589386,0.028278136625885963,0.965172290802002,0.48143282532691956,0.6366831064224243,0.07016460597515106,0.955790102481842,0.5334412455558777,0.7234677672386169,0.28643059730529785,0.9585780501365662,0.49535423517227173,0.7339377403259277,0.3063729703426361,0.9530412554740906,0.5557807683944702,0.49159079790115356,-0.1403185874223709,0.9071294665336609,0.4448148310184479,0.49271148443222046,-0.11293213069438934,0.6537235379219055,-179.73807707537625,0.5063560009002686,0.5004249215126038,126.45647385578769,134.65856171687142,0.7911134577427439,-0.0037636641044459036,0.007032024540667208,0.10263168899566844,-0.11972525993782183,177.5520245371111,0.1542646085253638,46,1762115222.3090806
0.49773478507995605,0.1641802191734314,-0.2555658519268036,0.9998839497566223,0.5486267805099487,0.26059243083000183,-0.11964535713195801,0.9998947978019714,0.46207913756370544,0.2645472288131714,-0.08266665041446686,0.9995755553245544,0.5297623872756958,0.5020092725753784,-0.013166631571948528,0.99979168176651,0.4833834171295166,0.5015557408332825,0.013082854449748993,0.9996066093444824,0.5331429243087769,0.6349053978919983,0.034706734120845795,0.9661187529563904,0.48165446519851685,0.6359635591506958,0.07196875661611557,0.9581108093261719,0.5331215858459473,0.7265357971191406,0.2937106192111969,0.9595127701759338,0.4957033097743988,0.7340292930603027,0.3081872761249542,0.955191433429718,0.5553271174430847,0.49225354194641113,-0.14843414723873138,0.9081727266311646,0.446194589138031,0.4968537986278534,-0.11546500027179718,0.6595939993858337,-179.7078039943604,0.5065729022026062,0.5017825067043304,129.27861341645112,136.05562079855233,0.7940143008851321,0.0034153236251421876,0.021376509631231392,0.11304019908234786,0.22586797908682082,177.38368705159877,0.17391106371793633,47,1762115222.3725889
0.497901052236557,0.16492746770381927,-0.2517787516117096,0.9998905658721924,0.5487119555473328,0.2611748278141022,-0.1194319948554039,0.999896764755249,0.46193376183509827,0.265078067779541,-0.08217424899339676,0.9995912313461304,0.529901921749115,0.5023767948150635,-0.014114986173808575,0.9997929930686951,0.48385462164878845,0.50223308801651,0.014024117961525917,0.9996196031570435,0.5330873131752014,0.6348608732223511,0.03712572529911995,0.9664843082427979,0.4819236695766449,0.635284423828125,0.0753147229552269,0.9597989320755005,0.5324681401252747,0.7282291650772095,0.28708717226982117,0.9600983262062073,0.49595433473587036,0.7342485785484314,0.30478060245513916,0.9569221138954163,0.5551371574401855,0.4942455589771271,-0.14729885756969452,0.9101950526237488,0.4472127854824066,0.49754607677459717,-0.10987919569015503,0.6721420288085938,-179.6274023507559,0.5068782716989517,0.5023049414157867,131.60886158407737,137.89232553438802,0.7880125401648393,0.0037994129477793466,0.006500142387602786,0.0047788464892388385,-0.18509203767166735,177.42460022792565,0.2319176833388434,48,1762115222.4529617
0.49794554710388184,0.16531741619110107,-0.2500491440296173,0.9998953342437744,0.5487949848175049,0.2617468237876892,-0.1182393878698349,0.9998961687088013,0.4617671072483063,0.2654038071632385,-0.08156343549489975,0.9996006488800049,0.5299502015113831,0.5025551915168762,-0.014348568394780159,0.9997912645339966,0.4841662347316742,0.502762496471405,0.014255799353122711,0.9996289014816284,0.5330440402030945,0.6338708400726318,0.041780225932598114,0.9667225480079651,0.4820944666862488,0.6349334120750427,0.07799448072910309,0.9613053202629089,0.5321169495582581,0.727523148059845,0.2889786660671234,0.9604928493499756,0.4961533546447754,0.734363317489624,0.30391496419906616,0.9584167003631592,0.5549383759498596,0.4949002265930176,-0.14298449456691742,0.9102892875671387,0.448129802942276,0.49815988540649414,-0.10706602036952972,0.6796239018440247,-179.57411292423924,0.5070582181215286,0.5026588439941406,133.87218496965707,139.31267516027262,0.7866717873910658,0.0025898601698550227,0.005093506047868234,-0.017408362544939878,-0.020244867208695175,177.59379955227035,0.27062578265473736,49,1762115222.5224428
0.4984169006347656,0.16550377011299133,-0.26596540212631226,0.9999006986618042,0.5489529371261597,0.2619107663631439,-0.1214618906378746,0.9998971223831177,0.46185770630836487,0.2654854357242584,-0.09413029253482819,0.9996165037155151,0.5303503274917603,0.5027586817741394,-0.013093548826873302,0.9997916221618652,0.4842549264431,0.5031907558441162,0.013008792884647846,0.9996398091316223,0.533427894115448,0.6336970925331116,0.053207606077194214,0.9678514003753662,0.48224836587905884,0.6344221234321594,0.08429776132106781,0.9632107615470886,0.5323188304901123,0.727603554725647,0.3025360107421875,0.9617260098457336,0.4962615966796875,0.7347273826599121,0.30874103307724,0.9602068066596985,0.5548053979873657,0.49674174189567566,-0.14949795603752136,0.9111529588699341,0.45154720544815063,0.500404953956604,-0.12426159530878067,0.6889245510101318,-179.5456919022196,0.5073026269674301,0.5029747188091278,137.47053404024967,142.39054057098897,0.8043358535323208,0.00411617439208506,0.005319757637082008,0.025705188748981457,0.003810381716157892,177.6497154231402,0.2940152912012436,50,1762115222.5818205
0.49871641397476196,0.16524158418178558,-0.2581038177013397,0.9999065399169922,0.5489863157272339,0.26137444376945496,-0.12080802023410797,0.9998976588249207,0.462055504322052,0.2653363049030304,-0.08793824166059494,0.9996345043182373,0.5303318500518799,0.5026204586029053,-0.013654056005179882,0.9997935891151428,0.4844173789024353,0.5028780698776245,0.013562940061092377,0.9996535181999207,0.5333631038665771,0.6332075595855713,0.04691997915506363,0.9687513113021851,0.48234105110168457,0.6322402954101562,0.08425718545913696,0.9648343920707703,0.5306946039199829,0.7279249429702759,0.29542261362075806,0.9627175331115723,0.49595388770103455,0.7351551651954651,0.30653566122055054,0.9620023965835571,0.5547072291374207,0.49515530467033386,-0.15191957354545593,0.9131441116333008,0.452889621257782,0.4993749260902405,-0.12026218324899673,0.7046337127685547,-179.55634908237224,0.5073746144771576,0.5027492642402649,135.71426751773723,143.29609011100126,0.7959152570916033,0.0011277307377707394,-0.003531891132782299,-0.04681589597729569,-0.13866678310607325,177.3905574975114,0.33868946503631947,51,1762115222.6456544
0.4992400109767914,0.1641174703836441,-0.26126599311828613,0.9999116659164429,0.5492781400680542,0.25919395685195923,-0.12090660631656647,0.9998994469642639,0.4622482359409332,0.26414939761161804,-0.09193961322307587,0.9996510744094849,0.5306943655014038,0.5014098882675171,-0.013406959362328053,0.9997960925102234,0.4844369888305664,0.5019989013671875,0.013308410532772541,0.9996649026870728,0.5336364507675171,0.632953405380249,0.05401303619146347,0.9698439836502075,0.4824303686618805,0.6292154788970947,0.0879790335893631,0.9664826393127441,0.5307060480117798,0.7275121212005615,0.2987857758998871,0.963965117931366,0.49535566568374634,0.7350835204124451,0.30951839685440063,0.9637150168418884,0.5549139976501465,0.493527352809906,-0.15342190861701965,0.9155454635620117,0.4549068510532379,0.49839913845062256,-0.12371537834405899,0.7175152897834778,-179.56975415085338,0.5075656771659851,0.5017043948173523,138.22117513955155,145.75297478114223,0.8009877289671388,0.003001921679390457,-0.016416686020812574,0.029446745743458975,-0.20244216883075336,176.7411247889018,0.3606098281140343,52,1762115222.7093012
0.4999074935913086,0.16210941970348358,-0.2494584619998932,0.9999172687530518,0.5499420762062073,0.2571001350879669,-0.11653327941894531,0.999904215335846,0.4623752534389496,0.2621287703514099,-0.08809266984462738,0.9996660947799683,0.5314567685127258,0.4998645782470703,-0.013670219108462334,0.9998030066490173,0.4845771789550781,0.500830352306366,0.013569007627665997,0.999678373336792,0.5343066453933716,0.6329711675643921,0.05121409893035889,0.9710180163383484,0.48244839906692505,0.6280184984207153,0.09904878586530685,0.9677698016166687,0.5312196016311646,0.7274625301361084,0.29530131816864014,0.9650495052337646,0.495232492685318,0.7349432110786438,0.3162081837654114,0.9651284217834473,0.5553816556930542,0.49089640378952026,-0.14614824950695038,0.9198669791221619,0.4566184878349304,0.4978500008583069,-0.11500585079193115,0.7298184037208557,-179.55772105485468,0.508016973733902,0.5003474652767181,137.11349759572772,149.8841817503025,0.795176993872349,0.005701258998222945,-0.01714217945242613,0.034100904532177886,-0.009165205873890766,176.7133273136811,0.383194011553275,53,1762115222.7884586
