nose_x,nose_y,nose_z,nose_visibility,left_shoulder_x,left_shoulder_y,left_shoulder_z,left_shoulder_visibility,right_shoulder_x,right_shoulder_y,right_shoulder_z,right_shoulder_visibility,left_hip_x,left_hip_y,left_hip_z,left_hip_visibility,right_hip_x,right_hip_y,right_hip_z,right_hip_visibility,left_knee_x,left_knee_y,left_knee_z,left_knee_visibility,right_knee_x,right_knee_y,right_knee_z,right_knee_visibility,left_ankle_x,left_ankle_y,left_ankle_z,left_ankle_visibility,right_ankle_x,right_ankle_y,right_ankle_z,right_ankle_visibility,left_wrist_x,left_wrist_y,left_wrist_z,left_wrist_visibility,right_wrist_x,right_wrist_y,right_wrist_z,right_wrist_visibility,trunk_lateral_inclination,center_mass_x,center_mass_y,left_knee_angle,right_knee_angle,person_height,center_mass_velocity_x,center_mass_velocity_y,center_mass_acceleration_x,center_mass_acceleration_y,body_orientation,torso_leg_ratio,frame,timestamp
0.5053132772445679,0.377347469329834,-0.309876412153244,0.999995231628418,0.5396226048469543,0.46456339955329895,-0.141951784491539,0.9999905824661255,0.4586469531059265,0.45905110239982605,-0.15375521779060364,0.9999678134918213,0.5200966596603394,0.655931293964386,-0.0011210094671696424,0.9998459815979004,0.4738629460334778,0.652580976486206,0.0009415048989467323,0.9997490048408508,0.5192778706550598,0.8069165349006653,-0.0018700957298278809,0.9937137961387634,0.4725877642631531,0.804456353187561,0.004672615323215723,0.9883622527122498,0.5223419666290283,0.9214281439781189,0.1829325258731842,0.9905569553375244,0.467734158039093,0.9190848469734192,0.18458537757396698,0.983248233795166,0.5556066036224365,0.6678470373153687,-0.12883804738521576,0.9739956855773926,0.4350307583808899,0.6714823842048645,-0.15557695925235748,0.9470969438552856,179.35844846557453,0.49697980284690857,0.654256135225296,121.4896587380271,123.9105565964748,0.7338471660924942,0.0,0.0,0.0,0.0,-176.10568296803405,2.405764777981854,0,1762115240.5656676
0.5055080652236938,0.37734681367874146,-0.23564927279949188,0.9999954104423523,0.539353609085083,0.4631483852863312,-0.11643191426992416,0.9999905824661255,0.4585568308830261,0.4591548442840576,-0.12575460970401764,0.9999682307243347,0.5200988054275513,0.6566084027290344,-0.0010458547621965408,0.9998461604118347,0.4738749861717224,0.6531199812889099,0.0008644738118164241,0.9997518062591553,0.51938396692276,0.8059457540512085,0.0063665034249424934,0.993606448173523,0.47256213426589966,0.8044059872627258,0.02183787152171135,0.987990140914917,0.5224247574806213,0.9227911233901978,0.1289314329624176,0.9904056191444397,0.4676591753959656,0.9191141724586487,0.14687754213809967,0.982582688331604,0.5557345151901245,0.6653614044189453,-0.0975460484623909,0.9754292964935303,0.43474435806274414,0.6713756322860718,-0.1147371381521225,0.949946939945221,179.41783445839454,0.49698689579963684,0.6548641920089722,136.45306549330496,140.4134875118376,0.6596660171034796,0.00010404899221118972,0.008919796588592033,0.0015263308800878624,0.13084760061526327,-177.17034527416314,2.111745137679291,1,1762115240.633837
0.5056766867637634,0.37738659977912903,-0.23184534907341003,0.9999955892562866,0.5391552448272705,0.46243494749069214,-0.11417578160762787,0.9999906420707703,0.4584414064884186,0.4593478739261627,-0.12388437986373901,0.9999687075614929,0.5201499462127686,0.6570214033126831,-0.0010510373394936323,0.9998488426208496,0.47391995787620544,0.6537132859230042,0.000868443283252418,0.9997578263282776,0.5194336771965027,0.8051081895828247,0.01302569080144167,0.9935807585716248,0.47254109382629395,0.8044092655181885,0.02984556555747986,0.9877617955207825,0.522435188293457,0.9227818250656128,0.137050598859787,0.9903908371925354,0.4676304757595062,0.9188736081123352,0.1518903523683548,0.9822593927383423,0.5559114217758179,0.6647624373435974,-0.09629850089550018,0.9768612384796143,0.434650719165802,0.6714215874671936,-0.11303997039794922,0.952946126461029,179.48049563262074,0.497034952044487,0.6553673446178436,138.90397277322106,144.03415554782012,0.6611014589254957,0.0007609951409575372,0.007967678117696806,0.010403077240544878,-0.015077281469377974,-177.80966785753768,1.845394989597353,2,1762115240.6969862
0.5057502388954163,0.3773983418941498,-0.247735857963562,0.9999957084655762,0.5391041040420532,0.46222013235092163,-0.11951754987239838,0.9999902844429016,0.4582532048225403,0.45967376232147217,-0.13001307845115662,0.999968945980072,0.5203084349632263,0.6573590636253357,-0.0010742181912064552,0.9998474717140198,0.473986953496933,0.6543105840682983,0.0008901942637749016,0.9997607469558716,0.519516110420227,0.8045544028282166,0.021634215489029884,0.9935237169265747,0.472538560628891,0.8044427037239075,0.03586375713348389,0.9875782132148743,0.5224850177764893,0.9219743609428406,0.15083637833595276,0.990356981754303,0.4675477147102356,0.9188002943992615,0.16035223007202148,0.9820563197135925,0.5559346079826355,0.6646962761878967,-0.10280867666006088,0.9774978160858154,0.434509813785553,0.6716254949569702,-0.12055949866771698,0.9550612568855286,179.54991682671167,0.49714769423007965,0.655834823846817,141.01272550915053,145.66919369229092,0.6764816881566269,0.0015084983124597255,0.006254904712990551,0.010001644609263652,-0.022917027703902287,-178.19608628853265,1.5128524458833688,3,1762115240.7717242
0.5057497620582581,0.3776175081729889,-0.24904632568359375,0.999995768070221,0.5390501618385315,0.4618372619152069,-0.11954347044229507,0.9999897480010986,0.45814791321754456,0.4598351716995239,-0.13071921467781067,0.9999692440032959,0.5203627347946167,0.6586621403694153,-0.0009720612433739007,0.9998476505279541,0.47398099303245544,0.6556546688079834,0.0007851677946746349,0.9997660517692566,0.519559383392334,0.804492175579071,0.02687251940369606,0.993452787399292,0.4725424349308014,0.8045493960380554,0.03811712935566902,0.9875481724739075,0.5224571824073792,0.9210783243179321,0.15386489033699036,0.9903097152709961,0.46737951040267944,0.9186563491821289,0.1629234254360199,0.9819733500480652,0.5559080243110657,0.6646894216537476,-0.10141177475452423,0.9777054190635681,0.43420109152793884,0.6721693873405457,-0.12114967405796051,0.9568605422973633,179.58349290378098,0.49717186391353607,0.6571584045886993,143.33980015994317,146.49349865651902,0.6783509002048423,0.00047283556749596543,0.025893431841714942,-0.02026084382248192,0.3841917969855933,-178.58238907909245,1.2590159709023734,4,1762115240.8228407
0.5057498812675476,0.37792956829071045,-0.21694524586200714,0.9999958872795105,0.5389074683189392,0.4614630341529846,-0.10927047580480576,0.9999894499778748,0.45806509256362915,0.4599383771419525,-0.1193479672074318,0.9999698996543884,0.5204846262931824,0.6593247056007385,-0.001008513499982655,0.9998510479927063,0.47400131821632385,0.656543493270874,0.0008167446358129382,0.9997745752334595,0.519577145576477,0.8043839931488037,0.024626808241009712,0.9934768676757812,0.47254377603530884,0.8045399785041809,0.03778804466128349,0.9876087307929993,0.5224499106407166,0.9210343956947327,0.13295166194438934,0.9903964400291443,0.4672044813632965,0.9185820817947388,0.14598152041435242,0.9819791913032532,0.5558527708053589,0.6643636226654053,-0.09106108546257019,0.9784327745437622,0.4339243769645691,0.6726667881011963,-0.11191356182098389,0.9593506455421448,179.63882704241612,0.4972429722547531,0.6579340994358063,147.1097292279517,150.50411970369507,0.6486764957431724,0.000891714603489721,0.00972738797134554,0.005252837390078432,-0.20272582868814318,-178.91955108698644,1.0073269387704955,5,1762115240.902584
0.5057141780853271,0.3780028820037842,-0.20594391226768494,0.9999960660934448,0.5389000177383423,0.46148523688316345,-0.10584147274494171,0.9999890923500061,0.45801854133605957,0.4600021243095398,-0.11310376226902008,0.9999704360961914,0.5206664204597473,0.6600573062896729,-0.0013090558350086212,0.9998546242713928,0.4740212559700012,0.6573657393455505,0.0011040098033845425,0.9997833967208862,0.5195841789245605,0.8043489456176758,0.02465316280722618,0.993483304977417,0.47252923250198364,0.8045888543128967,0.04116140305995941,0.98771071434021,0.522452175617218,0.9202714562416077,0.12957358360290527,0.9904441833496094,0.46713751554489136,0.9184144139289856,0.1446872055530548,0.9820070266723633,0.5558745265007019,0.6643454432487488,-0.08624951541423798,0.9791353344917297,0.43345046043395996,0.6726574301719666,-0.10539182275533676,0.9615542888641357,179.67717280221095,0.49734383821487427,0.6587115228176117,148.01545815835917,152.89824158464242,0.6409900661556831,0.001253347691870145,0.009660164836792615,0.0044936071205890936,-0.0008353061868541431,-178.94949285577067,0.8832659246025132,6,1762115240.9830613
0.5056977868080139,0.37804916501045227,-0.20159175992012024,0.9999962449073792,0.5388882160186768,0.4615902900695801,-0.10411974042654037,0.9999887943267822,0.45796746015548706,0.460188627243042,-0.1116333156824112,0.9999710917472839,0.5207868814468384,0.6605173945426941,-0.0014951585326343775,0.9998583197593689,0.47406941652297974,0.6579329967498779,0.0012817628448829055,0.9997919797897339,0.519597589969635,0.8043505549430847,0.025192836299538612,0.9934695959091187,0.472505658864975,0.8047940731048584,0.04189065843820572,0.9877743124961853,0.5225318670272827,0.9202731847763062,0.12316706031560898,0.9905120134353638,0.4671189785003662,0.9184245467185974,0.14027735590934753,0.9819872379302979,0.5558740496635437,0.664364755153656,-0.08415060490369797,0.9797376990318298,0.43317896127700806,0.6727519035339355,-0.10378409922122955,0.9636498093605042,179.7112094764278,0.49742814898490906,0.659225195646286,150.26336766925317,154.5293615670303,0.6357843782317325,0.0009760261212052629,0.005946548683313507,-0.0032104213593459707,-0.04299078716075978,-179.00765467322952,0.8146086662591937,7,1762115241.069443
0.5056681632995605,0.37813177704811096,-0.21337954699993134,0.9999963045120239,0.5388631224632263,0.46161869168281555,-0.10845772922039032,0.9999880790710449,0.457938015460968,0.4602113366127014,-0.11601857095956802,0.9999716877937317,0.5210769176483154,0.6606608629226685,-0.0017603596206754446,0.9998597502708435,0.4742964208126068,0.658090353012085,0.001539885881356895,0.9997982382774353,0.5195995569229126,0.8042522072792053,0.027176713570952415,0.9934833645820618,0.47248977422714233,0.804262638092041,0.04434959217905998,0.9879201054573059,0.5226423740386963,0.9203304052352905,0.1265205293893814,0.9906561970710754,0.46709099411964417,0.9184242486953735,0.14463332295417786,0.9821362495422363,0.5558810234069824,0.6643479466438293,-0.0883287563920021,0.9795657992362976,0.4327637255191803,0.6722686290740967,-0.10872501134872437,0.9653761386871338,179.79389729514742,0.4976866692304611,0.6593756079673767,150.78205371216958,154.99219679627936,0.644076111517096,0.00328430258973194,0.0019108738452218688,0.02932489239753844,-0.051270171486012754,-179.00367906707925,0.6055224226542845,8,1762115241.148157
0.5056129097938538,0.378396213054657,-0.24407558143138885,0.9999961853027344,0.5388613939285278,0.46161341667175293,-0.11823537200689316,0.999986469745636,0.4579361379146576,0.46016448736190796,-0.12774604558944702,0.9999720454216003,0.5213255286216736,0.660905122756958,-0.0017434755573049188,0.9998548030853271,0.47451457381248474,0.6580958366394043,0.0015235882019624114,0.9997988939285278,0.5196095705032349,0.8042668104171753,0.030820703133940697,0.9934654831886292,0.47244518995285034,0.8038378953933716,0.04276915639638901,0.9881395101547241,0.5226379632949829,0.9203490614891052,0.15097765624523163,0.9907209277153015,0.46708935499191284,0.9184233546257019,0.1562044322490692,0.9823793768882751,0.5558539628982544,0.664312481880188,-0.0940084308385849,0.9770589470863342,0.4323435425758362,0.671319305896759,-0.11882287263870239,0.966234028339386,179.86189986369783,0.49792005121707916,0.6595004796981812,146.76324090657286,151.0733733614263,0.671509096186472,0.002545931451340231,0.0013622082468542419,-0.008054787480534792,-0.005985316276524324,-178.97425514584606,0.4110123108831006,9,1762115241.2398255
0.5055267810821533,0.37842226028442383,-0.22980765998363495,0.9999961853027344,0.5389670133590698,0.4616153836250305,-0.1157831996679306,0.9999855756759644,0.4579346179962158,0.46017876267433167,-0.12311329692602158,0.9999724626541138,0.521555483341217,0.6611501574516296,-0.0017891892930492759,0.999854564666748,0.4747024178504944,0.6580646634101868,0.0015662083169445395,0.9998025894165039,0.5196148157119751,0.805067777633667,0.027990493923425674,0.993540346622467,0.4724288582801819,0.8037757873535156,0.04055020213127136,0.9884654879570007,0.5225001573562622,0.9221510291099548,0.1355576068162918,0.9909778237342834,0.46707862615585327,0.9193137884140015,0.14131362736225128,0.9828372001647949,0.5558150410652161,0.6642977595329285,-0.09366187453269958,0.9757885336875916,0.43209633231163025,0.670484185218811,-0.115877166390419,0.9674801826477051,179.90719408520303,0.4981289505958557,0.6596074104309082,149.0614246835488,153.86483314863702,0.6556055977344005,0.0025078999115553382,0.0012837356277424286,-0.0004565800809052097,-0.0009420874091757896,-178.984311219536,0.2609480107780822,10,1762115241.323122
0.505445659160614,0.37841665744781494,-0.23068153858184814,0.9999961853027344,0.5392577052116394,0.46154043078422546,-0.11593993008136749,0.9999849200248718,0.4579595625400543,0.4601142406463623,-0.123276486992836,0.9999726414680481,0.5219314694404602,0.6614124774932861,-0.0017866247799247503,0.999855101108551,0.47482529282569885,0.6579954624176025,0.0015632554423063993,0.9998059868812561,0.5195956826210022,0.8057664632797241,0.02652578428387642,0.9935664534568787,0.47240346670150757,0.8037460446357727,0.039561495184898376,0.9887274503707886,0.5221784114837646,0.9221378564834595,0.13570688664913177,0.991096019744873,0.4669506549835205,0.9193071126937866,0.14438864588737488,0.9830848574638367,0.5558285713195801,0.6642904281616211,-0.09393224120140076,0.9752659797668457,0.4318613111972809,0.6702855229377747,-0.11522100120782852,0.9683061242103577,179.93366488457647,0.49837838113307953,0.6597039699554443,147.8674957749448,152.38429369013917,0.65700397755794,0.0033241638652525087,0.001286849981888778,0.010878359841535885,4.15050363605022e-05,-178.99497956451015,0.16033850997611782,11,1762115241.3981576
0.5053385496139526,0.37840020656585693,-0.2321261167526245,0.9999960660934448,0.5394737720489502,0.46155819296836853,-0.1179957389831543,0.9999836683273315,0.4579769968986511,0.46010300517082214,-0.12393931299448013,0.9999725818634033,0.5221301913261414,0.6615884900093079,-0.0017228417564183474,0.9998543858528137,0.4748865067958832,0.6579204797744751,0.0014972747303545475,0.9998082518577576,0.5195689797401428,0.8058724403381348,0.02748083509504795,0.9935457706451416,0.47240108251571655,0.803699254989624,0.040489889681339264,0.9889485239982605,0.5219362378120422,0.9220250248908997,0.13626177608966827,0.9911988377571106,0.4667906165122986,0.919203519821167,0.14573517441749573,0.9832736849784851,0.5558056235313416,0.6642940640449524,-0.09456802904605865,0.9735224843025208,0.4316670000553131,0.6702378988265991,-0.11585323512554169,0.9685943722724915,179.93748760651835,0.49850834906101227,0.6597544848918915,148.2629202839788,152.6183049768039,0.6582845187404481,0.0017242279128025404,0.0006701596680119941,-0.02122565368079275,-0.008181361891770678,-178.9770483575234,0.13375747709751967,12,1762115241.473535
0.5043705105781555,0.37864336371421814,-0.19935542345046997,0.9999961853027344,0.5396994352340698,0.4615522623062134,-0.10917516052722931,0.9999839663505554,0.45800238847732544,0.46010035276412964,-0.10963870584964752,0.9999728798866272,0.522234320640564,0.6616255640983582,-0.002273424994200468,0.9998594522476196,0.4749906659126282,0.6576579213142395,0.002039257436990738,0.9998154044151306,0.5195050835609436,0.8059529662132263,0.026793042197823524,0.9935398101806641,0.4724593758583069,0.8030877113342285,0.042132418602705,0.9891142249107361,0.5218448042869568,0.92181396484375,0.11235924810171127,0.9913838505744934,0.4667838513851166,0.9187744855880737,0.13080723583698273,0.9834564328193665,0.5560989379882812,0.6641014218330383,-0.08936899900436401,0.9747028946876526,0.431566059589386,0.6702680587768555,-0.10217652469873428,0.9698496460914612,179.93129119084705,0.49861249327659607,0.6596417427062988,154.85627422435283,157.9086522612473,0.6296732561720587,0.0011791593331245747,-0.001276508730064463,-0.006171468086991853,-0.022040899700698828,-178.9818538624199,0.1428595550611386,13,1762115241.5618558
0.502524733543396,0.37874963879585266,-0.2003755122423172,0.9999962449073792,0.5401550531387329,0.46178027987480164,-0.10728655010461807,0.9999838471412659,0.45810872316360474,0.46012336015701294,-0.10599122941493988,0.9999727606773376,0.5222786664962769,0.662341296672821,-0.0024795997887849808,0.9998623132705688,0.4750261902809143,0.6577011942863464,0.0022441591136157513,0.9998199939727783,0.5194222927093506,0.8067104816436768,0.026439910754561424,0.9935160875320435,0.47251075506210327,0.8033839464187622,0.04184264317154884,0.9893379211425781,0.521727442741394,0.9221712946891785,0.11299632489681244,0.9914946556091309,0.46672767400741577,0.9191170334815979,0.13182802498340607,0.9836286902427673,0.5566003322601318,0.6640596985816956,-0.08462752401828766,0.9752848148345947,0.43156903982162476,0.6702154278755188,-0.0952623039484024,0.9702238440513611,179.8620030792819,0.4986524283885956,0.6600212454795837,154.38535029698545,157.30619557300537,0.6308014034949002,0.0005391920167390954,0.0051239336874295835,-0.008640648559423408,0.08641687182831144,-178.84307312548725,0.27555704952390114,14,1762115241.6359205
0.5013071894645691,0.3779697120189667,-0.235472172498703,0.9999959468841553,0.5405210256576538,0.4618660807609558,-0.11713908612728119,0.9999823570251465,0.4587676525115967,0.4596146047115326,-0.1080864891409874,0.9999712109565735,0.5223401784896851,0.6626394391059875,-0.002471775282174349,0.9998573660850525,0.4751359522342682,0.6573321223258972,0.0022372358944267035,0.9998154044151306,0.5193871259689331,0.8068586587905884,0.024824831634759903,0.993260383605957,0.47262412309646606,0.8034959435462952,0.0403890535235405,0.9893366694450378,0.5216227173805237,0.9224465489387512,0.12973728775978088,0.9913865923881531,0.46647873520851135,0.9191128015518188,0.1489429920911789,0.9834544062614441,0.5566054582595825,0.6639717221260071,-0.09153394401073456,0.9730859398841858,0.43153753876686096,0.6687958836555481,-0.10086214542388916,0.9679309129714966,179.73939026246418,0.4987380653619766,0.6599857807159424,148.42538688923815,151.4129095155954,0.6596814246136227,0.0013746015162474216,-0.0005692625036834633,0.013409572050170761,-0.09138431459711605,-178.422481274078,0.46335423027476474,15,1762115241.69822
0.49893587827682495,0.37704360485076904,-0.21063649654388428,0.9999958276748657,0.5416690111160278,0.46216943860054016,-0.11159590631723404,0.9999821782112122,0.4597073197364807,0.4594529867172241,-0.09821987897157669,0.9999691247940063,0.5224793553352356,0.662727415561676,-0.002894074423238635,0.9998569488525391,0.47526678442955017,0.6567872762680054,0.002661842154338956,0.9998140335083008,0.5193663239479065,0.8075791001319885,0.01787395589053631,0.9930298924446106,0.47278863191604614,0.8044959902763367,0.03546534478664398,0.9894320964813232,0.521567702293396,0.9228476881980896,0.1206297054886818,0.9913467168807983,0.46623262763023376,0.9193026423454285,0.1370367705821991,0.983368456363678,0.5574083924293518,0.6639739274978638,-0.08952653408050537,0.9736200571060181,0.43193602561950684,0.6651524901390076,-0.08335831016302109,0.9658913612365723,179.47727343594573,0.4988730698823929,0.6597573459148407,146.3803542934177,150.99139199463139,0.641276381787171,0.002017558549281874,-0.003413815955904098,0.009608592770226486,-0.042510081282625005,-178.1017439392906,0.8332574651689604,16,1762115241.7651348
0.49783873558044434,0.37667784094810486,-0.2115771472454071,0.9999955892562866,0.5421665906906128,0.4623884856700897,-0.11275862157344818,0.9999817609786987,0.4602639675140381,0.4594291150569916,-0.1022239476442337,0.9999659657478333,0.5225740671157837,0.6628981828689575,-0.003148583695292473,0.9998553991317749,0.4753642976284027,0.656530499458313,0.002920594997704029,0.9998102784156799,0.5193127393722534,0.808565080165863,0.01640918478369713,0.9927883148193359,0.47290992736816406,0.8053697943687439,0.03499834984540939,0.9894770383834839,0.521405816078186,0.9230664372444153,0.12868830561637878,0.9912760257720947,0.466127872467041,0.9193751811981201,0.14593780040740967,0.9832801222801208,0.5577077269554138,0.6639783382415771,-0.09121353924274445,0.9736278057098389,0.43218737840652466,0.6633535027503967,-0.08571481704711914,0.9624976515769958,179.3527022066573,0.4989691823720932,0.6597143411636353,143.15215012558158,147.9186368360574,0.6467364195946826,0.0013178713986354616,-0.0005896708304592159,-0.0095939423347037,0.03872400036690838,-177.93064365646268,0.9576240335267893,17,1762115241.838065
0.4962989389896393,0.37644264101982117,-0.2098880112171173,0.9999948143959045,0.5431053042411804,0.4630586504936218,-0.1139061450958252,0.9999814033508301,0.4610159397125244,0.4594399034976959,-0.08982756733894348,0.999957799911499,0.5231177806854248,0.6626689434051514,-0.004659364465624094,0.9998505115509033,0.47596392035484314,0.6547015309333801,0.004420442506670952,0.9997992515563965,0.5193089246749878,0.8086472153663635,0.013192055746912956,0.9922698140144348,0.4739711880683899,0.806046187877655,0.03334609419107437,0.9891875982284546,0.5211201310157776,0.9233550429344177,0.1232881173491478,0.9910848736763,0.4661208689212799,0.9193896055221558,0.14059588313102722,0.9827461838722229,0.5588864684104919,0.663982093334198,-0.09207907319068909,0.9743093252182007,0.4332493841648102,0.6601818799972534,-0.057216107845306396,0.9543190002441406,179.26880375814983,0.49954085052013397,0.6586852371692657,143.0852415422298,147.3472280181676,0.6432754389918064,0.009833372977140561,-0.01770181431934317,0.14647676872649157,-0.2943492477956673,-177.47586329298463,0.8342077155328962,18,1762115241.8962004
0.4920867085456848,0.3759867250919342,-0.25535470247268677,0.9999938607215881,0.5434743165969849,0.46317258477211,-0.14947295188903809,0.9999811053276062,0.4626480042934418,0.45943790674209595,-0.09087354689836502,0.9999531507492065,0.5232833623886108,0.6616183519363403,-0.005997710861265659,0.9998415112495422,0.4768112599849701,0.6535710692405701,0.00579232769086957,0.9997805953025818,0.519230306148529,0.8087056279182434,0.00481772143393755,0.9917219281196594,0.4750949442386627,0.80842524766922,0.03331289440393448,0.9888772964477539,0.5209223628044128,0.9235265851020813,0.13868677616119385,0.9907429218292236,0.4661281108856201,0.9194791913032532,0.1653374284505844,0.9821200370788574,0.5604144930839539,0.6655060648918152,-0.12243883311748505,0.9749734401702881,0.43443140387535095,0.6553388833999634,-0.06604869663715363,0.9461659789085388,179.12034364702316,0.5000473111867905,0.6575947105884552,134.7779165749128,140.09813405951388,0.6808360061088354,0.005253168469860897,-0.011311282843894899,-0.04750731396773076,0.06628459160333498,-177.3544605306096,0.8283473257052387,19,1762115241.992611
0.487783819437027,0.37599924206733704,-0.25730985403060913,0.9999927878379822,0.5437870621681213,0.4637625515460968,-0.16736748814582825,0.9999802112579346,0.46416395902633667,0.4594705402851105,-0.09770075231790543,0.9999513030052185,0.523242712020874,0.6614742875099182,-0.010051844641566277,0.9998326897621155,0.47715869545936584,0.6535550355911255,0.00992230512201786,0.9997634887695312,0.5192396640777588,0.8086955547332764,-0.0018560269381850958,0.9914965033531189,0.47527799010276794,0.8103023767471313,0.04889053851366043,0.9888191223144531,0.5209327340126038,0.9233462810516357,0.13885292410850525,0.990451455116272,0.4664126932621002,0.9177772402763367,0.19640026986598969,0.9816845655441284,0.5614007711410522,0.6686421036720276,-0.1326206624507904,0.9750391840934753,0.43741923570632935,0.6481290459632874,-0.062442243099212646,0.9407857060432434,178.8960907659222,0.5002007037401199,0.6575146615505219,132.3167035349479,140.00085132357506,0.6907633481438341,0.002253834189267773,-0.0011761800334900406,-0.04406994994159863,0.14891753693395293,-176.91450903921458,1.052324356801527,20,1762115242.0606694
0.4868333339691162,0.375988632440567,-0.2631172835826874,0.9999918937683105,0.5439313650131226,0.4639510214328766,-0.17075762152671814,0.9999793171882629,0.4647536277770996,0.45948001742362976,-0.10061399638652802,0.9999499917030334,0.5231966376304626,0.6613532304763794,-0.011290979571640491,0.9998231530189514,0.47735315561294556,0.653567373752594,0.011183546856045723,0.9997470378875732,0.5192685723304749,0.808732271194458,-0.00626180786639452,0.991410493850708,0.47538596391677856,0.811279833316803,0.051536016166210175,0.9889266490936279,0.5209364891052246,0.9230499863624573,0.13974955677986145,0.990213930606842,0.4664924144744873,0.917208194732666,0.2035505473613739,0.9815381169319153,0.561846137046814,0.6700481176376343,-0.13504496216773987,0.9749836921691895,0.43831905722618103,0.6463460326194763,-0.0646609291434288,0.9363008141517639,178.80955824390185,0.5002748966217041,0.6574603021144867,129.97445447026934,139.18921714386227,0.6965334335711578,0.000922277512358778,-0.0006757317463516414,-0.016552326224870798,0.0062209768844550175,-176.76805738660244,1.125569037749835,21,1762115242.1411147
0.48475056886672974,0.3774164915084839,-0.24156638979911804,0.9999866485595703,0.5439192056655884,0.4653293192386627,-0.17279738187789917,0.9999745488166809,0.4658392071723938,0.45949944853782654,-0.08200009167194366,0.9999465942382812,0.5230499505996704,0.6631573438644409,-0.020458640530705452,0.999796450138092,0.47765079140663147,0.6561723351478577,0.020381467416882515,0.9997280240058899,0.5193067193031311,0.8090812563896179,-0.0009973670821636915,0.9910582900047302,0.47537246346473694,0.8112385869026184,0.07435557246208191,0.9887499809265137,0.5210786461830139,0.9230221509933472,0.14577855169773102,0.9894729852676392,0.47304782271385193,0.9140340089797974,0.21182957291603088,0.9810621738433838,0.5633583664894104,0.6754457950592041,-0.1308445930480957,0.9744077920913696,0.4404158592224121,0.6466143131256104,-0.033341772854328156,0.9308215975761414,178.6847301658814,0.5003503710031509,0.6596648395061493,135.37504254683472,145.9789148171553,0.6853208518079753,0.0010306245035096172,0.03010359556707341,0.001479509494758134,0.420300614892784,-175.72991372010424,16.328545769580042,22,1762115242.2143464
0.48249921202659607,0.37920045852661133,-0.22132113575935364,0.9999778866767883,0.5428265333175659,0.4660147428512573,-0.17802950739860535,0.9999657869338989,0.46619004011154175,0.4595000445842743,-0.06728057563304901,0.9999386668205261,0.5227373838424683,0.6650660634040833,-0.03005722537636757,0.9997308850288391,0.47799593210220337,0.6604181528091431,0.029986727982759476,0.9996870160102844,0.5193279385566711,0.8100839257240295,0.0014983761357143521,0.9902639389038086,0.473422110080719,0.8111327290534973,0.08462338149547577,0.9881891012191772,0.5213605165481567,0.9230965375900269,0.15132565796375275,0.9876585602760315,0.47952985763549805,0.9138662815093994,0.22286801040172577,0.9798799753189087,0.5648217797279358,0.6811891198158264,-0.13628777861595154,0.9728732705116272,0.4430455267429352,0.645298957824707,-0.03037182427942753,0.9234181046485901,178.81358967068465,0.5003666579723358,0.6627421081066132,139.2571182034184,146.3461943850763,0.6767209471628932,0.00019601921382844713,0.03703597427826192,-0.010044758535694193,0.08343353569982356,-175.14109443406903,1.017308560971999,23,1762115242.297435
0.4795275330543518,0.38117220997810364,-0.20052258670330048,0.9999712109565735,0.5407928228378296,0.4681609570980072,-0.18610861897468567,0.9999637603759766,0.4671647548675537,0.45928454399108887,-0.04531639814376831,0.9999303221702576,0.5219672918319702,0.6693720817565918,-0.03666868805885315,0.999679684638977,0.4783242642879486,0.6659547686576843,0.036561790853738785,0.9996420741081238,0.5192011594772339,0.8141087293624878,-0.005180482752621174,0.989600419998169,0.47101718187332153,0.8149706721305847,0.07797703891992569,0.9876127243041992,0.5213345289230347,0.9242427349090576,0.1637195199728012,0.9853763580322266,0.4869510233402252,0.913453996181488,0.23511449992656708,0.9779665470123291,0.5650418996810913,0.6948825120925903,-0.1500418484210968,0.9735757112503052,0.4443321228027344,0.6439301371574402,-0.01798219233751297,0.9165337681770325,178.92326781810073,0.5001457780599594,0.6676634252071381,135.34933721443258,136.96705346088405,0.6705618833696083,-0.0034159415213303344,0.07610891928763688,-0.05585952346638921,0.6042690518218409,-173.12574177999198,0.42425879151559936,24,1762115242.3620965
0.4767971932888031,0.3846934139728546,-0.182172954082489,0.9999561905860901,0.5373216867446899,0.4686150550842285,-0.17835475504398346,0.9999622106552124,0.46739786863327026,0.4590286612510681,-0.03379373624920845,0.9999114274978638,0.5203434228897095,0.6713653802871704,-0.03772267326712608,0.9996322393417358,0.4782640039920807,0.6686772108078003,0.03760267421603203,0.9995859861373901,0.5186296105384827,0.8192757368087769,-0.003815834643319249,0.9889770150184631,0.47082358598709106,0.8171167969703674,0.08170317113399506,0.9864540696144104,0.5212154388427734,0.9284608364105225,0.15621162950992584,0.9839301109313965,0.48966366052627563,0.915981113910675,0.22066529095172882,0.9760764241218567,0.5647084712982178,0.7024657130241394,-0.14261284470558167,0.9745569825172424,0.4452935755252838,0.6416890621185303,0.0003691462043207139,0.9039556980133057,179.1508863143007,0.4993037134408951,0.6700212955474854,137.19239439519097,140.96766703513867,0.6535358322507345,-0.011729283731186653,0.032843239814556516,-0.11579817905448131,-0.6026561606711662,-172.19354775213728,0.2852415628732957,25,1762115242.4338882
0.47557562589645386,0.3851877748966217,-0.18118731677532196,0.999941349029541,0.5358538627624512,0.46862852573394775,-0.17765288054943085,0.9999597668647766,0.46743565797805786,0.4584524929523468,-0.03271419182419777,0.9998990893363953,0.5198979377746582,0.6721464991569519,-0.0386989451944828,0.9995837807655334,0.4782436788082123,0.6694403290748596,0.03857559710741043,0.999545156955719,0.518445611000061,0.821882963180542,-0.0026609357446432114,0.9886095523834229,0.4706583023071289,0.8176032304763794,0.08136498928070068,0.985869288444519,0.5211474299430847,0.9305445551872253,0.15503820776939392,0.9827908277511597,0.4898912310600281,0.9181494116783142,0.2207299917936325,0.9749164581298828,0.5642452836036682,0.7028459906578064,-0.13995890319347382,0.9754120707511902,0.44543537497520447,0.64126056432724,0.001405633520334959,0.8973356485366821,179.288458661946,0.49907080829143524,0.6707934141159058,138.07813631390718,140.87792319669913,0.6540665012933106,-0.003251383762302421,0.010778867628116586,0.1183524982645674,-0.3080212765530048,-171.5402537767609,0.23467034534911188,26,1762115242.5055208
0.473257839679718,0.3877389132976532,-0.16759994626045227,0.9999058246612549,0.5338119864463806,0.47284480929374695,-0.1818481832742691,0.9999532103538513,0.4683670997619629,0.4574737548828125,-0.030096853151917458,0.9998831748962402,0.5164076089859009,0.6765790581703186,-0.03843666985630989,0.9995120763778687,0.4767446517944336,0.6717269420623779,0.03833992779254913,0.9994919300079346,0.5161967277526855,0.8253713250160217,-0.0012581129558384418,0.9882379770278931,0.4721607267856598,0.81988126039505,0.09257423132658005,0.9852630496025085,0.5211142301559448,0.9308081865310669,0.16035528481006622,0.9816970229148865,0.4895760416984558,0.9211172461509705,0.2291138917207718,0.9738802909851074,0.5595184564590454,0.7117325067520142,-0.14573155343532562,0.9753742218017578,0.4456038475036621,0.6359878778457642,0.037164099514484406,0.8912788033485413,178.76283693511542,0.49657613039016724,0.6741530001163483,137.12453653610447,145.86711537332226,0.6496158646869833,-0.03126167072496676,0.04210013295289882,-0.35100658385339595,0.3924975976958678,-166.78249613761673,0.40415935802260333,27,1762115242.5853207
0.4711584150791168,0.39010998606681824,-0.1723758429288864,0.999888002872467,0.5286648869514465,0.4759693443775177,-0.19316014647483826,0.9999523162841797,0.46954211592674255,0.45735761523246765,-0.012013405561447144,0.9998733401298523,0.5111280679702759,0.686616063117981,-0.04702350124716759,0.9994722008705139,0.4750041961669922,0.6782545447349548,0.046963825821876526,0.9994508028030396,0.5129364728927612,0.8350418210029602,-0.002870395081117749,0.9884857535362244,0.4730268120765686,0.8212398886680603,0.1131654605269432,0.98349529504776,0.5207871198654175,0.9343639612197876,0.16750749945640564,0.9796894788742065,0.4887518286705017,0.9228666424751282,0.2690298557281494,0.9716975688934326,0.5520771741867065,0.7232627272605896,-0.1752900332212448,0.9764876365661621,0.4464164674282074,0.6301832795143127,0.06306476891040802,0.8828663229942322,178.39726268411667,0.49306613206863403,0.6824353039264679,136.79104752230222,147.50246420465155,0.666123727123582,-0.04576768593705311,0.10799488914035589,-0.18914731222289638,0.859217079274519,-162.52610311117024,0.5121261785256571,28,1762115242.6620123
0.4680763781070709,0.39056506752967834,-0.17806334793567657,0.9998849034309387,0.5237706899642944,0.4776485860347748,-0.20391276478767395,0.9999546408653259,0.4716131091117859,0.45739054679870605,-0.015304644592106342,0.9998631477355957,0.5065488815307617,0.6911117434501648,-0.0491073913872242,0.9994781017303467,0.4744935631752014,0.6806765198707581,0.04902428761124611,0.9994396567344666,0.5064822435379028,0.8396580815315247,-0.0066334838047623634,0.9878568649291992,0.4745674133300781,0.8211626410484314,0.12448208034038544,0.9792674779891968,0.520790696144104,0.9337552189826965,0.1738843321800232,0.974270224571228,0.4886769652366638,0.9223706722259521,0.2722819149494171,0.9654768705368042,0.5435229539871216,0.7291688919067383,-0.1886710375547409,0.9780460596084595,0.44648870825767517,0.6270952224731445,0.10070957243442535,0.8743042349815369,178.11927744936534,0.49052122235298157,0.6858941316604614,133.3504631535108,152.3037232037186,0.6716890868265343,-0.035730006293013414,0.048561226334252736,0.14092694709086803,-0.8344363389466891,-158.7737967669253,0.5046218188904459,29,1762115242.7332385
0.4638066291809082,0.389975905418396,-0.16587570309638977,0.9998814463615417,0.5198853611946106,0.47824397683143616,-0.21347160637378693,0.9999557733535767,0.47130364179611206,0.4598481357097626,-0.017216408625245094,0.999844491481781,0.5018764734268188,0.6953875422477722,-0.053066499531269073,0.9995031356811523,0.4727475643157959,0.6843971014022827,0.0529828779399395,0.9994520545005798,0.5005925297737122,0.8429237604141235,-0.02037638984620571,0.984515905380249,0.4747430384159088,0.8213633298873901,0.1334802210330963,0.9692724347114563,0.5207568407058716,0.9327617287635803,0.14800181984901428,0.9690802693367004,0.4891367554664612,0.920257031917572,0.2780657112598419,0.9537479281425476,0.5326701998710632,0.7350156903266907,-0.18750591576099396,0.9781619906425476,0.4461063742637634,0.6280941367149353,0.1056368350982666,0.8580767512321472,177.85222087166,0.4873120188713074,0.6898923218250275,130.2339563546269,154.53163004543143,0.6581284590738103,-0.053369711748146385,0.06649072201736649,-0.29335191764516094,0.29817118853997354,-159.26044384695217,0.4793099489501085,30,1762115242.79337
0.46412530541419983,0.3896278738975525,-0.17247651517391205,0.9998811483383179,0.5192171931266785,0.4794473350048065,-0.22737404704093933,0.9999576807022095,0.47099608182907104,0.46235784888267517,-0.022636322304606438,0.9998325109481812,0.4997689127922058,0.698145866394043,-0.05627339333295822,0.9995286464691162,0.47161993384361267,0.6865778565406799,0.05618077516555786,0.9994664192199707,0.4979725480079651,0.8449708819389343,-0.016469117254018784,0.9800187945365906,0.4750320315361023,0.8225705623626709,0.1469886749982834,0.9604308009147644,0.5252546668052673,0.9331329464912415,0.1628512442111969,0.9638407230377197,0.49093103408813477,0.9202354550361633,0.2953711450099945,0.9435163140296936,0.5293574929237366,0.7402518391609192,-0.21413516998291016,0.9788287281990051,0.44595569372177124,0.6289662718772888,0.09103476256132126,0.8455495834350586,177.56634348699004,0.48569442331790924,0.6923618614673615,130.76126542406067,156.78729119489188,0.6720381922875455,-0.023014621827075397,0.0351358043955373,0.4318823166846147,-0.44610753903815364,-160.48575331187124,0.43592097402243574,31,1762115242.8636556
0.4600215554237366,0.3870469331741333,-0.16079546511173248,0.9998704791069031,0.5101035833358765,0.47912898659706116,-0.2338649481534958,0.9999600052833557,0.4728310704231262,0.46642547845840454,-0.013470150530338287,0.9997355341911316,0.4951673448085785,0.6986535787582397,-0.06206265091896057,0.9995565414428711,0.47169607877731323,0.6886023879051208,0.0619601234793663,0.9994662404060364,0.49303579330444336,0.8489987850189209,-0.005179972387850285,0.9757170081138611,0.4765002131462097,0.8222548365592957,0.16746504604816437,0.9373695254325867,0.5240674614906311,0.9306008219718933,0.16138184070587158,0.9602532386779785,0.49420085549354553,0.9181703925132751,0.3092634677886963,0.9218236207962036,0.5136555433273315,0.7537408471107483,-0.22375769913196564,0.9797691702842712,0.44575080275535583,0.6285164952278137,0.09635244309902191,0.7999907732009888,177.91622252066844,0.48343171179294586,0.6936279833316803,135.80710355730855,161.8844434352961,0.669368704761669,-0.03516002711884501,0.01967412928872308,-0.1887261255872617,-0.2402572798435528,-161.17946336953568,0.32977239232831285,32,1762115242.9280102
0.45962318778038025,0.3866269886493683,-0.1642356812953949,0.999822199344635,0.5055090188980103,0.4787977933883667,-0.2392396181821823,0.9999586939811707,0.4775356352329254,0.466733455657959,-0.02170218713581562,0.9995986819267273,0.4960850775241852,0.7010183334350586,-0.06310386955738068,0.9995424151420593,0.4744895398616791,0.6897547841072083,0.06301512569189072,0.9993449449539185,0.47955766320228577,0.8540446162223816,0.00830894522368908,0.9682906270027161,0.4748486578464508,0.8220142722129822,0.16138431429862976,0.8938195705413818,0.5209017992019653,0.9305393695831299,0.13782265782356262,0.9555236101150513,0.4939088225364685,0.9176607728004456,0.29024094343185425,0.8750273585319519,0.4931233525276184,0.7625681757926941,-0.2412782907485962,0.9783331155776978,0.44647955894470215,0.6252591609954834,0.08996160328388214,0.749327540397644,178.39571747645368,0.48528730869293213,0.6953865587711334,139.98101967108602,161.98686429260462,0.6589740007200379,0.024168661847180042,0.02290498282747356,0.7727405782295675,0.04208101805753354,-156.6704696421803,0.20643602741258854,33,1762115243.0047872
0.4580584466457367,0.38416001200675964,-0.12464018911123276,0.9997766613960266,0.4985802173614502,0.4796697795391083,-0.2339356243610382,0.9999558329582214,0.4828093647956848,0.4674222767353058,-0.004033190198242664,0.9993204474449158,0.4954201579093933,0.703251302242279,-0.06304370611906052,0.999511182308197,0.48245805501937866,0.6932668685913086,0.0629458874464035,0.9990761280059814,0.4680260121822357,0.8552601337432861,-0.0038764209020882845,0.9603675007820129,0.4743902087211609,0.8218294978141785,0.1416405737400055,0.8277363181114197,0.5145256519317627,0.9373584985733032,0.08641897886991501,0.9491392970085144,0.4946933388710022,0.9158886671066284,0.2395218163728714,0.8068684935569763,0.4850502014160156,0.7522715926170349,-0.2207479178905487,0.9777634739875793,0.46993279457092285,0.6699956059455872,0.08769282698631287,0.6802094578742981,179.55235680115953,0.488939106464386,0.6982590854167938,140.00105379188014,161.34145449527588,0.615754476574916,0.06433041433041434,0.050602700602700605,0.7074932236604697,0.4879256114387362,-142.1674068587048,0.0525616544095939,34,1762115243.0615535
0.45743274688720703,0.3835201561450958,-0.10882450640201569,0.9996676445007324,0.49147480726242065,0.47972947359085083,-0.20658032596111298,0.9999524354934692,0.4835442006587982,0.46980977058410645,0.0056096878834068775,0.9990106225013733,0.4915006160736084,0.7030314803123474,-0.06275015324354172,0.9994564652442932,0.4837052822113037,0.6958563923835754,0.06265638023614883,0.9987353086471558,0.46197763085365295,0.8527504205703735,-0.01690668798983097,0.945530891418457,0.4687871038913727,0.8220743536949158,0.11538776010274887,0.7556989192962646,0.5036137104034424,0.9558635354042053,0.0649605393409729,0.927569568157196,0.49370846152305603,0.9305849671363831,0.20483532547950745,0.7332857251167297,0.47068366408348083,0.7506550550460815,-0.17987580597400665,0.9766464829444885,0.4741637110710144,0.6986813545227051,0.08046401292085648,0.6178281307220459,-179.97616988731204,0.48760294914245605,0.6994439363479614,144.7169790833866,156.63330608893173,0.6118570725451166,-0.016838125054457066,0.014931376584512861,-1.022878065493069,-0.4495265675816884,-128.64164530206034,0.002807871755040311,35,1762115243.1409066
0.4564375877380371,0.3835391104221344,-0.11472352594137192,0.9995476603507996,0.49154409766197205,0.48103058338165283,-0.20444528758525848,0.9999467134475708,0.4833555221557617,0.47079068422317505,0.002084201667457819,0.998619556427002,0.4905675947666168,0.7050600647926331,-0.06284360587596893,0.9993894696235657,0.48398104310035706,0.69887375831604,0.06275846809148788,0.9982988834381104,0.4640371799468994,0.855366587638855,-0.014744879677891731,0.9246608018875122,0.46804842352867126,0.8253307938575745,0.11638237535953522,0.6866829991340637,0.5014106631278992,0.9617367386817932,0.07435624301433563,0.8962793350219727,0.49310392141342163,0.9379259943962097,0.2138989418745041,0.6640653610229492,0.46923813223838806,0.7451960444450378,-0.1723327338695526,0.9753775596618652,0.4746371805667877,0.7018710970878601,0.06763955950737,0.5615034103393555,179.95552041150114,0.48727431893348694,0.7019669115543365,146.9763191967193,155.9121326713644,0.6239848308297544,-0.004470830738491878,0.03432367079246458,0.16825014277670758,0.2638213489464578,-128.6483980017449,0.005621919514451419,36,1762115243.214412
0.4567490518093109,0.38265228271484375,-0.09987466782331467,0.9987187385559082,0.4825664460659027,0.46812787652015686,-0.19146636128425598,0.999922513961792,0.4880131185054779,0.4706366956233978,0.021066613495349884,0.9982016086578369,0.48797494173049927,0.6981809139251709,-0.06298106163740158,0.9992902874946594,0.48776975274086,0.696727991104126,0.0629153698682785,0.9979571104049683,0.459655225276947,0.8499059677124023,-0.054984379559755325,0.9015785455703735,0.4685649275779724,0.8243299126625061,0.10073844343423843,0.6259777545928955,0.48695236444473267,0.9614687561988831,0.06126360222697258,0.8544496297836304,0.49007707834243774,0.9418963193893433,0.19412599503993988,0.6038116812705994,0.46063441038131714,0.7404259443283081,-0.16507789492607117,0.9676830172538757,0.47570815682411194,0.6923773288726807,0.0644122064113617,0.5097759366035461,-179.35124153694537,0.4878723472356796,0.6974544525146484,132.56079862179988,152.67498404798746,0.6136712075885058,0.008269198436037082,-0.06239574129996176,0.17616194574539948,-1.3373815390954868,24.731507060436073,0.10581834463190232,37,1762115243.286732
0.4578780233860016,0.38145148754119873,-0.12243691831827164,0.9983742237091064,0.4746457040309906,0.46638816595077515,-0.18270811438560486,0.999839723110199,0.4908979833126068,0.46316760778427124,0.016019580885767937,0.9979491233825684,0.4832998812198639,0.6979467868804932,-0.06137802079319954,0.9989767670631409,0.49574437737464905,0.6925252676010132,0.061304979026317596,0.9971351623535156,0.46110090613365173,0.8497819900512695,-0.02770897187292576,0.9040969610214233,0.476703405380249,0.8241539597511292,0.1094866544008255,0.5748671293258667,0.47450870275497437,0.9783371090888977,0.06291571259498596,0.8283987045288086,0.4899815618991852,0.9461169838905334,0.2047489583492279,0.5545246601104736,0.44508305191993713,0.7324299216270447,-0.12872228026390076,0.9560574889183044,0.4780096113681793,0.6841707825660706,0.06017465144395828,0.46121683716773987,-178.32224487344803,0.48952212929725647,0.6952360272407532,153.9071865871101,158.12488899062336,0.6352699711999505,0.020802706578401487,-0.02797293722229237,0.15803959708133142,0.43404975087990116,-11.208549304996847,0.5058676167468951,38,1762115243.366038
0.45821136236190796,0.3797931671142578,-0.11269693076610565,0.9985202550888062,0.46909475326538086,0.4661814272403717,-0.15892961621284485,0.9998422861099243,0.49296537041664124,0.4587863087654114,0.028674772009253502,0.9980610609054565,0.47986698150634766,0.6959973573684692,-0.06089038401842117,0.9990313649177551,0.5029995441436768,0.6894780397415161,0.060793351382017136,0.9971700310707092,0.4562752842903137,0.8491522073745728,-0.03498072922229767,0.9134007692337036,0.4822542071342468,0.823377251625061,0.1557500660419464,0.559446394443512,0.4544859826564789,0.9936556220054626,-0.006776971276849508,0.8397140502929688,0.4898279309272766,0.9445317387580872,0.2549493908882141,0.5446966886520386,0.43337282538414,0.7242100238800049,-0.10139826685190201,0.9571216106414795,0.47962990403175354,0.6797891855239868,0.05964791774749756,0.4189915060997009,-177.4130531807141,0.4914332628250122,0.6927376985549927,171.91392216264435,169.25923425021747,0.6352447010407906,0.028495519066629223,-0.037250758079366376,0.11470191996041118,-0.13833482448501772,-17.212983926097056,3.5957283094078765,39,1762115243.433106
0.45846623182296753,0.3803258538246155,-0.06794767081737518,0.9986390471458435,0.45732131600379944,0.4727139472961426,-0.12448477745056152,0.9997996091842651,0.49642235040664673,0.45923420786857605,0.01863117329776287,0.9981257319450378,0.47350192070007324,0.6984742283821106,-0.05132682994008064,0.9991045594215393,0.5055471062660217,0.6904994249343872,0.05108014866709709,0.9973058700561523,0.4559566080570221,0.8488795757293701,-0.006326706614345312,0.9215615391731262,0.4890654981136322,0.818813145160675,0.15839806199073792,0.5515879988670349,0.45157209038734436,0.9946439266204834,0.03842756524682045,0.8538769483566284,0.4920163154602051,0.9377730488777161,0.2584865689277649,0.5465270280838013,0.4226919114589691,0.7053419351577759,-0.04901229590177536,0.9402291178703308,0.476916640996933,0.6778371334075928,0.08274330198764801,0.37938234210014343,-176.8307864839752,0.4895245134830475,0.6944868266582489,175.22393137426826,173.26480812871486,0.6247136192973091,-0.026310449085561235,0.024110209178894785,-0.7554525903169892,0.8458075502085014,-19.021184841273644,17.625795682014754,40,1762115243.5056531
0.458753764629364,0.38192018866539,-0.041233886033296585,0.998742938041687,0.45481252670288086,0.47648268938064575,-0.11588887870311737,0.9997552633285522,0.49895429611206055,0.45954465866088867,0.01419476605951786,0.9981901049613953,0.47239962220191956,0.7005777359008789,-0.046266067773103714,0.9991797208786011,0.506415069103241,0.6927614808082581,0.04597819596529007,0.9974865913391113,0.45519042015075684,0.8500414490699768,0.005439494736492634,0.9288526177406311,0.49142494797706604,0.8183228969573975,0.16194084286689758,0.5503342747688293,0.44903188943862915,0.9981366395950317,0.04783167690038681,0.8672863245010376,0.4941597580909729,0.9369823932647705,0.26548072695732117,0.5582496523857117,0.42218294739723206,0.7003486752510071,-0.0371478796005249,0.915091872215271,0.47996488213539124,0.6774942874908447,0.10217379033565521,0.34377825260162354,-176.86493024912036,0.48940734565258026,0.6966696083545685,174.97542018473126,173.76014110266854,0.6183031842235444,-0.0018334004857357106,0.03415539065910083,0.38300813980549153,0.15718342254587492,-20.992751433437437,7.311707937660743,41,1762115243.5695605
0.458852618932724,0.3820456564426422,-0.03302604705095291,0.9988386631011963,0.45236364006996155,0.4757620394229889,-0.12285637855529785,0.999748945236206,0.49854859709739685,0.4596312344074249,0.011151144281029701,0.9982988238334656,0.4684615731239319,0.6991254091262817,-0.04620693251490593,0.9992482662200928,0.5053832530975342,0.689902663230896,0.04593031108379364,0.9976636171340942,0.4546547830104828,0.849793016910553,0.004473813343793154,0.9356936812400818,0.49364981055259705,0.8149482011795044,0.16694584488868713,0.5637607574462891,0.45027580857276917,0.9990946650505066,0.03934276103973389,0.8798853158950806,0.4947677254676819,0.9360145330429077,0.27508988976478577,0.583497941493988,0.4138399660587311,0.7010807394981384,-0.06648986041545868,0.9050392508506775,0.47952356934547424,0.6765891313552856,0.08855148404836655,0.31359708309173584,-177.10599147178775,0.48692241311073303,0.6945140361785889,173.60508999036674,175.14807524280474,0.6157919516812437,-0.034932489953513,-0.030302433612746888,-0.46529778608961625,-0.9061301507717378,-19.252538702212014,7.027940770026999,42,1762115243.6406958
0.4590246081352234,0.3820857107639313,0.0018384776776656508,0.9988480806350708,0.4442543387413025,0.4754268527030945,-0.1330273449420929,0.9997228980064392,0.5006893873214722,0.46356332302093506,0.002210977952927351,0.9983021020889282,0.46332892775535583,0.698918879032135,-0.0463174507021904,0.999305784702301,0.5050481557846069,0.6901764273643494,0.04603935033082962,0.9978099465370178,0.453498512506485,0.8511641621589661,0.03328920155763626,0.9412149786949158,0.49500441551208496,0.8138397336006165,0.1871810406446457,0.5677393078804016,0.4507374167442322,1.0032631158828735,0.09576215595006943,0.8906477689743042,0.49598202109336853,0.9345159530639648,0.3219064772129059,0.5950096249580383,0.40466588735580444,0.7028819918632507,-0.08225537091493607,0.8927534818649292,0.48197704553604126,0.6758533716201782,0.09741487354040146,0.28535300493240356,-177.0197597949406,0.4841885417699814,0.6945476531982422,174.22428045571564,176.54073967317078,0.6224078246975613,-0.04297939429149722,0.0005284956614629209,-0.12650598044350364,0.48469532779300695,-11.871611847400688,13.124327272675064,43,1762115243.7043047
0.45993703603744507,0.3819015622138977,0.0552942268550396,0.9986318349838257,0.43038615584373474,0.47635751962661743,-0.11299329996109009,0.9996784329414368,0.5032356977462769,0.470434308052063,-0.01594425179064274,0.9979183673858643,0.4563921093940735,0.7019413709640503,-0.03649686276912689,0.999354898929596,0.503545880317688,0.6945947408676147,0.03628810495138168,0.9979040026664734,0.45186296105384827,0.8587738275527954,0.0473330095410347,0.9457833766937256,0.4959506392478943,0.814076840877533,0.17449840903282166,0.5754080414772034,0.4517389237880707,1.007910966873169,0.11886359751224518,0.9000001549720764,0.4966681897640228,0.9342634677886963,0.3061020076274872,0.6055625081062317,0.39944061636924744,0.7046430706977844,-0.07241156697273254,0.8820750117301941,0.48518601059913635,0.6462609767913818,0.11988656222820282,0.2587229609489441,-176.65123874067513,0.47996899485588074,0.6982680559158325,177.08719415520508,176.92526161779105,0.6099602594800175,-0.04901505647041881,0.04321690290632945,-0.07011139550258269,0.49587662712012676,-4.64834931648852,44.1906810742516,44,1762115243.7903914
0.46077418327331543,0.3814840614795685,0.05457838252186775,0.997644305229187,0.4241645932197571,0.4767524003982544,-0.11339668184518814,0.9996054172515869,0.5035268068313599,0.4747059643268585,-0.05003427341580391,0.9974271059036255,0.44988512992858887,0.7069118618965149,-0.023933785036206245,0.9993922114372253,0.5025235414505005,0.6983641982078552,0.02372705563902855,0.9979380965232849,0.450936883687973,0.8670085668563843,0.07478006929159164,0.949018120765686,0.4941368103027344,0.814129650592804,0.16641753911972046,0.5784114003181458,0.45200639963150024,1.0116946697235107,0.16648244857788086,0.9072504043579102,0.4978402256965637,0.9340599775314331,0.29687610268592834,0.6040436029434204,0.3920002281665802,0.70601487159729,-0.0764986127614975,0.8736922740936279,0.4874550402164459,0.6512618660926819,0.10200496762990952,0.23609937727451324,-176.88245419146202,0.4762043356895447,0.7026380300521851,179.15860351288893,174.780393991758,0.6175037770870935,-0.06056678787599825,0.07030524805719852,-0.1858471736030144,0.43580414113856514,-1.477103110291033,5.176466336719315,45,1762115243.8525486
0.4607943892478943,0.38122037053108215,0.09122893214225769,0.9968677163124084,0.42275920510292053,0.47762376070022583,-0.08835344016551971,0.999529242515564,0.503623366355896,0.47491592168807983,-0.029940053820610046,0.9969576597213745,0.4477211534976959,0.7070476412773132,-0.025142589583992958,0.9994229078292847,0.5019024610519409,0.6981624364852905,0.025005782023072243,0.9979473352432251,0.4496052861213684,0.8683120012283325,0.04527323693037033,0.9522790312767029,0.4941536784172058,0.814294695854187,0.15540288388729095,0.5824971795082092,0.45238247513771057,1.0124295949935913,0.12994101643562317,0.9135318398475647,0.49814099073410034,0.9335871934890747,0.28666314482688904,0.6010333299636841,0.3914458453655243,0.7064635157585144,-0.06501483917236328,0.8611592054367065,0.48928362131118774,0.651416540145874,0.10697048902511597,0.2153961956501007,-177.06089575928536,0.4748118072748184,0.7026050388813019,173.1306638499566,176.10086537410723,0.6034306017574834,-0.017385585652626878,-0.0004118916505432356,0.5391132287849246,-0.8828968059078438,-1.9179052000507828,3.434720832265494,46,1762115243.9326453
0.4611797332763672,0.37964558601379395,0.085026815533638,0.9950770139694214,0.42113247513771057,0.477158784866333,-0.09175701439380646,0.9993727207183838,0.5040023326873779,0.4746116101741791,-0.035884495824575424,0.99628084897995,0.4455408453941345,0.7067093253135681,-0.021014180034399033,0.9994320869445801,0.5015318989753723,0.6975831985473633,0.020897239446640015,0.997854471206665,0.4493333399295807,0.8673163652420044,0.06426955759525299,0.9538698196411133,0.4940760135650635,0.8147372007369995,0.14622850716114044,0.5839710235595703,0.45063266158103943,1.012549638748169,0.1576656550168991,0.9163174033164978,0.5002651214599609,0.9448160529136658,0.2730249762535095,0.5947266817092896,0.3848801851272583,0.705771803855896,-0.07315748184919357,0.8503775000572205,0.4905363917350769,0.6519131660461426,0.10106934607028961,0.19809596240520477,-177.2245161730919,0.4735363721847534,0.7021462619304657,175.14289948777468,174.80263443901399,0.6132146108785455,-0.01961997403349972,-0.0070573500232891636,-0.03437151945634833,-0.10222685711691797,-1.7605487620031384,2.9287955261644876,47,1762115243.9976523
0.46133536100387573,0.37901797890663147,0.08011439442634583,0.9947930574417114,0.4203564524650574,0.47711455821990967,-0.08951553702354431,0.9993005394935608,0.5041908025741577,0.47558024525642395,-0.043099526315927505,0.9961951375007629,0.4424692690372467,0.7073116302490234,-0.020925654098391533,0.9994559288024902,0.49930572509765625,0.698534369468689,0.020779982209205627,0.9978498816490173,0.44857874512672424,0.8683820962905884,0.07868046313524246,0.9554780721664429,0.494047075510025,0.8208674192428589,0.15869683027267456,0.5933262705802917,0.45065146684646606,1.013216257095337,0.19765639305114746,0.917783796787262,0.5004921555519104,0.9596617817878723,0.2976759374141693,0.5989764928817749,0.3780299127101898,0.7029736042022705,-0.0702858418226242,0.841686487197876,0.5182029008865356,0.6776403784751892,0.048509154468774796,0.20969294011592865,-177.82279820345124,0.4708874970674515,0.7029229998588562,172.22541650553165,175.10066229616476,0.630267080608756,-0.04177610304347499,0.012250137245907063,-0.3494301118687828,0.30450343710053474,-1.0484943691430744,2.022082153751608,48,1762115244.0610588
0.4626539647579193,0.3757787048816681,0.05368723347783089,0.9949582815170288,0.4181368350982666,0.4770556092262268,-0.09750521183013916,0.9992722868919373,0.5052865743637085,0.4753464162349701,-0.07323203980922699,0.9964690804481506,0.44016990065574646,0.7070138454437256,-0.018366295844316483,0.9994348883628845,0.49679213762283325,0.6986293196678162,0.01816572993993759,0.9978521466255188,0.44696348905563354,0.8688966631889343,0.0813678503036499,0.9507551789283752,0.4955109655857086,0.8381418585777283,0.15005704760551453,0.6016216278076172,0.4507303237915039,1.0112628936767578,0.20204563438892365,0.9059288501739502,0.5000554323196411,0.983161985874176,0.2693840265274048,0.592451810836792,0.3736705183982849,0.7002931237220764,-0.07094425708055496,0.8435317873954773,0.5348912477493286,0.6841145157814026,0.03308609873056412,0.2608102560043335,-178.28904387314157,0.46848101913928986,0.7028215825557709,171.29746130378118,175.65792744793754,0.6476698332009111,-0.030386732015124877,-0.0012806019845379446,0.14381422792590795,-0.17085340453388773,-1.123548879767484,1.628550205448723,49,1762115244.1402538
0.4637385308742523,0.3736368417739868,0.05851621553301811,0.9947890639305115,0.41978946328163147,0.4733991324901581,-0.10590752214193344,0.9992346167564392,0.5060240030288696,0.47390255331993103,-0.07222740352153778,0.996691882610321,0.43796196579933167,0.7067416906356812,-0.01701621152460575,0.9993959069252014,0.4948415160179138,0.6986715793609619,0.016795476898550987,0.9977979063987732,0.4466773569583893,0.8677544593811035,0.08292298018932343,0.9420987963676453,0.4961144030094147,0.8413652181625366,0.14868992567062378,0.6026090383529663,0.4493418335914612,1.0097070932388306,0.20595304667949677,0.885291337966919,0.4999808371067047,0.9875305891036987,0.2687120735645294,0.5767843127250671,0.37521445751190186,0.6934496760368347,-0.05573555827140808,0.8409324288368225,0.5404710173606873,0.6828493475914001,0.03270519897341728,0.2994443476200104,-179.12583020260504,0.46640174090862274,0.7027066349983215,170.72610549324904,176.52449467258762,0.650151591800239,-0.032806287311397585,-0.0018136113483074214,-0.03817508645289333,-0.008409677006947008,0.33447805588596957,1.0699695427121076,50,1762115244.2036343
0.4643000066280365,0.3734908699989319,0.09250566363334656,0.9948147535324097,0.41941362619400024,0.4711831510066986,-0.09152672439813614,0.9992167949676514,0.5057638883590698,0.47256940603256226,-0.05584152415394783,0.9968935251235962,0.4365069270133972,0.7064719200134277,-0.018871501088142395,0.9993788003921509,0.4938580393791199,0.6987022161483765,0.01864304207265377,0.9978043437004089,0.44666171073913574,0.8671483397483826,0.07636939734220505,0.9372702240943909,0.49612775444984436,0.8417761325836182,0.14838948845863342,0.6102060675621033,0.44933652877807617,1.0089796781539917,0.19643086194992065,0.8697068095207214,0.49969154596328735,0.989258885383606,0.268211305141449,0.566674530506134,0.3749905228614807,0.6939399242401123,-0.034899596124887466,0.8380499482154846,0.5402892827987671,0.6830626726150513,0.05479257553815842,0.3301304578781128,-179.35588930081636,0.46518248319625854,0.7025870680809021,170.13681575380147,176.83498021547805,0.6411424082705506,-0.015508482157749331,-0.001520844516013598,0.22002132926713636,0.0037238798237376456,0.9197394186557256,0.8312412106387623,51,1762115244.282253
0.46437811851501465,0.37324774265289307,0.07770336419343948,0.9946086406707764,0.4210146963596344,0.4698841869831085,-0.09594044089317322,0.9991729855537415,0.5057179927825928,0.47139638662338257,-0.05552119016647339,0.9970663189888,0.43710437417030334,0.7063843607902527,-0.016465118154883385,0.9993482828140259,0.49313369393348694,0.6993411183357239,0.016221683472394943,0.9977626800537109,0.44717541337013245,0.8665962219238281,0.08595581352710724,0.9335451126098633,0.49580439925193787,0.8501810431480408,0.1441236436367035,0.6169058680534363,0.44962072372436523,1.0111726522445679,0.2073851078748703,0.8610503673553467,0.494597852230072,0.9974678158760071,0.2625925838947296,0.5608632564544678,0.3794987201690674,0.6916742324829102,-0.04345155507326126,0.8299360275268555,0.5428048968315125,0.6822694540023804,0.05081503838300705,0.34820669889450073,-179.56757065432126,0.46511903405189514,0.7028627395629883,172.21151007497699,178.0823371541707,0.6504236950967212,-0.0008731622170527884,0.0037936827185243273,0.20140552776415768,0.0731364375241774,1.0227872762355577,2.8251793634778606,52,1762115244.354919
0.46446412801742554,0.3731907308101654,0.10487645864486694,0.9950046539306641,0.4232996106147766,0.46897459030151367,-0.0758233368396759,0.9991921186447144,0.5064321756362915,0.4712154269218445,-0.05530273914337158,0.9973046183586121,0.43741458654403687,0.7062331438064575,-0.008707987144589424,0.9993431568145752,0.4921290874481201,0.6997499465942383,0.008496705442667007,0.9978576898574829,0.44766467809677124,0.860968291759491,0.09661420434713364,0.9335569739341736,0.49593687057495117,0.8511916995048523,0.12466593086719513,0.6485369205474854,0.4503057599067688,1.0104684829711914,0.21534045040607452,0.8617355227470398,0.4873949885368347,1.0055540800094604,0.22774675488471985,0.5886508226394653,0.3829021453857422,0.6856151819229126,-0.030709421262145042,0.831762969493866,0.548818826675415,0.6815140843391418,0.05071985721588135,0.3801095187664032,179.9768608883537,0.4647718369960785,0.7029915452003479,175.16297814564578,174.65552085942156,0.6454669574895899,-0.005512569605063426,0.0020450923461874785,-0.07366150064982102,-0.02776298351833082,1.5440327085754184,0.03186830853855279,53,1762115244.4179018
0.46888700127601624,0.3733266592025757,0.1480734646320343,0.9952589273452759,0.42445117235183716,0.4678102135658264,-0.010225229896605015,0.9991385340690613,0.5075667500495911,0.47008803486824036,-0.034531183540821075,0.9975181818008423,0.43847233057022095,0.7046711444854736,0.01449016947299242,0.999178409576416,0.4908151626586914,0.6999433040618896,-0.0146173145622015,0.9978127479553223,0.4482145309448242,0.8601467609405518,0.09121908992528915,0.9295016527175903,0.4961731433868408,0.8587228655815125,0.05913452431559563,0.6789144277572632,0.45075374841690063,1.0071938037872314,0.2147335261106491,0.8558048605918884,0.479130357503891,1.011919617652893,0.12104906886816025,0.6177166104316711,0.38334858417510986,0.6705542802810669,0.04210624843835831,0.8121361136436462,0.5496094226837158,0.6813510656356812,0.0838187038898468,0.4028962552547455,179.66480640044614,0.4646437466144562,0.7023072242736816,166.02219121809765,171.8112404770351,0.6365508523050764,-0.0015848830623274254,-0.008467213791801383,0.04859790248785717,-0.1300704684698724,1.5698247182704368,0.188233173301167,54,1762115244.4987218
0.47453364729881287,0.3734586536884308,0.10607685893774033,0.995581865310669,0.4248570501804352,0.4679930508136749,-0.02560896798968315,0.9991011023521423,0.508294939994812,0.4695536196231842,-0.06629305332899094,0.9977386593818665,0.43970856070518494,0.7045621871948242,0.029197651892900467,0.9989950656890869,0.4904119074344635,0.7015460729598999,-0.029301811009645462,0.9978072047233582,0.4504167437553406,0.8594860434532166,0.11228682845830917,0.9187502264976501,0.4960542619228363,0.8665279746055603,0.04654788225889206,0.7061404585838318,0.4513019025325775,1.005086898803711,0.20208875834941864,0.84564208984375,0.4768075942993164,1.015845775604248,0.10756747424602509,0.6453918814659119,0.39403218030929565,0.6704337000846863,0.04016294330358505,0.7817404270172119,0.5516120791435242,0.6843976974487305,0.0358404740691185,0.43432915210723877,179.6293102156194,0.4650602340698242,0.7030541300773621,175.27358890858577,171.05857279274247,0.638956400135269,0.006588326475502269,0.011815144052167287,0.1292902633533747,0.3208423049643751,1.071498604196031,0.1650840294725253,55,1762115244.5619378
0.47694364190101624,0.37354448437690735,0.1017317995429039,0.9958543181419373,0.42600908875465393,0.46753260493278503,-0.023986905813217163,0.999081552028656,0.5088911056518555,0.46910232305526733,-0.06682271510362625,0.9979389309883118,0.4404017925262451,0.7037087082862854,0.029027462005615234,0.998859703540802,0.49030056595802307,0.7016457915306091,-0.0291238222271204,0.9978100657463074,0.4521135687828064,0.8577761054039001,0.10910986363887787,0.9080423712730408,0.4959079623222351,0.866936981678009,0.04689104110002518,0.7293642163276672,0.4516260623931885,1.0040005445480347,0.19545474648475647,0.8344201445579529,0.4758203625679016,1.0163369178771973,0.10979975759983063,0.6681463718414307,0.39735928177833557,0.6704903244972229,0.035911936312913895,0.7572652101516724,0.5534031987190247,0.6867105960845947,0.025821302086114883,0.46877729892730713,179.4868747421777,0.4653511792421341,0.7026772499084473,174.9025457403326,170.96510681460336,0.6387922655279356,0.0038609053719282816,-0.005001281365777726,-0.036193468022503915,-0.22315760291641523,1.085005839920333,0.20400516442275113,56,1762115244.6372945
0.48157596588134766,0.3734854459762573,0.09434051066637039,0.9961214065551758,0.432333767414093,0.4673478305339813,-0.019947128370404243,0.9990718364715576,0.5095174908638,0.4679708182811737,-0.07449895888566971,0.9981258511543274,0.4408265948295593,0.703467071056366,0.032488349825143814,0.9987274408340454,0.4902168810367584,0.702446460723877,-0.03256675601005554,0.9978122115135193,0.4542516767978668,0.8571886420249939,0.11672554165124893,0.8841552138328552,0.4955441951751709,0.8713188767433167,0.05395227670669556,0.7473778128623962,0.4516664147377014,1.0018945932388306,0.20770426094532013,0.8123784065246582,0.4750061631202698,1.0174416303634644,0.1280873715877533,0.6875661611557007,0.404282808303833,0.6677951216697693,0.05763215571641922,0.7212039232254028,0.557516872882843,0.6989390254020691,-0.00921646412461996,0.5109298229217529,178.6843641892558,0.4655217379331589,0.7029567658901215,173.71295956110936,171.23257133073756,0.6406804609891925,0.002545673555954109,0.004171915478122242,-0.019630491027798187,0.13691453943959425,0.4624523394656118,0.46735761966088296,57,1762115244.704294
0.4851863384246826,0.3735184967517853,0.08906073123216629,0.9963552951812744,0.436745822429657,0.46739882230758667,-0.00687022740021348,0.9990689158439636,0.5093566179275513,0.46570324897766113,-0.08224699646234512,0.9983030557632446,0.4422840476036072,0.7034640908241272,0.03946545347571373,0.9985970854759216,0.4903797209262848,0.7051034569740295,-0.03953171521425247,0.9978337287902832,0.45751243829727173,0.8564756512641907,0.12568823993206024,0.8571954965591431,0.49539297819137573,0.8748937845230103,0.04515465721487999,0.7657381296157837,0.45121318101882935,0.9943952560424805,0.222794771194458,0.7879392504692078,0.47321757674217224,1.0315818786621094,0.12201361358165741,0.7064996957778931,0.4054131507873535,0.6689850687980652,0.056003063917160034,0.6959682106971741,0.5597533583641052,0.716882586479187,-0.025302734225988388,0.5549607872962952,178.38100918549034,0.466331884264946,0.7042837738990784,170.86138204730224,171.22582328749883,0.6452873535826072,0.012753388205180172,0.020889865973074514,0.1606906585901744,0.26317531079451695,-1.3377011293674983,0.47191884258070194,58,1762115244.767818
0.4927343726158142,0.37503471970558167,0.04730827361345291,0.9963985681533813,0.4401489198207855,0.4668160676956177,0.005436295177787542,0.9989866018295288,0.5087913274765015,0.4631904661655426,-0.10301312059164047,0.99845951795578,0.4446794390678406,0.7041915655136108,0.043967001140117645,0.998443603515625,0.4905981421470642,0.7107649445533752,-0.0440279059112072,0.9978022575378418,0.4607626497745514,0.8560216426849365,0.12244825065135956,0.8307164907455444,0.4953364431858063,0.8755326867103577,0.03917296975851059,0.7805415987968445,0.4499948024749756,0.9882996678352356,0.21956679224967957,0.7651180028915405,0.4733847975730896,1.033354640007019,0.11911974847316742,0.7231207489967346,0.41663798689842224,0.669625997543335,0.06179983168840408,0.6504572033882141,0.5591039061546326,0.7254998087882996,-0.06545066833496094,0.596150279045105,178.386212755337,0.4676387906074524,0.707478255033493,167.21212435573,171.44454917270016,0.6481422107257114,0.013558659114238718,0.03314153381896434,0.008354381178989808,0.12710642109572973,-3.0234780241047043,0.4175440930829152,59,1762115244.864207
0.4998759329319,0.3763253390789032,0.013507423922419548,0.996392011642456,0.4431148171424866,0.46616330742836,0.020286379382014275,0.9988224506378174,0.5063861608505249,0.4594483971595764,-0.13086608052253723,0.9985986351966858,0.45011967420578003,0.7055005431175232,0.05244452878832817,0.9981967210769653,0.4918745458126068,0.7221542596817017,-0.05252314358949661,0.9977578520774841,0.46385079622268677,0.8499334454536438,0.1392195224761963,0.804296612739563,0.4953508973121643,0.8767266273498535,0.03568350523710251,0.7950851321220398,0.4463960528373718,0.9808404445648193,0.24879276752471924,0.7434496879577637,0.4744625985622406,1.0333713293075562,0.12894198298454285,0.7411330938339233,0.44978833198547363,0.6756404638290405,0.06920979917049408,0.5902419090270996,0.5568634271621704,0.7301800847053528,-0.0791989415884018,0.6323825716972351,179.14335342519792,0.4709971100091934,0.7138274013996124,166.21693019417083,172.25936817844095,0.6558896606202104,0.03454513293652253,0.06531007894523864,0.21587599073625888,0.33089963604580447,-6.0580542733527265,0.19576867194849187,60,1762115244.9614224
0.5022293925285339,0.3767779767513275,0.014544142410159111,0.9964406490325928,0.4445416331291199,0.4652833640575409,0.02560308203101158,0.9986954927444458,0.5052217245101929,0.4569087624549866,-0.12885387241840363,0.9987261891365051,0.45268169045448303,0.7068285346031189,0.05411487817764282,0.9980271458625793,0.49283814430236816,0.7242351770401001,-0.054218728095293045,0.9977419376373291,0.46453484892845154,0.8488339781761169,0.14248335361480713,0.7830666303634644,0.4954337477684021,0.8773079514503479,0.035767849534749985,0.8091180920600891,0.44405946135520935,0.9775121808052063,0.25262778997421265,0.7263414263725281,0.47443532943725586,1.0338902473449707,0.12936629354953766,0.75795978307724,0.44720783829689026,0.677246630191803,0.07889095693826675,0.5374758839607239,0.5552530884742737,0.7277675867080688,-0.07032497227191925,0.6655917167663574,179.52221675791247,0.4727599173784256,0.7155318558216095,166.03853504697756,172.57093689493837,0.6546201312310123,0.02320219289161693,0.022434147351772703,-0.14929656380695697,-0.56433598622445,-7.857884927157597,0.10231321103787289,61,1762115245.0373983
0.503912091255188,0.378754198551178,-0.00846931803971529,0.996625542640686,0.4477007985115051,0.4648975431919098,0.041327644139528275,0.9985529780387878,0.5035913586616516,0.45697304606437683,-0.14015981554985046,0.9988429546356201,0.4565366804599762,0.7074763178825378,0.06018269807100296,0.9978351593017578,0.49373459815979004,0.7255556583404541,-0.06030554324388504,0.9977481365203857,0.4675111770629883,0.8491106033325195,0.15502896904945374,0.7595159411430359,0.4965577721595764,0.8771301507949829,0.03310640901327133,0.8226510286331177,0.4430510997772217,0.9663739800453186,0.26990607380867004,0.7102646231651306,0.4745585024356842,1.0338865518569946,0.1322362869977951,0.7754702568054199,0.46173158288002014,0.6781548261642456,0.10671935975551605,0.4870322346687317,0.5542505383491516,0.7324272394180298,-0.09444844722747803,0.6958722472190857,179.88557047494766,0.4751356393098831,0.716515988111496,163.88003370144713,172.2858546772368,0.6573051842559466,0.037363325484079016,0.01547759212874777,0.2227141986902273,-0.1094067591009643,-8.069946986986128,0.02197264218745688,62,1762115245.1009827
0.5048479437828064,0.3801022469997406,-0.018080759793519974,0.9967491626739502,0.45275646448135376,0.4648878276348114,0.03871152549982071,0.9984226822853088,0.5014230012893677,0.4571778178215027,-0.14792634546756744,0.9989494681358337,0.46165260672569275,0.7074162364006042,0.06132543832063675,0.9975960850715637,0.49401623010635376,0.7252395749092102,-0.061402302235364914,0.9977863430976868,0.4706042408943176,0.8435805439949036,0.1593250185251236,0.7362020611763,0.49739065766334534,0.8765327334403992,0.0324847474694252,0.8348782062530518,0.4405117928981781,0.9482045769691467,0.2790946960449219,0.7003498673439026,0.4752342700958252,1.0307775735855103,0.13495823740959167,0.7923815846443176,0.4745372235774994,0.6811360120773315,0.07863013446331024,0.4405050277709961,0.553400456905365,0.7353160381317139,-0.12401361763477325,0.7215774059295654,-179.8328709802437,0.47783441841602325,0.7163279056549072,161.0182618496936,171.88319295902352,0.6513329792400097,0.032511696973004336,-0.0022657948628100884,-0.05844667895152203,-0.21375132919615897,-9.002282770861395,0.028504253477640597,63,1762115245.1839921
0.5105882883071899,0.3783613443374634,-0.04215831309556961,0.9969184994697571,0.45866140723228455,0.4639349579811096,0.03632303327322006,0.9982739090919495,0.5002949833869934,0.4575292468070984,-0.16089479625225067,0.9990474581718445,0.4645369052886963,0.7074678540229797,0.06347829848527908,0.9971010684967041,0.4941536784172058,0.7268108129501343,-0.06351125240325928,0.9978173971176147,0.475353866815567,0.8369184136390686,0.17429406940937042,0.7012108564376831,0.4981502890586853,0.8764045834541321,0.03523295372724533,0.8462172150611877,0.4413756728172302,0.932293713092804,0.3043265640735626,0.6810603141784668,0.47581377625465393,1.032982587814331,0.13553257286548615,0.8096579313278198,0.4776427149772644,0.6846588850021362,0.06833723932504654,0.3985000252723694,0.5528175830841064,0.7439882755279541,-0.15152712166309357,0.7472124695777893,179.97030190437093,0.47934529185295105,0.717139333486557,159.67652147884945,171.82339868238424,0.6607146485032652,0.025316047986960587,0.013596205626443165,-0.12056959277702459,0.26578213352646185,-8.746895766366933,0.004719858963143014,64,1762115245.2436726
0.5138727426528931,0.3770016133785248,-0.07673054933547974,0.9970319867134094,0.469242662191391,0.4639885425567627,0.02509642206132412,0.9980661869049072,0.4968717694282532,0.4604385495185852,-0.17468515038490295,0.9991307854652405,0.46940192580223083,0.7113891839981079,0.06210847944021225,0.9959966540336609,0.4937075972557068,0.733121931552887,-0.06210879236459732,0.9977366328239441,0.4788590967655182,0.8327330946922302,0.17046312987804413,0.6524624228477478,0.4980391561985016,0.8791453838348389,0.03638407588005066,0.8532072901725769,0.4537539482116699,0.910051703453064,0.2972490191459656,0.6377111077308655,0.47615042328834534,1.0268107652664185,0.1369406282901764,0.8210439682006836,0.5026597380638123,0.700754702091217,0.04180404171347618,0.36205416917800903,0.5494674444198608,0.7550215125083923,-0.1581396460533142,0.7695468664169312,179.66896375415402,0.4815547615289688,0.7222555577754974,158.79992567460673,171.59004955647023,0.6622050794970785,0.02723888877458343,0.06307407875515476,0.02370525692830102,0.6099754604394452,-7.32167222491208,0.06393982766358128,65,1762115245.3247871
0.5172868371009827,0.38049453496932983,-0.10307018458843231,0.997042715549469,0.47500672936439514,0.4639170467853546,0.01998755894601345,0.9977161288261414,0.4935149550437927,0.46732574701309204,-0.18801522254943848,0.9992036819458008,0.47106343507766724,0.713081955909729,0.0626470148563385,0.9937852025032043,0.49268656969070435,0.7335773706436157,-0.06264514476060867,0.9975266456604004,0.47917699813842773,0.8343407511711121,0.17399366199970245,0.604587197303772,0.49796971678733826,0.8816416263580322,0.03220129758119583,0.8552848100662231,0.4559037685394287,0.910959780216217,0.3027188181877136,0.5943427681922913,0.47635403275489807,1.0237399339675903,0.1384720802307129,0.8276053667068481,0.5005835294723511,0.7043555974960327,0.02521641179919243,0.3281731903553009,0.5461812019348145,0.7558320164680481,-0.16062889993190765,0.7882910370826721,179.46957600945333,0.4818750023841858,0.7233296632766724,159.6908122624248,170.38441470447347,0.6721426530636443,0.0050814988139780345,0.0170436274491259,-0.3515877158439939,-0.7303992601442979,10.435350231945094,0.10629499945116852,66,1762115245.387808
0.5184072256088257,0.38392627239227295,-0.0814405158162117,0.9968553185462952,0.4769785404205322,0.46438631415367126,0.03437153249979019,0.9970672726631165,0.4918777346611023,0.4680074155330658,-0.17647884786128998,0.9992668628692627,0.47516924142837524,0.7158215045928955,0.06568427383899689,0.9896763563156128,0.4915958046913147,0.7318578958511353,-0.06565859168767929,0.997045636177063,0.4854187071323395,0.8403080701828003,0.16675743460655212,0.5569300055503845,0.4973607659339905,0.8872395157814026,0.01145064365118742,0.8515206575393677,0.4616612493991852,0.9224116802215576,0.28684812784194946,0.5475019216537476,0.47304731607437134,1.0460435152053833,0.10692101716995239,0.8196252584457397,0.5040923953056335,0.7012771964073181,0.04125584661960602,0.2974340617656708,0.5385852456092834,0.7573934197425842,-0.15421271324157715,0.8011429309844971,179.76747279713615,0.48338252305984497,0.7238397002220154,159.0208618260249,169.53987179895068,0.6636512178455053,0.01619716325500734,0.005479959116443848,0.11942936143181329,-0.12424282255983743,13.660316549599004,0.043501195718374734,67,1762115245.4808812
0.5207940340042114,0.3855973482131958,-0.08481936156749725,0.9967283010482788,0.48634347319602966,0.4645331799983978,0.03589794039726257,0.9965199828147888,0.4888957142829895,0.47018885612487793,-0.17670482397079468,0.9993206858634949,0.4819786548614502,0.7183388471603394,0.06585734337568283,0.9870287775993347,0.4885476529598236,0.7307732701301575,-0.06582193076610565,0.9964261651039124,0.4932621121406555,0.853513240814209,0.14992046356201172,0.5140085816383362,0.4965628683567047,0.890390932559967,0.003973160870373249,0.8438574075698853,0.4710385799407959,0.9630946516990662,0.2438575029373169,0.50498366355896,0.4715750813484192,1.051534652709961,0.0926443561911583,0.7962121367454529,0.517540454864502,0.7050139307975769,0.04843181371688843,0.2696932554244995,0.5299389362335205,0.7662827968597412,-0.1463213860988617,0.8100548386573792,179.475066552994,0.4852631539106369,0.7245560586452484,164.50686989783705,168.39350053045348,0.6730720330188207,0.027888633736038778,0.010623168114497043,0.17337753336540868,0.07627072155824911,65.71173679493383,0.0998209771477432,68,1762115245.5483148
0.5232263803482056,0.3851896822452545,-0.10318636894226074,0.9969154000282288,0.4941536486148834,0.46418941020965576,0.02958693541586399,0.9962508082389832,0.48812413215637207,0.47035741806030273,-0.1860007345676422,0.9993777871131897,0.48848670721054077,0.7186492085456848,0.06541282683610916,0.9857715368270874,0.4869939386844635,0.7298136949539185,-0.06535647809505463,0.9962688088417053,0.4927311837673187,0.8594627380371094,0.1482381969690323,0.48158136010169983,0.49538618326187134,0.8900398015975952,0.008241802453994751,0.8482254147529602,0.47282934188842773,0.9681206345558167,0.2421317845582962,0.4738397002220154,0.47221121191978455,1.049534559249878,0.09925210475921631,0.7910389304161072,0.5166329145431519,0.7038734555244446,0.04903153330087662,0.2453402727842331,0.5204358100891113,0.7660270929336548,-0.15782912075519562,0.8222309947013855,179.24224118777371,0.48774032294750214,0.7242314517498016,166.03109033474664,168.87135779055367,0.6830114846661743,0.031155917525278572,-0.004082654640102674,0.041093370195702424,-0.18495847237921043,134.34948837849868,0.1577837077680048,69,1762115245.6278236
0.5248711705207825,0.3828527629375458,-0.12405191361904144,0.997179388999939,0.5030480027198792,0.4641193747520447,0.02825097367167473,0.9959497451782227,0.48647984862327576,0.47049519419670105,-0.19861681759357452,0.9994352459907532,0.49518829584121704,0.7177334427833557,0.0650104433298111,0.9845859408378601,0.48589450120925903,0.7235181331634521,-0.06491244584321976,0.9962043762207031,0.4950406551361084,0.8611842393875122,0.14325520396232605,0.46441325545310974,0.4953905940055847,0.8891171216964722,-0.009544853121042252,0.8545421361923218,0.4795725345611572,0.9867101311683655,0.22723126411437988,0.45142582058906555,0.47228679060935974,1.0513955354690552,0.061172954738140106,0.7871621251106262,0.5151494741439819,0.6515656113624573,0.10627162456512451,0.2251112014055252,0.5114505887031555,0.767297625541687,-0.1909278780221939,0.8340787887573242,179.0450339091037,0.49054139852523804,0.7206257879734039,172.22083759615217,168.29628290480227,0.6921748490316524,0.043729412093127126,-0.056290361602739473,0.1962929989388475,-0.815048458653771,158.95208893757626,0.21893168812665487,70,1762115245.6918783
0.5260553359985352,0.38211584091186523,-0.1272723227739334,0.9973589777946472,0.501812756061554,0.4637144207954407,0.014642877504229546,0.9955624938011169,0.4860267639160156,0.47159385681152344,-0.20354869961738586,0.9994825720787048,0.49462446570396423,0.7135236263275146,0.06555293500423431,0.9827219843864441,0.48552459478378296,0.7184365391731262,-0.06544924527406693,0.9960475564002991,0.4941069185733795,0.8596482872962952,0.14375291764736176,0.43890562653541565,0.49569573998451233,0.8889414668083191,-0.011333730071783066,0.8580561280250549,0.4797309935092926,0.9857003688812256,0.23476937413215637,0.4251072108745575,0.47265395522117615,1.0508311986923218,0.05813900753855705,0.780288577079773,0.514048159122467,0.6657184362411499,0.0543217658996582,0.2050408124923706,0.5101361274719238,0.7657651901245117,-0.18271435797214508,0.842619776725769,179.11286824846465,0.4900745302438736,0.7159800827503204,170.7766300705236,167.90702194720893,0.6943336798994472,-0.0070381688855023295,-0.07003529530162747,-0.7653353699500742,-0.2072086893761168,153.47433568857383,0.2055189504485794,71,1762115245.758212
0.5276118516921997,0.3819458484649658,-0.1589544415473938,0.9976121783256531,0.5092234015464783,0.4645985960960388,0.0012256877962499857,0.995747447013855,0.484833300113678,0.4765189588069916,-0.20459505915641785,0.9995328187942505,0.5045357942581177,0.7134955525398254,0.061386704444885254,0.9839320778846741,0.4849008619785309,0.7176977396011353,-0.06127365678548813,0.9963719844818115,0.5123084783554077,0.8562526106834412,0.16667290031909943,0.4645410180091858,0.49223271012306213,0.8819481134414673,-0.004479038529098034,0.8668411374092102,0.5031496286392212,0.9439235925674438,0.29894906282424927,0.427001416683197,0.4731075167655945,1.0161958932876587,0.07455990463495255,0.7808822989463806,0.5243334174156189,0.6180299520492554,0.17055562138557434,0.1968875676393509,0.5021250247955322,0.7677923440933228,-0.21163304150104523,0.8532138466835022,179.45987682623763,0.4947183281183243,0.7155966460704803,159.12360969244224,165.21390495349678,0.6919637426087881,0.06068097276482794,-0.005010405567913465,0.8848928186021237,0.849686758477658,153.95349534838914,0.16333304066169774,72,1762115245.8347402
0.5295462608337402,0.38015395402908325,-0.16481557488441467,0.9978424310684204,0.5196706652641296,0.4643208384513855,-0.01060014683753252,0.9958808422088623,0.48419642448425293,0.4782112240791321,-0.19294606149196625,0.9995770454406738,0.5135228037834167,0.7129220962524414,0.05510837584733963,0.985054075717926,0.4854060113430023,0.7178712487220764,-0.054993391036987305,0.996650218963623,0.5175074338912964,0.8485649824142456,0.16325756907463074,0.5028170943260193,0.4896647036075592,0.8796917200088501,0.02435116097331047,0.8782393932342529,0.5115055441856384,0.9360656142234802,0.2821928858757019,0.4570145308971405,0.47492870688438416,1.0045467615127563,0.09795771539211273,0.7935330867767334,0.5315297842025757,0.6222752332687378,0.061684977263212204,0.18853548169136047,0.49351659417152405,0.7663151025772095,-0.18491902947425842,0.8650087118148804,179.42053024270274,0.49946440756320953,0.7153966724872589,164.46898870941067,171.58484889119427,0.6895991579917405,0.06718541168846948,-0.0028308222969233056,0.0920767155211258,0.030854139942513164,158.61654736652847,0.23810519112092207,73,1762115245.9053817
0.5324286222457886,0.37852197885513306,-0.1563081592321396,0.998055100440979,0.5258088707923889,0.46277645230293274,-0.004425529390573502,0.9961463809013367,0.48420438170433044,0.4778684377670288,-0.1699836701154709,0.9996174573898315,0.5200518369674683,0.7125599384307861,0.051092635840177536,0.9862501621246338,0.4894116520881653,0.7181554436683655,-0.05099179595708847,0.9969111084938049,0.5221782326698303,0.845033586025238,0.13467511534690857,0.5399385094642639,0.4883905053138733,0.8793079853057861,0.023982787504792213,0.8882507085800171,0.5178416967391968,0.9364157915115356,0.23631997406482697,0.4848754107952118,0.4746790826320648,1.000542163848877,0.09824298322200775,0.8028600215911865,0.5353690385818481,0.6414466500282288,0.07484119385480881,0.20011302828788757,0.4830569326877594,0.7647714614868164,-0.17882558703422546,0.8770829439163208,179.93572534522315,0.5047317445278168,0.7153576910495758,163.9868560389903,171.650977507422,0.6738454238544974,0.06553144456342155,-0.0004849718063790848,-0.02057716369639579,0.029184951030873832,160.0618123277357,0.030457878208477333,74,1762115245.9857605
0.5317648649215698,0.3763791024684906,-0.19386503100395203,0.9982483386993408,0.5305414795875549,0.46248534321784973,-0.0035000075586140156,0.9962787628173828,0.48437637090682983,0.4773852527141571,-0.16805186867713928,0.9996538162231445,0.5242680311203003,0.7100135087966919,0.04979467764496803,0.9872599840164185,0.49386343359947205,0.7168543338775635,-0.04970548674464226,0.9971456527709961,0.5223017930984497,0.8452528119087219,0.12460587918758392,0.5747150182723999,0.48896878957748413,0.8793678879737854,0.0031660539098083973,0.8979609608650208,0.516435444355011,0.935877799987793,0.2342090606689453,0.5104484558105469,0.47384461760520935,1.004687786102295,0.05101283639669418,0.8135611414909363,0.5400567650794983,0.6495476365089417,0.0544588640332222,0.19663068652153015,0.47625771164894104,0.7625332474708557,-0.20302367210388184,0.8882656097412109,-179.62192012208212,0.5090657323598862,0.7134339213371277,158.47581337898112,174.39026183436056,0.6835781279026707,0.061102731092436975,-0.027122268907563026,-0.06243822059228404,-0.37554595556532505,162.11237943125911,0.15308377059178468,75,1762115246.05669
0.5312157869338989,0.375419944524765,-0.20299318432807922,0.9984210133552551,0.5320255160331726,0.46234050393104553,-0.0010743837337940931,0.99607914686203,0.48479461669921875,0.47679659724235535,-0.16319257020950317,0.9996864795684814,0.5227800607681274,0.7100433111190796,0.050435978919267654,0.9880411028862,0.49438175559043884,0.7168312072753906,-0.05036752298474312,0.9973413348197937,0.5201326608657837,0.8472325801849365,0.12927654385566711,0.5995352268218994,0.4892873167991638,0.8791696429252625,0.0024869299959391356,0.9057590365409851,0.5112267732620239,0.9377291202545166,0.2337987869977951,0.5282453298568726,0.4737927317619324,1.0048000812530518,0.058806128799915314,0.8204686641693115,0.5407001972198486,0.6538802981376648,0.030189761891961098,0.19021649658679962,0.475597083568573,0.7578811049461365,-0.21479058265686035,0.8986905217170715,-179.9598615447273,0.5085809081792831,0.7134372591972351,160.58944455961694,172.27815579565205,0.6917632955976166,-0.007650920857083733,5.267415392140264e-05,-1.084988684035903,0.4288427578025712,162.98207569149812,0.0140020083702898,76,1762115246.120058
0.5312443375587463,0.3734837472438812,-0.21070890128612518,0.9985768795013428,0.5373181700706482,0.4611581265926361,-0.0009863559389486909,0.9963452219963074,0.48499131202697754,0.4735245108604431,-0.15909866988658905,0.9997149109840393,0.5275379419326782,0.7030767798423767,0.05068998411297798,0.9891253709793091,0.4959184527397156,0.710634708404541,-0.050678811967372894,0.9975569248199463,0.5248374938964844,0.8425343632698059,0.12174265086650848,0.6256281137466431,0.4914082884788513,0.8753455281257629,0.003606366692110896,0.9134047031402588,0.5123021006584167,0.935577929019928,0.24975748360157013,0.5536059141159058,0.4738154411315918,0.9887279868125916,0.10653065145015717,0.8312390446662903,0.5538020730018616,0.656217098236084,0.022219296544790268,0.20608343183994293,0.4728320240974426,0.7506856322288513,-0.20825953781604767,0.907741367816925,-179.8628201112916,0.5117281973361969,0.7068557441234589,152.8090752158781,155.54219319256768,0.7065381861222858,0.03977943901858386,-0.08318554936461682,0.5994851487220078,-1.0520704235888796,166.70327784430708,0.0380651648472595,77,1762115246.1991765
0.5313524007797241,0.37266820669174194,-0.23480264842510223,0.9987174868583679,0.5433965921401978,0.45602014660835266,-0.01596708968281746,0.9966566562652588,0.48517146706581116,0.46928927302360535,-0.1544075310230255,0.9997402429580688,0.531784176826477,0.6918725371360779,0.05085287615656853,0.9900786280632019,0.49812188744544983,0.7002660632133484,-0.05085010454058647,0.9977403283119202,0.5271553993225098,0.8388160467147827,0.0838998332619667,0.6442509293556213,0.49492019414901733,0.8696243166923523,-0.025030184537172318,0.9191802740097046,0.511813223361969,0.9345055222511292,0.24650990962982178,0.5695090889930725,0.47534385323524475,0.9793392419815063,0.1043773666024208,0.8398277163505554,0.5621808767318726,0.6555490493774414,-0.025949155911803246,0.2420034557580948,0.46895426511764526,0.7370902299880981,-0.2123425453901291,0.915101170539856,-179.83578183093636,0.5149530321359634,0.6960693001747131,133.14147160340815,138.70060698946284,0.7148998683792417,0.050897416359045565,-0.1702419388219711,0.17547451479030166,-1.3740069107561605,167.1619188091462,0.03831572913808075,78,1762115246.262536
0.53164142370224,0.3709990084171295,-0.2259913682937622,0.9988445043563843,0.5492251515388489,0.45249539613723755,-0.027810949832201004,0.9969810843467712,0.4849940836429596,0.4652487337589264,-0.13094735145568848,0.9997627139091492,0.5354546308517456,0.6840143799781799,0.04358837753534317,0.9910078644752502,0.4979724884033203,0.692161500453949,-0.043573103845119476,0.9979224801063538,0.5288714170455933,0.8345248103141785,0.08114537596702576,0.6722360253334045,0.49510008096694946,0.8628103733062744,-0.01940591260790825,0.9255008697509766,0.5158643126487732,0.929486870765686,0.24866783618927002,0.5994203686714172,0.47628116607666016,0.9660716652870178,0.10832194983959198,0.8504007458686829,0.5730997323989868,0.6513128280639648,-0.03958466276526451,0.31129851937294006,0.4662685990333557,0.7201949954032898,-0.20523710548877716,0.9216216802597046,179.9009997578314,0.516713559627533,0.6880879402160645,133.6095564936134,136.76410311966472,0.7053720541441989,0.02774174794121183,-0.1257673494229382,-0.3648785490336984,0.7008143041247944,168.76975094417898,0.02488737736386152,79,1762115246.3259974
0.5317548513412476,0.37047135829925537,-0.22732575237751007,0.9989587068557739,0.5519447326660156,0.4530496895313263,-0.03300430625677109,0.9972737431526184,0.4851249158382416,0.4596465528011322,-0.12969107925891876,0.9997836351394653,0.537217915058136,0.6838135719299316,0.04143602401018143,0.9918676018714905,0.4977789521217346,0.6908560991287231,-0.04144713655114174,0.9980983138084412,0.5293406844139099,0.8336220383644104,0.09282829612493515,0.6979591250419617,0.49518075585365295,0.8579007387161255,-0.017248887568712234,0.9315245747566223,0.5180196762084961,0.9305834174156189,0.256999671459198,0.6307531595230103,0.4765724241733551,0.956628143787384,0.14219573140144348,0.8613020181655884,0.5783751606941223,0.6528668403625488,-0.0453634038567543,0.3744097054004669,0.464915931224823,0.7069734930992126,-0.19980040192604065,0.9277302026748657,179.7429271524687,0.5174984335899353,0.6873348355293274,139.55820236471388,129.87981158446848,0.7154957095718002,0.008911845282569384,-0.00855112128988944,-0.21380398282806165,1.3309307478244459,174.36167952319767,0.06925120399892558,80,1762115246.4140682
0.5324945449829102,0.3700081706047058,-0.2359071671962738,0.9990609288215637,0.551639199256897,0.4533020853996277,-0.03471079096198082,0.9975309371948242,0.48521098494529724,0.4581020474433899,-0.1394791305065155,0.9998025298118591,0.5373161435127258,0.6835035681724548,0.042679715901613235,0.9926395416259766,0.497732549905777,0.6887891292572021,-0.04270698130130768,0.9982561469078064,0.5300373435020447,0.8331716060638428,0.09772781282663345,0.7200464010238647,0.495594322681427,0.8563559651374817,-0.011435156688094139,0.9369483590126038,0.5187377333641052,0.9308537244796753,0.26008719205856323,0.6584309935569763,0.4776367247104645,0.9502451419830322,0.14671215415000916,0.8705441355705261,0.5776129364967346,0.6531729102134705,-0.04665050655603409,0.4269581139087677,0.46548599004745483,0.7045882940292358,-0.20788995921611786,0.9335731863975525,179.77604718144013,0.5175243467092514,0.6861463487148285,141.27189331864216,131.11753213531503,0.7208916868863618,0.00034287575554910595,-0.01572575302535112,-0.11338240931221139,-0.0949328888998128,175.86711124260438,0.061570045812118585,81,1762115246.489644
0.5321882963180542,0.36967670917510986,-0.2777070701122284,0.9991541504859924,0.5541397333145142,0.45361781120300293,-0.07646698504686356,0.9977720975875854,0.4852907657623291,0.45637139678001404,-0.16197103261947632,0.9998205304145813,0.5383675694465637,0.6823543906211853,0.03929515928030014,0.9933468699455261,0.4977467954158783,0.6862099766731262,-0.03936861827969551,0.9984050393104553,0.5295027494430542,0.8340811729431152,0.07324031740427017,0.7423129677772522,0.49553051590919495,0.8543132543563843,-0.024506326764822006,0.9421917796134949,0.5176067352294922,0.9316157102584839,0.24419958889484406,0.6853915452957153,0.47761407494544983,0.9462404847145081,0.1417466104030609,0.8790451288223267,0.5834345817565918,0.6599754095077515,-0.0827348381280899,0.48117709159851074,0.46477657556533813,0.7004866003990173,-0.22261254489421844,0.9390655159950256,179.5856792956734,0.518057182431221,0.6842821836471558,132.40120391352377,123.90232345974107,0.7394474936483377,0.008363208059065888,-0.02925930014556912,0.12588440487663918,-0.21241794736504488,177.7096999742947,0.1112257190238806,82,1762115246.553356
0.5316411256790161,0.3696194589138031,-0.30831262469291687,0.999238133430481,0.5576296448707581,0.4538547992706299,-0.10006861388683319,0.9979916214942932,0.48480552434921265,0.4546772837638855,-0.17162655293941498,0.999836266040802,0.5385400056838989,0.6798588037490845,0.03306899592280388,0.9939928650856018,0.4975551962852478,0.6818851232528687,-0.03316637501120567,0.9985423684120178,0.5291197299957275,0.834111213684082,0.054269663989543915,0.7641191482543945,0.49532824754714966,0.8504339456558228,-0.028389792889356613,0.9470036625862122,0.518652617931366,0.9322085976600647,0.2437124252319336,0.7104884386062622,0.4775758683681488,0.9352629780769348,0.1787591576576233,0.885298490524292,0.5875596404075623,0.6609627604484558,-0.10339359939098358,0.5312504768371582,0.4636654257774353,0.6905114054679871,-0.22496557235717773,0.9434984922409058,179.1985432901522,0.5180476009845734,0.6808719635009766,125.28592953761297,113.87586783623084,0.7676469508547806,-0.00012112549128348564,-0.04311087936729921,-0.10725614902335429,-0.1751071002098335,179.35292199496288,0.22465032751644928,83,1762115246.6324594
0.530850350856781,0.36951443552970886,-0.30430716276168823,0.9993133544921875,0.5599751472473145,0.4540059268474579,-0.10164745151996613,0.9981873631477356,0.4837222695350647,0.4528646171092987,-0.17037513852119446,0.9998504519462585,0.5389747619628906,0.6755415797233582,0.02603849396109581,0.9945710301399231,0.4970410466194153,0.6768576502799988,-0.026123035699129105,0.9986670017242432,0.5285186767578125,0.8337653875350952,0.03161872178316116,0.7855249047279358,0.4934154450893402,0.8476446270942688,-0.031249409541487694,0.951522707939148,0.5187298655509949,0.9306449294090271,0.24421831965446472,0.7348175644874573,0.4769507348537445,0.9309754967689514,0.18539616465568542,0.8922299146652222,0.5871601104736328,0.6553213596343994,-0.10447303205728531,0.5739966630935669,0.46144312620162964,0.6852719187736511,-0.21701082587242126,0.9469278454780579,179.01222942708685,0.518007904291153,0.6761996150016785,116.60690689588506,109.35530861436841,0.7652596805935677,-0.0006222600935071925,-0.07324076046536833,-0.007855466981516455,-0.4722968341692013,-179.142493364337,0.29257115372556747,84,1762115246.6962538
0.5286150574684143,0.36953145265579224,-0.31306302547454834,0.9993804097175598,0.5615379214286804,0.45738670229911804,-0.11284007877111435,0.9983571767807007,0.4820726811885834,0.4529941976070404,-0.16778811812400818,0.9998629689216614,0.5389304757118225,0.6767227053642273,0.02125629037618637,0.9950828552246094,0.49552345275878906,0.6770919561386108,-0.021330546587705612,0.9987764954566956,0.5279284715652466,0.8336269855499268,0.027331043034791946,0.8047571778297424,0.48961788415908813,0.8482718467712402,-0.026709917932748795,0.9555259943008423,0.5181833505630493,0.9311553239822388,0.24857234954833984,0.7561322450637817,0.4757311940193176,0.934127151966095,0.2089141607284546,0.8970727324485779,0.5845421552658081,0.6553391218185425,-0.12424769252538681,0.6063056588172913,0.4577605128288269,0.6831438541412354,-0.20950564742088318,0.9483774900436401,178.81704038194005,0.5172269642353058,0.6769073307514191,116.09394044994023,108.29495988548626,0.7820798497565754,-0.009861448975167995,0.008936797008598472,-0.11666937692112475,1.0377106205089501,-176.8361496452365,0.3874395920170592,85,1762115246.775445
0.527630627155304,0.36956465244293213,-0.3286885619163513,0.9994407892227173,0.5616214275360107,0.45953261852264404,-0.12222204357385635,0.9985103011131287,0.4814000725746155,0.4530389606952667,-0.1676754206418991,0.9998737573623657,0.539112389087677,0.6769160628318787,0.019731860607862473,0.9955403804779053,0.4948890209197998,0.6767950057983398,-0.019805777817964554,0.9988728165626526,0.5277739763259888,0.8333004713058472,0.030561015009880066,0.822155773639679,0.48801445960998535,0.8480628132820129,-0.023505907505750656,0.9590774774551392,0.5184588432312012,0.9305291175842285,0.2668735086917877,0.775335967540741,0.4749279022216797,0.9351216554641724,0.21808810532093048,0.9021157026290894,0.5849134922027588,0.6583083868026733,-0.12711888551712036,0.6371546983718872,0.45661425590515137,0.6830459833145142,-0.20925608277320862,0.9494215250015259,178.82862201323888,0.5170007050037384,0.6768555343151093,116.40019710055869,108.66158169991513,0.8027790581878259,-0.003576826386350016,-0.0008188256400785469,0.09935065963149871,-0.1542220764356741,-175.3721830891536,0.40261626136802514,86,1762115246.838702
0.5261949896812439,0.36939844489097595,-0.30988216400146484,0.9994955062866211,0.5618913173675537,0.45996302366256714,-0.11561645567417145,0.9986532926559448,0.479621946811676,0.45353996753692627,-0.16063182055950165,0.9998829364776611,0.5388551950454712,0.6778818964958191,0.01674540340900421,0.9959407448768616,0.4936351776123047,0.678282618522644,-0.016811132431030273,0.9989516139030457,0.5274695158004761,0.8308539390563965,0.04758651182055473,0.8377654552459717,0.4859583377838135,0.8460294008255005,0.010508431121706963,0.9620267748832703,0.519167959690094,0.9285266399383545,0.26924094557762146,0.7936741709709167,0.4738484025001526,0.9388453364372253,0.20807507634162903,0.9084489345550537,0.5867102742195129,0.6607813239097595,-0.11131509393453598,0.6707244515419006,0.45427680015563965,0.6801950335502625,-0.19538627564907074,0.9503651261329651,178.8322860782381,0.5162451863288879,0.6780822575092316,125.22254812456583,124.48640208613013,0.7875265466448265,-0.011805615059924522,0.019168582189918078,-0.128581747511291,0.3123200666527066,-175.53577487365075,0.44200628629784044,87,1762115246.9026985
0.5256212949752808,0.3694220185279846,-0.3092356324195862,0.9995447397232056,0.5619882345199585,0.46011972427368164,-0.11386606842279434,0.9987819194793701,0.4790186285972595,0.45387789607048035,-0.158138245344162,0.9998914003372192,0.5387303233146667,0.678490400314331,0.01662236452102661,0.9963048100471497,0.4931305944919586,0.6791735291481018,-0.016687607392668724,0.9990250468254089,0.5272604823112488,0.8301136493682861,0.052730072289705276,0.8518639206886292,0.4850006103515625,0.845397412776947,0.012857096269726753,0.9647663831710815,0.5193952322006226,0.9274635314941406,0.27394986152648926,0.8102518320083618,0.4732515215873718,0.9396122694015503,0.21128389239311218,0.9141929149627686,0.5870296955108643,0.6623261570930481,-0.10895419120788574,0.7004581093788147,0.45369821786880493,0.6786850094795227,-0.19344699382781982,0.9511013627052307,178.81904520358444,0.5159304589033127,0.6788319647312164,127.1778114378449,125.55152309359416,0.7897001255834054,-0.0036634007515166317,0.008726528981123279,0.09477468943772917,-0.12154462072237972,-175.69772558367805,0.466241196635018,88,1762115246.9886098
0.520222544670105,0.36858007311820984,-0.3418596088886261,0.9995877742767334,0.5615623593330383,0.4613998532295227,-0.15814156830310822,0.9988924860954285,0.4766799509525299,0.4539697468280792,-0.1696999967098236,0.999893844127655,0.5382181406021118,0.6790952682495117,0.011839491315186024,0.9966052174568176,0.4882083535194397,0.6770632863044739,-0.011931808665394783,0.9990680813789368,0.5264633893966675,0.8285319209098816,0.03995903208851814,0.8643864393234253,0.4820238947868347,0.8424183130264282,0.017049388960003853,0.967282772064209,0.519447922706604,0.9259230494499207,0.26913580298423767,0.8250464200973511,0.47236689925193787,0.941497802734375,0.21839356422424316,0.9197149276733398,0.585274338722229,0.6777794361114502,-0.15246398746967316,0.725866973400116,0.4480494558811188,0.6815927028656006,-0.19134566187858582,0.9429209232330322,178.46449348294186,0.5132132470607758,0.6780792772769928,123.70010539349393,126.18657469486756,0.8141985958822463,-0.038641383951881415,-0.010703944557839275,-0.497420796402033,-0.2763201516466674,-174.9974156779984,0.7086175256872392,89,1762115247.0589285
0.5165778994560242,0.3686743378639221,-0.34002572298049927,0.9996283650398254,0.5604077577590942,0.4621165692806244,-0.17309941351413727,0.999000072479248,0.4735429286956787,0.4540204405784607,-0.1720479428768158,0.9998990893363953,0.5367305874824524,0.6794998645782471,0.008041624911129475,0.9969024062156677,0.48440080881118774,0.6765589118003845,-0.008156451396644115,0.9991251230239868,0.5247091054916382,0.8288764953613281,0.042844127863645554,0.8761747479438782,0.479844868183136,0.8407630920410156,0.03251655772328377,0.9697189927101135,0.5197106599807739,0.9262728095054626,0.26825159788131714,0.8395650386810303,0.47197747230529785,0.9432449340820312,0.21836087107658386,0.9257232546806335,0.583858072757721,0.6844597458839417,-0.170946404337883,0.7521512508392334,0.44342654943466187,0.6792539954185486,-0.18554717302322388,0.9398787021636963,178.3308772374864,0.5105656981468201,0.6780293881893158,126.45768707876479,132.80687306763588,0.81311608272858,-0.045971604692946505,-0.0008662659281154524,-0.12728074954309293,0.17081983667157302,-174.67520108464976,0.9962269330105198,90,1762115247.1165195
0.5153920650482178,0.36874547600746155,-0.3318309485912323,0.9996646642684937,0.5599277019500732,0.46278202533721924,-0.1721251904964447,0.9990960955619812,0.47231680154800415,0.4543953835964203,-0.17124292254447937,0.9999037384986877,0.5357422828674316,0.6797367334365845,0.007979637943208218,0.9971652626991272,0.48315611481666565,0.6765075922012329,-0.00809908751398325,0.9991761445999146,0.5236276388168335,0.8279248476028442,0.04667167738080025,0.8866098523139954,0.4792689383029938,0.838513970375061,0.038094792515039444,0.9719635248184204,0.5194721221923828,0.9261342287063599,0.26286861300468445,0.8526999354362488,0.47073665261268616,0.9435588121414185,0.21359138190746307,0.9310953617095947,0.5830233693122864,0.6856049299240112,-0.16662707924842834,0.7756578326225281,0.44172972440719604,0.678742527961731,-0.17956611514091492,0.9367902278900146,178.25894384076184,0.5094491988420486,0.6781221628189087,129.01228769648495,136.82717152626304,0.8036488440618669,-0.015693753246535633,0.0013040600546255802,0.4255919617724389,0.03050656663387337,-174.53196519657874,1.0517189695270917,91,1762115247.1876624
0.513113796710968,0.3698228597640991,-0.2917465269565582,0.9996974468231201,0.5594850778579712,0.46457281708717346,-0.15672990679740906,0.9991831183433533,0.4704515039920807,0.45494067668914795,-0.147667795419693,0.9999081492424011,0.5338371992111206,0.6803417205810547,0.005318593233823776,0.9974209666252136,0.48108071088790894,0.6766566634178162,-0.005475981626659632,0.9992359280586243,0.5216390490531921,0.8281694054603577,0.04703193157911301,0.896436870098114,0.47837376594543457,0.8379584550857544,0.04836704581975937,0.9739110469818115,0.5193063616752625,0.9263588786125183,0.24585556983947754,0.8650856614112854,0.4703551232814789,0.9442757368087769,0.21002233028411865,0.9358022212982178,0.5796186327934265,0.6881258487701416,-0.14087146520614624,0.7972594499588013,0.4387292265892029,0.6730608344078064,-0.12702572345733643,0.9370759725570679,178.03383220329678,0.5074589550495148,0.6784991919994354,131.93814616609913,141.77844745274928,0.7682390485742314,-0.023723917775984177,0.004494227949117283,-0.0957204156289408,0.038027140747490897,-173.82544276984493,1.450612671504036,92,1762115247.2715542
0.5101194381713867,0.3698482811450958,-0.3106604218482971,0.9997266530990601,0.5577936172485352,0.46663492918014526,-0.17465166747570038,0.9992612600326538,0.4681100845336914,0.4556567668914795,-0.14817668497562408,0.9999110102653503,0.5309218764305115,0.6804076433181763,0.0025420794263482094,0.9976484775543213,0.478005588054657,0.6766945123672485,-0.002685895888134837,0.9992836117744446,0.5197251439094543,0.8287742733955383,0.04436615854501724,0.9050785899162292,0.47676795721054077,0.8376173377037048,0.045668937265872955,0.9756130576133728,0.5190516710281372,0.9287755489349365,0.24613936245441437,0.8759267926216125,0.46914416551589966,0.9447437524795532,0.21850070357322693,0.9398354887962341,0.5747462511062622,0.697235643863678,-0.16901448369026184,0.8162665963172913,0.4354957044124603,0.6725221276283264,-0.1345915049314499,0.9348341822624207,177.76414538101398,0.5044637322425842,0.6785510778427124,131.98562301539332,138.49134323881654,0.7851579232237229,-0.04087641293949983,0.0007080966232616858,-0.23408357923300852,-0.05167010185711313,-173.02114231744574,2.0455110379582027,93,1762115247.3448293
0.5070440173149109,0.37005898356437683,-0.31989526748657227,0.9997531175613403,0.5541773438453674,0.468051940202713,-0.1767985224723816,0.9993304014205933,0.46514973044395447,0.45590558648109436,-0.15026971697807312,0.9999146461486816,0.5274822115898132,0.6805828809738159,0.0020812945440411568,0.9978435039520264,0.4753909707069397,0.6763013601303101,-0.002209544414654374,0.9993247389793396,0.517734944820404,0.8302815556526184,0.04052293300628662,0.9129482507705688,0.4750947952270508,0.8375318050384521,0.04069138318300247,0.9771933555603027,0.5182695388793945,0.9298065900802612,0.23940345644950867,0.8857256174087524,0.4685959219932556,0.9492531418800354,0.21203330159187317,0.943744421005249,0.5664432644844055,0.6989725828170776,-0.16831564903259277,0.8330228328704834,0.431357204914093,0.6698324680328369,-0.1385955512523651,0.9337871670722961,177.82345369280617,0.5014365911483765,0.678442120552063,130.87489570349635,137.9768990341069,0.7887817215838875,-0.053950208632543274,-0.0019418548325415778,-0.23300334649367677,-0.04722787258917427,-172.23090115114866,2.7578146296024784,94,1762115247.4009392
0.5047874450683594,0.3706262707710266,-0.3331691026687622,0.9997773170471191,0.550386369228363,0.46901440620422363,-0.1808091253042221,0.9993943572044373,0.4617815613746643,0.4563499093055725,-0.15603235363960266,0.9999188780784607,0.5236829519271851,0.6812052726745605,0.0031052061822265387,0.998029887676239,0.47246289253234863,0.676453709602356,-0.0032232932280749083,0.9993687868118286,0.5162826776504517,0.8348981142044067,0.038012728095054626,0.919705867767334,0.47427088022232056,0.8378813862800598,0.03712766617536545,0.9783634543418884,0.5176681876182556,0.9302006959915161,0.24290919303894043,0.8938760757446289,0.4676433205604553,0.9515407085418701,0.2121766358613968,0.9469110369682312,0.5553486943244934,0.700941264629364,-0.17796461284160614,0.8482985496520996,0.42733582854270935,0.6689788103103638,-0.14598970115184784,0.9329972863197327,177.87742483656132,0.49807292222976685,0.6788294911384583,127.668891573925,136.96459179031638,0.7998273912035059,-0.03496191132301776,0.00402632257169196,0.1973640042389008,0.06203312341843112,-171.86567260734884,3.0552887707448995,95,1762115247.4971488
0.5032374262809753,0.3708420693874359,-0.3302235007286072,0.9997982382774353,0.5490458011627197,0.4698953330516815,-0.18209747970104218,0.9994519948959351,0.4610190987586975,0.45665672421455383,-0.15124620497226715,0.9999198317527771,0.5219702124595642,0.6816098690032959,0.0014314998406916857,0.998200535774231,0.47104978561401367,0.676624059677124,-0.001537243602797389,0.999402642250061,0.5161951184272766,0.8359005451202393,0.02811030112206936,0.9250190854072571,0.4741068482398987,0.8374224901199341,0.03816674277186394,0.9786405563354492,0.5171643495559692,0.9321348667144775,0.24330464005470276,0.8989878296852112,0.4678914546966553,0.9471794962882996,0.22730891406536102,0.9474856853485107,0.5523887872695923,0.7031765580177307,-0.17702214419841766,0.8620918989181519,0.4265146255493164,0.6689591407775879,-0.13636913895606995,0.9309359192848206,177.73885828394017,0.49650999903678894,0.67911696434021,123.86623781177384,133.92102335505567,0.8021781727101049,-0.01994576461997201,0.0036686849631838376,0.19163355498439602,-0.004564111397541691,-171.44720819144868,3.247784748540089,96,1762115247.5755074
0.5014599561691284,0.37280601263046265,-0.3386577367782593,0.9998172521591187,0.5470679998397827,0.4701518714427948,-0.17795100808143616,0.9995043873786926,0.4581601619720459,0.45739346742630005,-0.14987578988075256,0.9999194145202637,0.5203694105148315,0.681903064250946,0.00066062604309991,0.998342752456665,0.4695141911506653,0.6766474843025208,-0.0007348069339059293,0.9994229674339294,0.5162237286567688,0.8479347825050354,0.009542998857796192,0.9293301105499268,0.4732089936733246,0.8376050591468811,0.03280443698167801,0.9783543944358826,0.5171632766723633,0.9325705766677856,0.24633805453777313,0.9015818238258362,0.46799296140670776,0.9484187364578247,0.22584345936775208,0.9476358294487,0.5458709597587585,0.7004842758178711,-0.1766660064458847,0.8737863302230835,0.423676073551178,0.6693061590194702,-0.14637598395347595,0.9240538477897644,177.96102843319548,0.4949418008327484,0.6792752742767334,112.71632399937549,131.5598500297761,0.8078892959599211,-0.024677994844916014,0.002491248738430138,-0.07446887312791864,-0.01852875804207862,-171.83372292412753,3.5864477338359304,97,1762115247.6390538
0.49965229630470276,0.37468668818473816,-0.3361762464046478,0.9998347759246826,0.5441899299621582,0.4703121483325958,-0.17698703706264496,0.999552309513092,0.4563334584236145,0.4576500654220581,-0.13829638063907623,0.999921977519989,0.5181167721748352,0.6842103004455566,0.0020226179622113705,0.9984769225120544,0.46791872382164,0.6788206696510315,-0.0020918012596666813,0.9994521737098694,0.5153491497039795,0.8503279089927673,0.022214381024241447,0.9337220191955566,0.47197261452674866,0.8380519151687622,0.03214006498456001,0.9788365960121155,0.5174013376235962,0.9335107803344727,0.24721789360046387,0.9056951403617859,0.4681285321712494,0.9502632021903992,0.2210071086883545,0.9486899375915527,0.538978636264801,0.6989613771438599,-0.16807690262794495,0.8854610323905945,0.41990190744400024,0.6690234541893005,-0.14851121604442596,0.9231550097465515,178.09274178520906,0.4930177479982376,0.6815154850482941,117.20455246369274,132.78858933389668,0.8043586731922885,-0.03009645148056985,0.035041862459909,-0.08475667315860906,0.5091637552564097,-171.79886792392858,8.076223494260221,98,1762115247.7029834
0.4980641007423401,0.37580442428588867,-0.33502861857414246,0.9998508095741272,0.5416902303695679,0.47029411792755127,-0.17359867691993713,0.9995960593223572,0.45485758781433105,0.45820295810699463,-0.1298799067735672,0.9999221563339233,0.5156782865524292,0.6846255660057068,0.0009046880295500159,0.9985986351966858,0.46618229150772095,0.6793026328086853,-0.0009458530694246292,0.9994710087776184,0.5151660442352295,0.8552089333534241,0.003976345993578434,0.9381422400474548,0.4708678126335144,0.8402283787727356,0.025045137852430344,0.9788287281990051,0.5189524292945862,0.933591365814209,0.24640706181526184,0.9074501395225525,0.4681280255317688,0.952405571937561,0.21488094329833984,0.9488513469696045,0.5355963706970215,0.6980372667312622,-0.16633495688438416,0.8962446451187134,0.41720542311668396,0.6696377992630005,-0.14165017008781433,0.9233440160751343,178.06812626809048,0.4909302890300751,0.681964099407196,108.9431864810285,129.70286917073443,0.8010711978004257,-0.026372038000343375,0.0056675963939433185,0.0470526009505141,-0.371101551090956,-172.07272461808012,14.006550382006514,99,1762115247.7821376
0.4974057078361511,0.37580522894859314,-0.33154791593551636,0.9998647570610046,0.5398654341697693,0.47018560767173767,-0.1688607782125473,0.999635636806488,0.4534904360771179,0.45832616090774536,-0.12432272732257843,0.9999183416366577,0.5147987008094788,0.6846269369125366,-0.004962279461324215,0.9987049102783203,0.46548089385032654,0.6793326735496521,0.004932411015033722,0.9994615316390991,0.5150939226150513,0.8551968336105347,-0.012549107894301414,0.9421986937522888,0.47042813897132874,0.8428710103034973,0.028810659423470497,0.9764784574508667,0.5224220752716064,0.9458770751953125,0.20970387756824493,0.9087198972702026,0.4681474268436432,0.9523929357528687,0.22469060122966766,0.9428985714912415,0.5337668657302856,0.6973779201507568,-0.17204317450523376,0.9056152701377869,0.41447368264198303,0.6699932217597961,-0.12157543003559113,0.9214431047439575,178.27995400153134,0.49013979732990265,0.6819798052310944,109.64204289867716,127.4727297785388,0.7936200454950012,-0.012464052103304387,0.0002476410661253336,0.2192937140705019,-0.08545896887819363,-172.18206645806032,2.58964840011873,100,1762115247.8455594
