nose_x,nose_y,nose_z,nose_visibility,left_shoulder_x,left_shoulder_y,left_shoulder_z,left_shoulder_visibility,right_shoulder_x,right_shoulder_y,right_shoulder_z,right_shoulder_visibility,left_hip_x,left_hip_y,left_hip_z,left_hip_visibility,right_hip_x,right_hip_y,right_hip_z,right_hip_visibility,left_knee_x,left_knee_y,left_knee_z,left_knee_visibility,right_knee_x,right_knee_y,right_knee_z,right_knee_visibility,left_ankle_x,left_ankle_y,left_ankle_z,left_ankle_visibility,right_ankle_x,right_ankle_y,right_ankle_z,right_ankle_visibility,left_wrist_x,left_wrist_y,left_wrist_z,left_wrist_visibility,right_wrist_x,right_wrist_y,right_wrist_z,right_wrist_visibility,trunk_lateral_inclination,center_mass_x,center_mass_y,left_knee_angle,right_knee_angle,person_height,center_mass_velocity_x,center_mass_velocity_y,center_mass_acceleration_x,center_mass_acceleration_y,body_orientation,torso_leg_ratio,frame,timestamp
0.47215086221694946,0.14099980890750885,-0.1957361400127411,0.9998836517333984,0.5283467769622803,0.21434618532657623,-0.18014374375343323,0.9999675750732422,0.4766043722629547,0.22711659967899323,-0.009759841486811638,0.9990760087966919,0.514527440071106,0.4053346514701843,-0.052184097468853,0.9998295307159424,0.4870676100254059,0.405953586101532,0.05223129317164421,0.9993426203727722,0.5163493752479553,0.5394083261489868,-0.021245252341032028,0.9684272408485413,0.48417043685913086,0.5249139666557312,0.12208066135644913,0.9238765835762024,0.5302934050559998,0.6536520719528198,0.09892529249191284,0.9795392751693726,0.4941200315952301,0.6200761795043945,0.2654128670692444,0.941765308380127,0.5313743352890015,0.4310630261898041,-0.15947052836418152,0.8827021718025208,0.47615164518356323,0.40521252155303955,-0.023655513301491737,0.20425716042518616,179.4800654305686,0.5007975250482559,0.40564411878585815,146.3452656392342,153.61867357691918,0.6247385432739763,0.0,0.0,0.0,0.0,166.13604155624108,0.1404482700388618,0,1762115199.4554
0.4721524715423584,0.14202344417572021,-0.1937294453382492,0.9998840093612671,0.529326856136322,0.21487967669963837,-0.19742293655872345,0.9999681711196899,0.47771114110946655,0.22520697116851807,-0.009000450372695923,0.999059796333313,0.5138053894042969,0.4111802875995636,-0.05571405217051506,0.9998214244842529,0.48745179176330566,0.4095676839351654,0.055722951889038086,0.9993293881416321,0.5163474082946777,0.5390031933784485,-0.011504720896482468,0.9703195095062256,0.484366238117218,0.5269303321838379,0.15084990859031677,0.9269505143165588,0.5292012095451355,0.6534120440483093,0.1128087267279625,0.9806521534919739,0.49416860938072205,0.623708963394165,0.2993381917476654,0.9445896148681641,0.5299392342567444,0.4272051453590393,-0.16911999881267548,0.8869661092758179,0.4759889543056488,0.40201249718666077,-0.003266469808295369,0.20584209263324738,179.1299591410454,0.5006285905838013,0.4103739857673645,151.5454659638273,161.60300315801672,0.6387129462109787,-0.002617761152673871,0.0732926941904498,-0.040564093742327986,1.1357230642422844,168.68563652494163,0.2551316119878574,1,1762115199.519934
0.47239550948143005,0.1439799666404724,-0.19378750026226044,0.9998874068260193,0.529731035232544,0.21554820239543915,-0.19654661417007446,0.9999693036079407,0.4787013530731201,0.22421395778656006,-0.0089254854246974,0.9990584254264832,0.5132774114608765,0.4138641655445099,-0.05658932775259018,0.9998168349266052,0.4876159727573395,0.4108562469482422,0.05658413842320442,0.9993190169334412,0.5163480043411255,0.5377450585365295,-0.009257510304450989,0.9719936847686768,0.48440051078796387,0.526872992515564,0.1564626544713974,0.9295777082443237,0.528349757194519,0.6532865762710571,0.11118544638156891,0.981656014919281,0.4941680431365967,0.6236826777458191,0.30166780948638916,0.9469228982925415,0.5295714735984802,0.42657962441444397,-0.16844575107097626,0.8927487730979919,0.47572702169418335,0.3992782235145569,-0.0010486326646059752,0.21162083745002747,178.8780655991743,0.500446692109108,0.41236020624637604,154.5934551373845,163.80438747892188,0.6373512145347966,-0.0027176526534014407,0.02967511060291949,-0.0014924281386210724,-0.6516681460439873,170.36209338456635,0.34628199564196727,2,1762115199.5868661
0.4723258912563324,0.14599351584911346,-0.19254335761070251,0.9998912811279297,0.5308040380477905,0.21748086810112,-0.21291199326515198,0.9999709129333496,0.480546772480011,0.22426816821098328,-0.01692906953394413,0.9991012811660767,0.514634907245636,0.41935446858406067,-0.05625773221254349,0.9998113512992859,0.48947954177856445,0.41585052013397217,0.0562581829726696,0.9993190169334412,0.5167069435119629,0.540784478187561,-0.005805152002722025,0.9737918376922607,0.4843955934047699,0.5316386222839355,0.1630372554063797,0.9317111968994141,0.5283842086791992,0.6550321578979492,0.11023630201816559,0.9821848273277283,0.49406805634498596,0.62363201379776,0.316276878118515,0.947665810585022,0.5283809304237366,0.43080413341522217,-0.1883338987827301,0.9014360904693604,0.47457852959632874,0.40389886498451233,-0.0036059324629604816,0.23433558642864227,178.9463465188447,0.5020572245121002,0.4176024943590164,156.9120825856154,162.9263975822195,0.6399763831224345,0.026740861479264643,0.08704158947318417,0.4891215130741924,0.9524981069445103,172.30867559463118,0.338912216715394,3,1762115199.6470935
0.4707620143890381,0.14625199139118195,-0.1846378743648529,0.999891996383667,0.5317011475563049,0.21878795325756073,-0.22364306449890137,0.9999725222587585,0.48409348726272583,0.22433294355869293,-0.018729841336607933,0.9991448521614075,0.5175868272781372,0.4231802225112915,-0.056260846555233,0.9998074173927307,0.49083080887794495,0.41940969228744507,0.05625405162572861,0.9993287920951843,0.5178999900817871,0.5444559454917908,0.0068133980967104435,0.9756157398223877,0.4854711592197418,0.5356911420822144,0.17604243755340576,0.9349032044410706,0.5283714532852173,0.6573758125305176,0.12623758614063263,0.9830695390701294,0.49405717849731445,0.6237374544143677,0.3347042202949524,0.9494726657867432,0.5246919393539429,0.4377190172672272,-0.1917789727449417,0.9092851281166077,0.47436872124671936,0.4101019501686096,0.0024964483454823494,0.24923089146614075,178.94203847663144,0.5042088180780411,0.4212949573993683,160.56080422802415,164.2067934460135,0.6467524759180041,0.03389218234191738,0.058164159177373255,0.11264853850620177,-0.45488104660865863,173.35654232462383,0.38705136250690425,4,1762115199.710577
0.4696841835975647,0.14688904583454132,-0.17790138721466064,0.999889612197876,0.531777024269104,0.21868769824504852,-0.22429576516151428,0.9999735355377197,0.4879053235054016,0.22382210195064545,-0.02023889496922493,0.9991523623466492,0.5199844241142273,0.42379024624824524,-0.05614333227276802,0.9997954368591309,0.4929145276546478,0.41911226511001587,0.056143034249544144,0.9993111491203308,0.5189522504806519,0.5448980331420898,0.00839116983115673,0.9772505164146423,0.4870676100254059,0.5346806645393372,0.17028559744358063,0.9370145797729492,0.5277808904647827,0.6574118137359619,0.12160854041576385,0.9838564395904541,0.4941332936286926,0.6238462328910828,0.317829430103302,0.9505643248558044,0.5191715359687805,0.43993547558784485,-0.18867123126983643,0.9154050350189209,0.4792085289955139,0.41092127561569214,0.007081923540681601,0.24557341635227203,179.02939595996972,0.5064494758844376,0.42145125567913055,162.49882557546144,165.11785736977333,0.6352830699297085,0.028176108171311217,0.0019654394459518204,-0.0718792149727027,-0.7066947936991406,173.32491090565364,0.4267273478881461,5,1762115199.7901003
0.46859702467918396,0.14673593640327454,-0.1710827648639679,0.9998792409896851,0.5316833853721619,0.21864721179008484,-0.23293988406658173,0.9999748468399048,0.4914729595184326,0.2230069637298584,-0.01980181783437729,0.9991340041160583,0.5211119651794434,0.4261058270931244,-0.05696476250886917,0.9997825026512146,0.4945875108242035,0.4203833341598511,0.05695983022451401,0.9992856383323669,0.5191729068756104,0.5473698377609253,0.0243932344019413,0.9781813621520996,0.48857975006103516,0.5363515019416809,0.1805236041545868,0.9346128106117249,0.5266134738922119,0.6572954058647156,0.14126917719841003,0.9838544130325317,0.49662819504737854,0.6245214939117432,0.3259938359260559,0.9479632377624512,0.5158292055130005,0.4401392638683319,-0.1822894662618637,0.9216811060905457,0.4832618832588196,0.41198909282684326,0.017395440489053726,0.23862102627754211,178.9447581808893,0.5078497380018234,0.42324458062648773,166.6515781954367,167.12658657302066,0.6401961908579097,0.022085976662241793,0.02828565626633474,-0.09605808848874636,0.4151420560640166,173.81196810265246,0.48136744620235467,6,1762115199.8535008
0.4681873321533203,0.14677108824253082,-0.17014113068580627,0.9998708963394165,0.5316574573516846,0.2185685932636261,-0.23489892482757568,0.9999762177467346,0.49279695749282837,0.22185510396957397,-0.019526079297065735,0.9991177320480347,0.5209507346153259,0.42882677912712097,-0.05774359032511711,0.9997756481170654,0.49523553252220154,0.42197832465171814,0.057723112404346466,0.9992726445198059,0.5192703008651733,0.5489503741264343,0.03372565656900406,0.9788205027580261,0.4887406826019287,0.5364013910293579,0.1846473217010498,0.9320918321609497,0.5260080099105835,0.6572138667106628,0.15653327107429504,0.9836589694023132,0.4978031516075134,0.6251810193061829,0.3310495913028717,0.9453275203704834,0.5148566961288452,0.44093626737594604,-0.18115176260471344,0.9276442527770996,0.4847779870033264,0.4124755561351776,0.021860074251890182,0.23267103731632233,178.84579106866482,0.5080931335687637,0.42540255188941956,168.28799370783304,168.00328852481985,0.6463040084419525,0.0029385731351016823,0.026053705329514544,-0.2311712013456855,-0.02694687969979905,175.16588389835476,0.5232283600591963,7,1762115199.9363286
0.4683234691619873,0.14651070535182953,-0.1679416298866272,0.99985671043396,0.5312969088554382,0.21610647439956665,-0.24291960895061493,0.9999777674674988,0.49605053663253784,0.21933062374591827,-0.019034596160054207,0.9990680813789368,0.5207809805870056,0.42787450551986694,-0.060907769948244095,0.9997714161872864,0.496847540140152,0.4215400218963623,0.060882676392793655,0.9992369413375854,0.5192083120346069,0.5486639738082886,0.035211775451898575,0.9786252379417419,0.49071794748306274,0.5353395938873291,0.1944269835948944,0.9194598197937012,0.5254727602005005,0.655257523059845,0.15650683641433716,0.9829564094543457,0.5030911564826965,0.6251492500305176,0.34452369809150696,0.9356962442398071,0.5116545557975769,0.44118526577949524,-0.19150248169898987,0.9335250854492188,0.48726630210876465,0.4146941602230072,0.01857941225171089,0.22280573844909668,178.65511726419035,0.5088142603635788,0.4247072637081146,169.43045258087815,168.69897395843023,0.6488072294258227,0.007740642258653959,-0.007463288171855886,0.05154585775207375,-0.3597745336120446,174.77343454222785,0.5214111329683095,8,1762115200.0294898
0.4684346616268158,0.14625583589076996,-0.17059879004955292,0.9998061656951904,0.5300906896591187,0.21416786313056946,-0.2529854476451874,0.9999790787696838,0.4992949962615967,0.21707984805107117,-0.022148851305246353,0.998943567276001,0.5206919312477112,0.42782002687454224,-0.06396700441837311,0.9997615814208984,0.4989749491214752,0.42125919461250305,0.06393633782863617,0.9991436004638672,0.5191758871078491,0.5505282878875732,0.044522974640131,0.9767258167266846,0.4933699071407318,0.5341680645942688,0.20401039719581604,0.8979824781417847,0.5254637002944946,0.6545823216438293,0.17269551753997803,0.9811431169509888,0.5086452960968018,0.6236794590950012,0.3614117503166199,0.9179725646972656,0.5082956552505493,0.4421551525592804,-0.2118012011051178,0.9386628866195679,0.49132466316223145,0.41418126225471497,0.015869934111833572,0.21149134635925293,178.6675343174737,0.5098334401845932,0.42453961074352264,170.15971213437456,168.63523274214037,0.6609306711365398,0.013514303869901016,-0.002223074928946961,0.07655863651098746,0.06948512190642141,174.59827617491246,0.45067073738568514,9,1762115200.1049047
0.46902918815612793,0.146197110414505,-0.16377674043178558,0.9997556805610657,0.5286359786987305,0.2137858122587204,-0.24849066138267517,0.9999802112579346,0.5019947290420532,0.21607345342636108,-0.021197166293859482,0.9988287091255188,0.5207818746566772,0.4273339509963989,-0.06452827155590057,0.9997369050979614,0.5026190280914307,0.4208984375,0.06446007639169693,0.9989657998085022,0.5191460847854614,0.5515093207359314,0.053702645003795624,0.9715672135353088,0.49745774269104004,0.5333563089370728,0.194377601146698,0.8603264689445496,0.5255126953125,0.654631495475769,0.18720468878746033,0.9759537577629089,0.5153157711029053,0.6237683892250061,0.3438792824745178,0.8817816972732544,0.5070441365242004,0.4430621266365051,-0.21047420799732208,0.9437320828437805,0.4952091574668884,0.4147880971431732,0.016261376440525055,0.2014736831188202,179.0099839980976,0.511700451374054,0.42411619424819946,170.85766070730224,167.69314424587697,0.6557490249324937,0.017109760947035164,-0.003880295445954715,0.03294967455597253,-0.015187186366416111,175.09214263530066,0.298423772728373,10,1762115200.2140243
0.46981197595596313,0.1463390290737152,-0.15775363147258759,0.9997236728668213,0.5273327827453613,0.21380330622196198,-0.24386540055274963,0.9999808669090271,0.5033401250839233,0.21630904078483582,-0.01664423756301403,0.9987521767616272,0.5210423469543457,0.42838990688323975,-0.06544631719589233,0.9997084140777588,0.5044266581535339,0.42276763916015625,0.06535454839468002,0.9987914562225342,0.5196058750152588,0.5530388951301575,0.05699169635772705,0.9678339958190918,0.49961748719215393,0.5333192944526672,0.19475165009498596,0.8287864327430725,0.5257288813591003,0.65505051612854,0.19121316075325012,0.9724209308624268,0.5184122920036316,0.6240275502204895,0.3421933054924011,0.8515409827232361,0.5057801604270935,0.44427749514579773,-0.20424024760723114,0.9480292797088623,0.49585193395614624,0.4162057340145111,0.014969242736697197,0.19121599197387695,179.29188960491487,0.5127345025539398,0.425578773021698,171.32751153521286,168.1505630226901,0.652794635656687,0.011320746098409608,0.016012247039385245,-0.0633778758111825,0.21778266599262186,174.03778308120152,0.20882592925645987,11,1762115200.3053656
0.47022169828414917,0.1463421732187271,-0.15708553791046143,0.9997018575668335,0.5269770622253418,0.2138432413339615,-0.24197664856910706,0.9999814033508301,0.5034184455871582,0.21623626351356506,-0.016251277178525925,0.9986826181411743,0.5214194059371948,0.4284912645816803,-0.06526581197977066,0.9996854066848755,0.5051143765449524,0.42348960041999817,0.06516934931278229,0.998645007610321,0.520052969455719,0.5534808039665222,0.054557524621486664,0.9645532369613647,0.5003014802932739,0.5328407287597656,0.1921079307794571,0.7992989420890808,0.5259752869606018,0.6559913158416748,0.1850787252187729,0.9693859219551086,0.5179873704910278,0.624248206615448,0.3375929892063141,0.8240171670913696,0.5049688220024109,0.4438490867614746,-0.19989967346191406,0.9517523646354675,0.49678367376327515,0.4164956510066986,0.013038153760135174,0.18091049790382385,179.47557793077547,0.5132668912410736,0.42599043250083923,171.5474355941665,168.57185133583073,0.6492856302590942,0.005946769356960623,0.004598226888026035,-0.06002719626353921,-0.12749434185249067,174.1999394178298,0.1635616839542465,12,1762115200.3948913
0.4708267152309418,0.1463208794593811,-0.15546461939811707,0.9996950030326843,0.5261380672454834,0.21410535275936127,-0.23955325782299042,0.9999821186065674,0.504105269908905,0.21611781418323517,-0.016085388138890266,0.9986276626586914,0.5213087201118469,0.42844393849372864,-0.06469906866550446,0.9996690154075623,0.5075966119766235,0.4235987663269043,0.06461220234632492,0.9985214471817017,0.5199849605560303,0.5530912280082703,0.05556272342801094,0.9583790898323059,0.505876898765564,0.5308668613433838,0.18940173089504242,0.7650728821754456,0.5260478258132935,0.65598464012146,0.18282769620418549,0.9641911387443542,0.5216823816299438,0.6237315535545349,0.3352251648902893,0.7911979556083679,0.504516065120697,0.4435553252696991,-0.1994575411081314,0.9554570317268372,0.4986114501953125,0.41781824827194214,0.006283669266849756,0.1727152019739151,179.81825928092363,0.5144526660442352,0.42602135241031647,172.46655157861252,169.94676022615772,0.6466798945972558,0.012268039457034112,0.0003198977313932063,0.06539993158861339,-0.04426364159856168,174.78112198398176,0.06117895602191483,13,1762115200.4915469
0.47188296914100647,0.14580778777599335,-0.156084343791008,0.9996774196624756,0.5245375633239746,0.21413232386112213,-0.23889732360839844,0.9999817609786987,0.5065206289291382,0.21553903818130493,-0.017911475151777267,0.9985494613647461,0.5212419629096985,0.42833027243614197,-0.06446507573127747,0.9996208548545837,0.5111819505691528,0.4233551025390625,0.0643458217382431,0.99834805727005,0.5200642347335815,0.5528936386108398,0.05813691020011902,0.9515898823738098,0.5116778016090393,0.5305272936820984,0.1890895813703537,0.7388144731521606,0.5263200998306274,0.6553659439086914,0.18886932730674744,0.9591673612594604,0.5275689959526062,0.6231383085250854,0.32871299982070923,0.7675480842590332,0.5045539140701294,0.44453009963035583,-0.20321781933307648,0.9582099318504333,0.5009313821792603,0.4196520149707794,-0.004287979565560818,0.16574187576770782,-179.81458011663247,0.5162119567394257,0.42584268748760223,172.19615463187188,171.15906111814675,0.6470245584185597,0.01801425711635174,-0.0018294394804941165,0.05883839586286452,-0.022008138433591732,175.53555507536848,0.06166046144760088,14,1762115200.589208
0.4728471338748932,0.1454390585422516,-0.1496458351612091,0.9996781945228577,0.5219088792800903,0.2151063233613968,-0.2337682694196701,0.9999806880950928,0.5085526704788208,0.21563725173473358,-0.016431007534265518,0.9985032677650452,0.5211872458457947,0.4281062185764313,-0.06417053937911987,0.9995436668395996,0.514950156211853,0.42330196499824524,0.06402066349983215,0.9981207251548767,0.5179486274719238,0.5534517765045166,0.06028425693511963,0.948157012462616,0.5161414742469788,0.5306505560874939,0.18747979402542114,0.716897189617157,0.5258159637451172,0.6543595790863037,0.19318094849586487,0.9570003151893616,0.5329455733299255,0.6231406927108765,0.3230782449245453,0.7486242651939392,0.5042278170585632,0.44530636072158813,-0.19212982058525085,0.9605374336242676,0.503459095954895,0.42252060770988464,-0.007429421879351139,0.15822932124137878,-179.22697882561323,0.5180687010288239,0.42570409178733826,171.15879983068882,171.36521951171622,0.6425205628838327,0.02179019409787995,-0.0016265175700971189,0.04431326392043497,0.00238143067923281,177.72360947021818,0.2300389960623826,15,1762115200.674418
0.4733407497406006,0.14537493884563446,-0.14798197150230408,0.9996815919876099,0.5197933912277222,0.21623261272907257,-0.23461535573005676,0.9999796152114868,0.5134996175765991,0.21569959819316864,-0.016363300383090973,0.9985232353210449,0.5211642980575562,0.42799437046051025,-0.06410055607557297,0.9995184540748596,0.5209553837776184,0.4230630099773407,0.06396368145942688,0.9980509281158447,0.5165316462516785,0.5562884211540222,0.055122990161180496,0.9484554529190063,0.5237582325935364,0.5306034684181213,0.1865571290254593,0.6979585886001587,0.5253356099128723,0.6550166010856628,0.18429288268089294,0.9563436508178711,0.5391473770141602,0.6224514842033386,0.3232453465461731,0.7399444580078125,0.5039690732955933,0.44725486636161804,-0.17458339035511017,0.9619792103767395,0.50937420129776,0.42435505986213684,-0.015486960299313068,0.14979316294193268,-178.7935433079933,0.5210598409175873,0.4255286902189255,169.2444746725531,171.44698687941172,0.638965130588194,0.03691674587083884,-0.0021648118667957476,0.18669239436182594,-0.006643645731714856,-175.1592184168576,0.3648123001147668,16,1762115200.755442
0.4736255705356598,0.1453031450510025,-0.14372330904006958,0.9996856451034546,0.5189090967178345,0.21626855432987213,-0.2347877025604248,0.9999790787696838,0.5143157839775085,0.21570922434329987,-0.009269343689084053,0.9985415935516357,0.5206254124641418,0.4278647005558014,-0.06494515389204025,0.9994874596595764,0.5214644074440002,0.4226057231426239,0.06481117010116577,0.9979865550994873,0.5147758722305298,0.5582877397537231,0.052397869527339935,0.9479512572288513,0.5232490301132202,0.5327708125114441,0.1857050657272339,0.6815611124038696,0.525149941444397,0.656247079372406,0.18080182373523712,0.9561972618103027,0.5394014120101929,0.6251557469367981,0.3235491216182709,0.7336201071739197,0.5033652186393738,0.44798439741134644,-0.17310360074043274,0.9641212224960327,0.5096710920333862,0.4256858825683594,-0.010965166613459587,0.14367325603961945,-178.7864836882678,0.521044909954071,0.42523521184921265,167.94158167945272,170.16295611433858,0.6368635052828833,-0.00018847794093304482,-0.003704663719237842,-0.4683901460410154,-0.019438002522384968,-173.0572455130041,0.33416723712063057,17,1762115200.8346605
0.47453442215919495,0.14584697782993317,-0.13708895444869995,0.9996730089187622,0.5177624821662903,0.2164178192615509,-0.23413881659507751,0.9999767541885376,0.5183020830154419,0.21556544303894043,-0.004962440580129623,0.9985560178756714,0.5206337571144104,0.4284517168998718,-0.06574837863445282,0.9994609355926514,0.5250216722488403,0.4225461781024933,0.06560806930065155,0.9979375004768372,0.5138262510299683,0.5588497519493103,0.053813040256500244,0.9483775496482849,0.529096245765686,0.5334538817405701,0.18757444620132446,0.666131854057312,0.5251966118812561,0.6585465669631958,0.18703939020633698,0.9559119939804077,0.5439621806144714,0.6277759671211243,0.3343955874443054,0.7307276725769043,0.5026542544364929,0.4476248025894165,-0.15799856185913086,0.9646691083908081,0.5133155584335327,0.424898624420166,-0.009010924957692623,0.13550718128681183,-178.68878062716905,0.5228277146816254,0.42549894750118256,167.69622763655994,169.8361273458438,0.639669342299831,0.022735737762737424,0.0033633658971154753,0.29234775328987805,0.09013711113337525,-57.66394850544563,0.3655292360125274,18,1762115200.9130747
0.476839154958725,0.14595399796962738,-0.1141950711607933,0.9996451139450073,0.5159844160079956,0.21680158376693726,-0.21743392944335938,0.9999712705612183,0.524773359298706,0.21544623374938965,0.010143956169486046,0.9985466003417969,0.5204054713249207,0.4289066791534424,-0.06587068736553192,0.9994133114814758,0.5280488133430481,0.42246007919311523,0.06571614742279053,0.9978263974189758,0.5131887197494507,0.5584166049957275,0.05366843193769455,0.9431635141372681,0.5322467684745789,0.5340068936347961,0.1838032305240631,0.6482178568840027,0.5248229503631592,0.659491240978241,0.18804612755775452,0.9546229243278503,0.5459190607070923,0.6327579617500305,0.32218724489212036,0.7250387072563171,0.501502275466919,0.4473399221897125,-0.13716724514961243,0.9626156091690063,0.5177277326583862,0.4244477450847626,-0.007913852110505104,0.12880197167396545,-178.94796464278235,0.5242271423339844,0.4256833791732788,167.88397414370723,171.5444719923667,0.6244900192759381,0.01826642994516609,0.0024073471839270045,-0.05833691939374833,-0.012478707864095478,-8.766571025478713,0.3041074110896216,19,1762115200.9896867
0.47996148467063904,0.14618855714797974,-0.07662765681743622,0.9996208548545837,0.5127846002578735,0.21731646358966827,-0.2015642672777176,0.9999653100967407,0.5321582555770874,0.21546505391597748,0.02319815382361412,0.998569667339325,0.5198318958282471,0.4292828142642975,-0.06577730923891068,0.9993615746498108,0.5318137407302856,0.42250484228134155,0.06562311947345734,0.9977177977561951,0.513506293296814,0.5575446486473083,0.05821831896901131,0.9413093328475952,0.5367844104766846,0.5347951054573059,0.18136614561080933,0.6445155143737793,0.5244392156600952,0.6594384908676147,0.18843065202236176,0.9537349939346313,0.5475634932518005,0.6360960006713867,0.3116801679134369,0.7296618223190308,0.5005009770393372,0.44715768098831177,-0.11261940002441406,0.9595985412597656,0.5249000787734985,0.422132283449173,0.0060554975643754005,0.1259465366601944,-179.08352585537844,0.5258228182792664,0.4258938282728195,170.16348573713418,173.4137549604821,0.601201691621964,0.020243334391966485,0.0026698350044613824,0.025079739965920153,0.003330017439071498,-5.458794605366618,0.3086846798115169,20,1762115201.0685115
0.4812796711921692,0.14626023173332214,-0.09290081262588501,0.9996074438095093,0.5116506814956665,0.2190665602684021,-0.20922315120697021,0.999959409236908,0.5322809815406799,0.215766042470932,0.01732167974114418,0.99856036901474,0.5194798111915588,0.4294918477535248,-0.06598104536533356,0.9993115663528442,0.5316097736358643,0.4226864278316498,0.06582096219062805,0.9975870847702026,0.5136849880218506,0.5566374659538269,0.06159130483865738,0.9383144974708557,0.5362950563430786,0.5355938673019409,0.182946115732193,0.6371281743049622,0.5243357419967651,0.6599887013435364,0.1955062299966812,0.9527186751365662,0.5486512780189514,0.6377058625221252,0.31550315022468567,0.7321333885192871,0.5002728700637817,0.44711264967918396,-0.11724349111318588,0.9566324353218079,0.5242975950241089,0.4220277667045593,0.004143629688769579,0.12181740999221802,-179.01741283274822,0.5255447924137115,0.4260891377925873,170.92842843864346,173.14675959354363,0.6140266324534542,-0.003850541692669896,0.0027049549772657482,-0.3336900838948205,0.00048639690144938806,-9.08938273036857,0.31109258837568987,21,1762115201.1407158
0.48324114084243774,0.14674916863441467,-0.05889768525958061,0.999627947807312,0.5077522993087769,0.2235446572303772,-0.19046913087368011,0.999959409236908,0.5371649861335754,0.21783095598220825,0.023178961127996445,0.9986549615859985,0.5192652940750122,0.4324718117713928,-0.06518696248531342,0.999329149723053,0.5364006161689758,0.4252466857433319,0.0649966448545456,0.997663140296936,0.5138533115386963,0.5565131902694702,0.0705939382314682,0.941152036190033,0.5385599136352539,0.5374444127082825,0.18528933823108673,0.6471990942955017,0.5244563817977905,0.6608759760856628,0.20206868648529053,0.9541281461715698,0.5503674745559692,0.6420071721076965,0.3163362443447113,0.7409988045692444,0.49889692664146423,0.44732174277305603,-0.09626635909080505,0.9556211233139038,0.5302606821060181,0.4241763949394226,0.05111638456583023,0.12008004635572433,-178.52113704347545,0.527832955121994,0.42885924875736237,173.36276704586527,174.48054767780852,0.599029718954671,0.029814568590050265,0.03609431403736588,0.4386535695134928,0.43506055416067885,-10.993343920091856,0.4795788908228966,22,1762115201.2174623
0.4879838526248932,0.1464322954416275,-0.02839227393269539,0.9996504187583923,0.5053128004074097,0.22432011365890503,-0.17327821254730225,0.9999601244926453,0.543907642364502,0.2192283421754837,0.020554717630147934,0.9987524747848511,0.5191847085952759,0.43251121044158936,-0.06104404479265213,0.9993668794631958,0.5410521030426025,0.42641088366508484,0.06080993264913559,0.997806966304779,0.5139731764793396,0.5564359426498413,0.07802698761224747,0.9456353783607483,0.5410637259483337,0.539408266544342,0.18526718020439148,0.6675372123718262,0.5244075059890747,0.6607103943824768,0.20194058120250702,0.956818163394928,0.5503535270690918,0.6450913548469543,0.3128356337547302,0.7561914324760437,0.4975542426109314,0.4472636878490448,-0.08397848904132843,0.9548811912536621,0.537583589553833,0.4238997995853424,0.09306778758764267,0.11994859576225281,-178.48078102790186,0.5301184058189392,0.4294610470533371,174.44828786273905,175.84669388376776,0.5836273455674145,0.03419008809787067,0.009002835538752363,0.06545728492252793,-0.4052855035583288,-7.515561126443516,0.5584657768076122,23,1762115201.2843077
0.4940410256385803,0.14582103490829468,-0.015412509441375732,0.9996669292449951,0.5028397440910339,0.22631560266017914,-0.17052212357521057,0.9999600052833557,0.5508641004562378,0.221623957157135,0.018462928012013435,0.9988473653793335,0.5185726284980774,0.43347591161727905,-0.05896235257387161,0.9994038939476013,0.5436866283416748,0.4303218126296997,0.0587291345000267,0.9979503154754639,0.5138107538223267,0.5565321445465088,0.08476702123880386,0.9496742486953735,0.5427249073982239,0.5416824221611023,0.18779906630516052,0.687962532043457,0.5245966911315918,0.6602262258529663,0.20923380553722382,0.9593290090560913,0.549415111541748,0.6465679407119751,0.3151034712791443,0.7717233300209045,0.49544253945350647,0.4480076730251312,-0.08825609087944031,0.9538366198539734,0.5537204146385193,0.4237045347690582,0.10024865716695786,0.13261131942272186,-178.82142538198096,0.5311296284198761,0.4318988621234894,174.67296162427266,177.01181961075804,0.5801126779069523,0.012357346595693229,0.02979059776765814,-0.26680055768791167,0.25403069766582587,-5.579693258592099,0.48949210736105614,24,1762115201.3661394
0.5023325681686401,0.14054244756698608,0.007188776042312384,0.9996763467788696,0.5018872618675232,0.2274429053068161,-0.15623687207698822,0.9999539852142334,0.5560137033462524,0.22276076674461365,-0.0019370841328054667,0.9989171028137207,0.5184202790260315,0.43344032764434814,-0.052053987979888916,0.9994362592697144,0.5448140501976013,0.4305204749107361,0.051809053868055344,0.9980767965316772,0.5136947631835938,0.5559599995613098,0.09111417829990387,0.952153205871582,0.5433804988861084,0.5418898463249207,0.1874365508556366,0.7093626260757446,0.524684488773346,0.660162627696991,0.21234078705310822,0.9614065885543823,0.5491338968276978,0.6488248705863953,0.30850860476493835,0.7866852879524231,0.49473580718040466,0.4454777240753174,-0.07380673289299011,0.9419184327125549,0.5588529109954834,0.42186254262924194,0.09472055733203888,0.1452578753232956,-179.26149351128763,0.5316171646118164,0.4319804012775421,174.60911275337315,176.71858030481087,0.5739946989929513,0.007301716811757733,0.0012211930556249866,-0.07571699824062426,-0.4278773681550683,-4.943990819009332,0.3185025180539764,25,1762115201.4329095
0.504025399684906,0.1400279551744461,0.0053110504522919655,0.9996849894523621,0.5010480880737305,0.2282865345478058,-0.15828344225883484,0.9999491572380066,0.5575827360153198,0.22394563257694244,-0.005319619085639715,0.998985767364502,0.5184139013290405,0.4333699941635132,-0.05150868743658066,0.9994621276855469,0.545993447303772,0.4304434359073639,0.051283515989780426,0.9981856942176819,0.5134605169296265,0.555866539478302,0.09165360033512115,0.9541181325912476,0.5441163182258606,0.5420719981193542,0.18726907670497894,0.7276028990745544,0.5250380635261536,0.6601150035858154,0.21437259018421173,0.9629086256027222,0.5494740009307861,0.6501153707504272,0.30932965874671936,0.7993123531341553,0.49454981088638306,0.44443872570991516,-0.08097276836633682,0.9308096170425415,0.5634706020355225,0.42329269647598267,0.0791708305478096,0.16327305138111115,-179.1959091011753,0.5322036743164062,0.43190671503543854,174.358719608165,176.68467356021068,0.5763956463028118,0.00788067504709184,-0.00099008989095196,0.007779209248884481,-0.02971204432386202,-4.390728777514558,0.3410548703657675,26,1762115201.5073333
0.509311318397522,0.13650883734226227,0.022629130631685257,0.9996971487998962,0.5012949705123901,0.22806398570537567,-0.148097425699234,0.9999452829360962,0.5602373480796814,0.22376130521297455,-0.017002439126372337,0.9990366101264954,0.5184174180030823,0.43054357171058655,-0.046434421092271805,0.9994942545890808,0.547356367111206,0.42980384826660156,0.046215180307626724,0.9982995390892029,0.5134962797164917,0.5528789162635803,0.09348763525485992,0.956625759601593,0.5453373193740845,0.5419684052467346,0.1809682697057724,0.7470250725746155,0.5252407193183899,0.6601000428199768,0.21228039264678955,0.9648710489273071,0.549686074256897,0.6504071354866028,0.2990989685058594,0.8128232359886169,0.49355465173721313,0.43765658140182495,-0.06799640506505966,0.9243592023849487,0.5611022710800171,0.41012459993362427,0.09477495402097702,0.17522920668125153,-179.4051499738803,0.5328868925571442,0.43017370998859406,174.19568907987036,176.41603234772865,0.5693907946126858,0.008694329742078963,-0.022053447088414033,0.01035420571729498,-0.2680428624858356,-4.175076563914001,0.2635237819739235,27,1762115201.5859153
0.5149546265602112,0.1324726790189743,0.024727310985326767,0.9997140169143677,0.5024550557136536,0.22738611698150635,-0.14517280459403992,0.9999428391456604,0.5631551742553711,0.22197596728801727,-0.016184482723474503,0.9990991353988647,0.518478512763977,0.42597466707229614,-0.044096991419792175,0.9995208382606506,0.5494711995124817,0.42611733078956604,0.04387889802455902,0.9984118938446045,0.5139888525009155,0.5471111536026001,0.09348520636558533,0.9586231708526611,0.5474290251731873,0.5391848087310791,0.17328529059886932,0.7655941247940063,0.5253244042396545,0.6595451831817627,0.2095569670200348,0.9663857221603394,0.5506377816200256,0.6508662104606628,0.28646624088287354,0.8255495429039001,0.49284857511520386,0.43190884590148926,-0.06584657728672028,0.9210309386253357,0.561847984790802,0.3954292833805084,0.1172427162528038,0.18181978166103363,-179.66716911208798,0.5339748561382294,0.4260459989309311,173.92011052794817,176.04094150682647,0.5688900610306796,0.01674384386477968,-0.06352579320669424,0.12388264644244956,-0.6382626221899262,-5.0932653432557045,0.16082996988566964,28,1762115201.6508923
0.5217444896697998,0.13033999502658844,0.037865571677684784,0.9997294545173645,0.5030989050865173,0.226105198264122,-0.13678671419620514,0.9999384880065918,0.5669704675674438,0.22004646062850952,-0.015839572995901108,0.9991574883460999,0.5190736055374146,0.41951191425323486,-0.04132135212421417,0.9995389580726624,0.5515386462211609,0.4202059507369995,0.04112056642770767,0.9985117316246033,0.5142475366592407,0.5419891476631165,0.08890028297901154,0.9600581526756287,0.5485454797744751,0.5368489623069763,0.15740559995174408,0.7833613157272339,0.5252546668052673,0.6574650406837463,0.19909919798374176,0.967470645904541,0.5506727695465088,0.6515851616859436,0.25946226716041565,0.8375626802444458,0.49246111512184143,0.4237149655818939,-0.061220090836286545,0.9168452620506287,0.5635539293289185,0.3901344835758209,0.1142287626862526,0.18467363715171814,-179.9209671428321,0.5353061258792877,0.4198589324951172,173.67953471799228,176.22548626421826,0.5582766811462773,0.016359617125629555,-0.07603120156571827,-0.004721659441405172,-0.15367561241994274,-5.418757128244096,0.041326259970411956,29,1762115201.7322676
0.5273487567901611,0.12612862884998322,0.05490605905652046,0.9997355341911316,0.5036747455596924,0.2220291793346405,-0.12388283014297485,0.9999301433563232,0.5702447295188904,0.2183719277381897,-0.013102756813168526,0.9991874098777771,0.5200903415679932,0.4151524305343628,-0.03973989561200142,0.9995511770248413,0.5530856847763062,0.4162043631076813,0.03958238288760185,0.9985812902450562,0.5143767595291138,0.5386218428611755,0.08864077180624008,0.9621915221214294,0.5488811135292053,0.5352439880371094,0.15374130010604858,0.8008449077606201,0.5252605676651001,0.6568617224693298,0.1918381154537201,0.9689703583717346,0.5505688786506653,0.653168797492981,0.26013311743736267,0.8496946096420288,0.49289679527282715,0.4122752845287323,-0.05099844932556152,0.9052373170852661,0.5605462193489075,0.38317129015922546,0.11647604405879974,0.17832453548908234,179.8910453924138,0.5365880131721497,0.41567839682102203,172.32359477441963,177.24800325317747,0.5559684552121529,0.016137540331657537,-0.05262831094770016,-0.0027957007136310105,0.2946164560087517,-3.1445800490313816,0.05912788028201641,30,1762115201.8117027
0.5297529697418213,0.1246475949883461,0.05574795603752136,0.9997504949569702,0.504243016242981,0.2195071280002594,-0.12204430997371674,0.999930202960968,0.5717832446098328,0.21718350052833557,-0.013860082253813744,0.999235987663269,0.5207119584083557,0.413433700799942,-0.038967568427324295,0.9995737671852112,0.5528721809387207,0.41393640637397766,0.038799580186605453,0.9986652135848999,0.5149489641189575,0.5373546481132507,0.08368963748216629,0.9642689228057861,0.5488429069519043,0.5336217880249023,0.15249237418174744,0.8163601160049438,0.5252649188041687,0.6565737724304199,0.18430380523204803,0.9703423976898193,0.5502185821533203,0.6533641815185547,0.2594555914402008,0.8602971434593201,0.49315986037254333,0.4126952290534973,-0.04279469698667526,0.9034398794174194,0.56316739320755,0.38703906536102295,0.11678440868854523,0.18387193977832794,179.64185108112642,0.5367920696735382,0.41368505358695984,172.7140428627887,177.37375323134614,0.55579163776412,0.0025105452433472567,-0.024524474057821374,-0.16765546536021073,0.3457667535392305,-1.9704043295148232,0.20884203873513288,31,1762115201.8929825
0.5341504216194153,0.12246054410934448,0.05055928975343704,0.99976646900177,0.5043643712997437,0.2169416844844818,-0.12067345529794693,0.999927282333374,0.5745459794998169,0.2171371877193451,-0.02909650281071663,0.9992866516113281,0.5214546918869019,0.4126187264919281,-0.03788909316062927,0.9995980858802795,0.5536118745803833,0.41262316703796387,0.03772915527224541,0.9987518787384033,0.5151572227478027,0.5367223024368286,0.08421029895544052,0.9662167429924011,0.5506521463394165,0.5318666100502014,0.1576971411705017,0.829659640789032,0.525269627571106,0.6560314297676086,0.18804346024990082,0.9712998867034912,0.550277054309845,0.6527678966522217,0.2664141356945038,0.8697071671485901,0.4933692514896393,0.4092883765697479,-0.0417921356856823,0.8978399634361267,0.5722226500511169,0.38748621940612793,0.08383601158857346,0.21363669633865356,179.43699808171166,0.5375332832336426,0.412620946764946,173.26853604735632,176.63770151482512,0.5605216027131857,0.009530111950364175,-0.01368169403094882,0.09025368687467165,0.13941043859844907,0.15960707586637324,0.3946668942339839,32,1762115201.9707584
0.5383545756340027,0.12264858931303024,0.060749638825654984,0.9997842311859131,0.5044463872909546,0.21485179662704468,-0.10502276569604874,0.9999270439147949,0.577390193939209,0.21831993758678436,-0.03434870392084122,0.9993395209312439,0.5216151475906372,0.411967396736145,-0.034435443580150604,0.999626874923706,0.5543597340583801,0.4123745262622833,0.03430241718888283,0.9988458752632141,0.5151351094245911,0.5375922918319702,0.0746769979596138,0.9683398008346558,0.5523303747177124,0.5319057703018188,0.14989490807056427,0.8423835635185242,0.5249024629592896,0.6561676859855652,0.17055264115333557,0.9723117351531982,0.5504940152168274,0.653189480304718,0.24608345329761505,0.8785367012023926,0.49354156851768494,0.40394890308380127,-0.023444373160600662,0.8923046588897705,0.578792154788971,0.40029144287109375,0.0597151517868042,0.26145464181900024,179.14148490549766,0.5379874408245087,0.4121709614992142,173.74857611688998,174.35501128373812,0.5521166364748613,0.006177899506059928,-0.006121143424240361,-0.04560010009825315,0.1028460666475957,2.722099648886896,0.7389012970590194,33,1762115202.0442717
0.5416638255119324,0.12220847606658936,0.06479477882385254,0.99980229139328,0.5054470300674438,0.21246549487113953,-0.09872151911258698,0.9999262094497681,0.5788228511810303,0.21847568452358246,-0.04018903896212578,0.9993935227394104,0.522759735584259,0.41080495715141296,-0.030995747074484825,0.9996545910835266,0.5550641417503357,0.4118254780769348,0.03086574748158455,0.9989401698112488,0.5148800015449524,0.5360238552093506,0.0751049742102623,0.9706845879554749,0.5531322360038757,0.5321035385131836,0.14660465717315674,0.855750322341919,0.52234947681427,0.6556658148765564,0.1772080510854721,0.9738125205039978,0.5505132079124451,0.6528688073158264,0.2429213523864746,0.8881397247314453,0.4940721392631531,0.4013354778289795,-0.015471252612769604,0.8821845054626465,0.5841800570487976,0.40426093339920044,0.05037713050842285,0.307739794254303,179.05717229397476,0.5389119386672974,0.4113152176141739,174.50560548396237,174.6438913521204,0.5515590025698528,0.011211772053444672,-0.010377964048309542,0.06104787803195584,-0.05162424432003153,4.682625128364963,1.3284026961188597,34,1762115202.1267295
0.5451850891113281,0.12189719080924988,0.07736967504024506,0.9998186230659485,0.5058242082595825,0.212258443236351,-0.07584752887487411,0.9999244809150696,0.5791741609573364,0.21865463256835938,-0.04842656850814819,0.9994451403617859,0.5235762596130371,0.41089409589767456,-0.01903737336397171,0.9996845722198486,0.556041955947876,0.4121520221233368,0.018891265615820885,0.9990351796150208,0.5146588087081909,0.5366536378860474,0.08346448838710785,0.9731549620628357,0.5545947551727295,0.5328236222267151,0.1414729356765747,0.8687967658042908,0.517707347869873,0.6555522084236145,0.18069231510162354,0.9756138324737549,0.5518821477890015,0.6526347398757935,0.246076300740242,0.897483229637146,0.49482089281082153,0.39925652742385864,0.002819035667926073,0.865780770778656,0.5870314836502075,0.40472111105918884,0.03430847078561783,0.3498622179031372,179.2139383223126,0.5398091077804565,0.4115230590105057,175.6853430606959,175.61803466917883,0.549400421870074,0.01199385486256311,0.0027785391911877197,0.010455317247873097,0.17588344052296243,4.983642967348728,15.920827832701193,35,1762115202.201532
0.5457040667533875,0.12232798337936401,0.07952602952718735,0.9998334050178528,0.5060185194015503,0.21257604658603668,-0.07864253222942352,0.9999229311943054,0.578937292098999,0.21867279708385468,-0.046633247286081314,0.9994919300079346,0.5239900350570679,0.41130346059799194,-0.018404468894004822,0.9997115135192871,0.5565657019615173,0.41241809725761414,0.01824512518942356,0.9991210103034973,0.5142875909805298,0.536756694316864,0.0848560482263565,0.9754849076271057,0.5558775067329407,0.5336331129074097,0.14262276887893677,0.8809247612953186,0.5165518522262573,0.6550995111465454,0.18234500288963318,0.9774447083473206,0.5531593561172485,0.6524686813354492,0.24767562747001648,0.906378448009491,0.49490490555763245,0.3992353081703186,-0.008449004963040352,0.8528569340705872,0.5879097580909729,0.4048212170600891,0.03240463137626648,0.3862077295780182,179.35767474617603,0.5402778685092926,0.41186077892780304,175.7059532873776,175.6460233423014,0.5485611002406092,0.003084669258502697,0.0022223581942496383,-0.058626692170604636,-0.0036599363339975817,4.779393134548517,9.651627723422862,36,1762115202.3534966
0.5470045804977417,0.12278865277767181,0.08060215413570404,0.9998470544815063,0.506088137626648,0.21274837851524353,-0.06091909483075142,0.999921977519989,0.5793788433074951,0.21902024745941162,-0.05204043909907341,0.999535858631134,0.5238447785377502,0.41135460138320923,-0.009554713033139706,0.9997368454933167,0.5561525225639343,0.41266143321990967,0.009395329281687737,0.9992009401321411,0.5132609605789185,0.5368351340293884,0.09801548719406128,0.9772819876670837,0.555751383304596,0.5358544588088989,0.13754090666770935,0.8911145329475403,0.5122747421264648,0.6533228754997253,0.19796492159366608,0.9786476492881775,0.5532115697860718,0.6523323655128479,0.245087668299675,0.9135056138038635,0.4961312413215637,0.39696934819221497,0.019296512007713318,0.8385987281799316,0.5880693793296814,0.40538570284843445,0.02541864849627018,0.42611876130104065,179.20109284982428,0.5399986505508423,0.41200801730155945,176.66511199520963,176.4653242702038,0.5486385959847128,-0.0032728438844035314,0.0017258496329272757,-0.07451937592143824,-0.005819808358662695,4.891183123257629,1.5503487149359907,37,1762115202.43881
0.5490133762359619,0.12293262779712677,0.07738237082958221,0.9998591542243958,0.5061497688293457,0.21253719925880432,-0.050650931894779205,0.9999186396598816,0.5791416168212891,0.21905764937400818,-0.062449466437101364,0.999575138092041,0.5237447023391724,0.4104369580745697,-0.0013916436582803726,0.9997587203979492,0.5563246011734009,0.4124712347984314,0.0012267999118193984,0.9992721080780029,0.512972354888916,0.534037709236145,0.10858205705881119,0.9789162874221802,0.5559471249580383,0.536237895488739,0.1284857988357544,0.9003550410270691,0.5078694820404053,0.6482229828834534,0.212863951921463,0.9799016118049622,0.5534343719482422,0.6522443890571594,0.23860105872154236,0.9203851222991943,0.49767717719078064,0.3965469002723694,0.022773968055844307,0.8182597756385803,0.5887823700904846,0.4059908092021942,0.01850411295890808,0.46105149388313293,179.23543239340248,0.5400346517562866,0.41145409643650055,177.95652474113848,177.53466800983364,0.54807965768908,0.0005017694851047568,-0.007720313356704936,0.05260895527001542,-0.1316566009672067,5.1047513490099155,0.6855262039900445,38,1762115202.5105586
0.549042284488678,0.12302596122026443,0.06859146058559418,0.9998681545257568,0.5061928033828735,0.21269382536411285,-0.0575820729136467,0.9999149441719055,0.5779450535774231,0.22030244767665863,-0.0753101333975792,0.9996084570884705,0.5230549573898315,0.4106060862541199,0.0010459207696840167,0.9997782707214355,0.5558134317398071,0.4128500521183014,-0.0011932856868952513,0.9993335008621216,0.5128688812255859,0.5348807573318481,0.11604107916355133,0.9797791838645935,0.5556066036224365,0.5386804938316345,0.1326640546321869,0.9063897132873535,0.5070531964302063,0.6457436680793762,0.22808417677879333,0.9801859855651855,0.5532879829406738,0.6533578634262085,0.2439040243625641,0.9241796135902405,0.5025473237037659,0.3959682881832123,0.01609846204519272,0.7878531813621521,0.5862643122673035,0.4122828245162964,0.013554709032177925,0.48956263065338135,179.22680929242856,0.5394341945648193,0.41172806918621063,177.1068672501605,177.208569541557,0.5528183739047926,-0.008056905393343975,0.0036761530316165958,-0.11483988328884584,0.15291723175928312,6.053035204027881,0.6476487203512328,39,1762115202.5850856
0.5494077801704407,0.12299312651157379,0.04906647279858589,0.9998729825019836,0.5057017207145691,0.21274179220199585,-0.05790910869836807,0.9999035596847534,0.5772242546081543,0.22029922902584076,-0.09208140522241592,0.9996381998062134,0.5228019952774048,0.41085246205329895,0.004460010211914778,0.99979168176651,0.5552020072937012,0.41291454434394836,-0.00459346454590559,0.9993829131126404,0.5128931403160095,0.5295715928077698,0.12352283298969269,0.9793766736984253,0.5552191138267517,0.5381420850753784,0.1326446682214737,0.9084821939468384,0.5061817765235901,0.6381158828735352,0.24355368316173553,0.9794724583625793,0.553152859210968,0.6532623171806335,0.24871286749839783,0.9258351922035217,0.5057621598243713,0.394785612821579,0.008405429311096668,0.7417344450950623,0.5842834115028381,0.4135033190250397,-0.013692520558834076,0.5209957957267761,179.27828360305426,0.539002001285553,0.41188350319862366,176.9961396154824,177.4629520108905,0.5589598297205726,-0.0065113614321941965,0.002341746348752505,0.02328494176835452,-0.020103978072987545,6.031783103843305,0.5606135167581598,40,1762115202.651461
0.5493913888931274,0.12312128394842148,0.042901813983917236,0.9998774528503418,0.5054457187652588,0.21282942593097687,-0.05996508523821831,0.999893069267273,0.577142596244812,0.22042833268642426,-0.0944291427731514,0.9996649622917175,0.5225876569747925,0.41099169850349426,0.004325433634221554,0.9998037219047546,0.5547486543655396,0.4129626750946045,-0.004452396184206009,0.9994276762008667,0.5127051472663879,0.527247965335846,0.12500911951065063,0.9791717529296875,0.5549476742744446,0.5380085706710815,0.13422229886054993,0.9101734161376953,0.5055498480796814,0.6353684663772583,0.24666671454906464,0.979005753993988,0.5530517101287842,0.6531720757484436,0.2549360394477844,0.9275134205818176,0.5066764950752258,0.39332935214042664,0.0094123724848032,0.6991751790046692,0.5832771062850952,0.4140991270542145,-0.01742434874176979,0.5487253665924072,179.2298384247716,0.538668155670166,0.4119771867990494,177.49861553316117,178.18033084098437,0.5614464602023139,-0.004424939562957228,0.0012417244702870958,0.027654371507933748,-0.014580183491396548,6.049997593256775,0.5801227112175088,41,1762115202.7269073
0.5519548654556274,0.12441575527191162,0.025869909673929214,0.999875009059906,0.5049756765365601,0.212947279214859,-0.04273584112524986,0.9998710751533508,0.5712467432022095,0.2182169407606125,-0.11594748497009277,0.9996885657310486,0.5224496722221375,0.4110803008079529,0.015315422788262367,0.9998078942298889,0.5533367991447449,0.41300705075263977,-0.015408912673592567,0.9994585514068604,0.5134621858596802,0.5212419033050537,0.1441570520401001,0.9755115509033203,0.5548499822616577,0.5357488989830017,0.12266192585229874,0.9120997190475464,0.505203366279602,0.6318336725234985,0.2746972441673279,0.9765638709068298,0.5529947280883789,0.6521841883659363,0.2521795928478241,0.9298684000968933,0.5096057057380676,0.39177653193473816,0.014585873112082481,0.6446175575256348,0.5826916098594666,0.4173114001750946,-0.05431250482797623,0.5786646604537964,179.9364303357638,0.5378932356834412,0.4120436757802963,179.39429376275731,178.78703999287995,0.5699683147366837,-0.010530740918339576,0.000903549072718083,-0.0829745177229611,-0.004595619622365251,4.546409562388651,0.04309462173924357,42,1762115202.8004937
0.5522969961166382,0.12705622613430023,0.017670955508947372,0.9998700618743896,0.503565788269043,0.2130352258682251,-0.03532848879694939,0.9998487234115601,0.5667888522148132,0.21824641525745392,-0.12122152745723724,0.9997094869613647,0.5213804244995117,0.41113629937171936,0.02311549335718155,0.9998045563697815,0.5519967079162598,0.41332629323005676,-0.023180149495601654,0.9994766712188721,0.514178454875946,0.5161287784576416,0.16482147574424744,0.9711647033691406,0.5547857880592346,0.5357725024223328,0.12003155052661896,0.9164333343505859,0.5033741593360901,0.6236018538475037,0.3030409812927246,0.9749348759651184,0.5528062582015991,0.6521686315536499,0.25270530581474304,0.9344017505645752,0.5090392827987671,0.3889164328575134,0.03292739391326904,0.5944803357124329,0.5813553333282471,0.4202948808670044,-0.0659426599740982,0.6101097464561462,-179.55955999509914,0.5366885662078857,0.41223129630088806,178.15528950176386,178.28165485043286,0.573792149983829,-0.01817549047115447,0.002830730796624436,-0.11534041118414418,0.029076417863823888,4.711978587543815,0.2363939626852943,43,1762115202.8667736
0.5535715818405151,0.13199792802333832,0.00023559920373372734,0.9998437166213989,0.5020731091499329,0.21370889246463776,-0.026132043451070786,0.9998043179512024,0.5616866946220398,0.22033117711544037,-0.1369548887014389,0.9997266530990601,0.5200970768928528,0.4139496982097626,0.03368920832872391,0.9997775554656982,0.5497922301292419,0.41743436455726624,-0.03376080095767975,0.9994732737541199,0.5149832963943481,0.5148842930793762,0.1820399910211563,0.957279622554779,0.5545207262039185,0.5363150238990784,0.11003508418798447,0.9186205863952637,0.5032271146774292,0.6169177889823914,0.3262408673763275,0.9682744741439819,0.5523627996444702,0.6519553065299988,0.2493623048067093,0.9375145435333252,0.5090933442115784,0.3866035044193268,0.04460799694061279,0.5463118553161621,0.5769995450973511,0.42411503195762634,-0.07506819814443588,0.639133870601654,-179.11621461723828,0.5349446535110474,0.4156920313835144,177.5421480512259,177.8175832219103,0.5794852869518561,-0.03149041876724772,0.06249165866616152,-0.24043214357003542,1.0773174632310167,6.338817897711814,0.4404610203077683,44,1762115202.9221528
0.5544506311416626,0.1421939879655838,-0.004404271952807903,0.9998049736022949,0.5011216402053833,0.21777239441871643,-0.00468195416033268,0.9997532367706299,0.5533653497695923,0.22578945755958557,-0.14431452751159668,0.9997408390045166,0.5182071924209595,0.42371127009391785,0.04366355389356613,0.9997467994689941,0.5465269088745117,0.4272492229938507,-0.04375496879220009,0.9994684457778931,0.5150256156921387,0.5169214606285095,0.19307853281497955,0.9443252086639404,0.5544399619102478,0.5392680764198303,0.09669079631567001,0.923494815826416,0.5023201704025269,0.6149327754974365,0.33772534132003784,0.9631871581077576,0.5520243644714355,0.6520001888275146,0.23897254467010498,0.94167160987854,0.5111488103866577,0.3876209259033203,0.04436412453651428,0.49922871589660645,0.5715846419334412,0.42943957448005676,-0.06927187740802765,0.6638553142547607,-178.5591693110556,0.5323670506477356,0.4254802465438843,176.1733115276928,176.67988135600459,0.5725357783956905,-0.032329809661936874,0.12276954590989968,-0.010528133811271623,0.7560406799478474,8.724272721018254,0.6775826468595468,45,1762115203.0018811
0.5537897348403931,0.1440076231956482,-0.006317887455224991,0.9997562170028687,0.5003042221069336,0.2192251980304718,-0.001683889888226986,0.9996984004974365,0.5530582070350647,0.2287929505109787,-0.1492936760187149,0.9997544288635254,0.517855167388916,0.42657873034477234,0.04631628841161728,0.9997195601463318,0.5454201102256775,0.4298586845397949,-0.04640607535839081,0.9994643330574036,0.5157135725021362,0.5179490447044373,0.19452688097953796,0.932318925857544,0.5543106198310852,0.5416723489761353,0.0928381010890007,0.9278506636619568,0.5014294385910034,0.6143674254417419,0.34103453159332275,0.9583236575126648,0.5519999265670776,0.6524660587310791,0.23585471510887146,0.9456073641777039,0.5122157335281372,0.38770592212677,0.06025952845811844,0.45736807584762573,0.5701581239700317,0.43151384592056274,-0.08153171092271805,0.6897050738334656,-178.6096324573238,0.5316376388072968,0.42821870744228363,175.67611880573054,176.25413134525795,0.5719609094031116,-0.009827044025157232,0.03689407590854485,0.30316983676517373,-1.1569623326605976,10.27973729632035,0.5972737058709157,46,1762115203.076106
0.5536192655563354,0.14885853230953217,-0.008185308426618576,0.9996985793113708,0.500103235244751,0.2203461080789566,0.009877278469502926,0.9996252059936523,0.5438838601112366,0.22888028621673584,-0.14709751307964325,0.9997713565826416,0.5154955387115479,0.4284437298774719,0.04994862526655197,0.9996765851974487,0.5414932370185852,0.4317222535610199,-0.050117127597332,0.9994704723358154,0.5156711935997009,0.5188122391700745,0.19515064358711243,0.9159826040267944,0.5529371500015259,0.5415699481964111,0.08611151576042175,0.9317801594734192,0.5017479062080383,0.614966869354248,0.3394481837749481,0.9493728280067444,0.5517916083335876,0.6525934934616089,0.22938093543052673,0.9488438367843628,0.5117385983467102,0.39421355724334717,0.04274418205022812,0.4197382628917694,0.566534161567688,0.43235427141189575,-0.08895187079906464,0.7097746729850769,-178.187828543052,0.5284943878650665,0.4300829917192459,174.99943285420332,175.72551958949865,0.5669961063625385,-0.03705371823013426,0.021976821313037343,-0.32095735685012683,-0.17584970424185292,11.030371559920779,0.8627050524378964,47,1762115203.1609356
0.5533285737037659,0.15431682765483856,-0.04793380945920944,0.9996789693832397,0.49953898787498474,0.22165916860103607,0.01854480803012848,0.9995844960212708,0.5341269969940186,0.23000682890415192,-0.16829219460487366,0.999790370464325,0.5121101140975952,0.4315168261528015,0.058144211769104004,0.9996298551559448,0.5361074805259705,0.4336654543876648,-0.05828724429011345,0.9994885325431824,0.5152260065078735,0.5193143486976624,0.2021692991256714,0.888018786907196,0.5514143705368042,0.5414679050445557,0.07657389342784882,0.9353971481323242,0.501240611076355,0.6162368059158325,0.35378140211105347,0.9362156391143799,0.5515633821487427,0.6526079177856445,0.2297649085521698,0.9519988894462585,0.5124691724777222,0.3973526954650879,0.04158132150769234,0.3825570046901703,0.56308513879776,0.43567413091659546,-0.12550480663776398,0.7320829033851624,-177.98459707018765,0.5241087973117828,0.43259114027023315,174.34439857750226,174.29402207391982,0.588750529890863,-0.05308152470327501,0.03035767877806731,-0.1939944905723846,0.10143872009016473,13.568603754304508,1.0515396844227682,48,1762115203.2435555
0.5531767010688782,0.15738967061042786,-0.066071517765522,0.9996391534805298,0.49910968542099,0.2219630628824234,0.01714075356721878,0.9994992017745972,0.5291543006896973,0.23206062614917755,-0.17229428887367249,0.9998062252998352,0.5067955255508423,0.4340297281742096,0.058014195412397385,0.9995463490486145,0.5310539603233337,0.4359598457813263,-0.05813552066683769,0.9994882941246033,0.5126370191574097,0.5214095711708069,0.19272470474243164,0.8607875108718872,0.5467995405197144,0.5415676236152649,0.0705544576048851,0.9393749833106995,0.5003665089607239,0.617813766002655,0.3388517498970032,0.9252563714981079,0.5502725839614868,0.6532212495803833,0.2191755771636963,0.955249547958374,0.5158652067184448,0.4161481559276581,0.04838494211435318,0.3479464650154114,0.5558105707168579,0.4403122365474701,-0.14404919743537903,0.7547048330307007,-178.6799121814608,0.518924742937088,0.43499478697776794,173.87193106521502,175.00003958063104,0.5903101151939667,-0.07010007157180716,0.03250270812243292,-0.23012902012673964,0.029005619867269967,18.576756613229602,1.089327345675412,49,1762115203.3175077
0.5504071712493896,0.15661591291427612,-0.07695891708135605,0.9996381402015686,0.49879035353660583,0.22202377021312714,0.02575632371008396,0.9994544386863708,0.523851752281189,0.23143169283866882,-0.16446973383426666,0.9998217821121216,0.5038876533508301,0.4324430227279663,0.0611756257712841,0.9994651079177856,0.5251892805099487,0.4342711567878723,-0.06129734590649605,0.9994926452636719,0.509642481803894,0.5215817093849182,0.18667227029800415,0.8307786583900452,0.5418034195899963,0.5370669960975647,0.052663277834653854,0.9435747265815735,0.4995463788509369,0.6187484264373779,0.3249206840991974,0.9159145355224609,0.5485988259315491,0.6532018184661865,0.18856053054332733,0.9584382772445679,0.5163289308547974,0.4206465780735016,0.04493648558855057,0.31610411405563354,0.548512876033783,0.4391517639160156,-0.11978737264871597,0.7706443667411804,-179.10792275709636,0.5145384669303894,0.4333570897579193,174.40998222690115,175.68821251085976,0.5846658309426854,-0.0665667118950701,-0.024853912256897332,0.05362273948648372,-0.8704517495558803,20.5758819325728,1.9483557831997476,50,1762115203.3834007
0.5494144558906555,0.15688493847846985,-0.08169237524271011,0.9996318817138672,0.4989756941795349,0.22228531539440155,0.02876937761902809,0.9993958473205566,0.523235023021698,0.23103207349777222,-0.1656341552734375,0.9998352527618408,0.5042697191238403,0.43142813444137573,0.06285800039768219,0.9993790984153748,0.5231826305389404,0.43356597423553467,-0.06298483908176422,0.9994900226593018,0.5098071098327637,0.5219269394874573,0.18387489020824432,0.7975106239318848,0.5413761734962463,0.5360218286514282,0.04399897903203964,0.9467790722846985,0.4997142255306244,0.6190225481987,0.3220517635345459,0.9030255079269409,0.5478426218032837,0.6534169316291809,0.17812618613243103,0.9608713388442993,0.5125647783279419,0.4164973795413971,0.031247828155755997,0.2873760461807251,0.5469529032707214,0.43903684616088867,-0.12083474546670914,0.7835856676101685,-179.2705266630955,0.5137261748313904,0.4324970543384552,174.20507916081104,174.4285226631177,0.5835219981061054,-0.012433262901289308,-0.01316404097466271,0.828587898272812,0.17892977552454284,19.826887986944023,1.4445982976201308,51,1762115203.4487329
0.5466762781143188,0.15720127522945404,-0.07874437421560287,0.9996231198310852,0.499106228351593,0.22270308434963226,0.03352255001664162,0.9993347525596619,0.5199704170227051,0.23083877563476562,-0.16269221901893616,0.9998465776443481,0.5014179348945618,0.43084627389907837,0.06313157826662064,0.9993001818656921,0.5196572542190552,0.4330914318561554,-0.06324262917041779,0.999483585357666,0.507644534111023,0.521882951259613,0.17780020833015442,0.7692713141441345,0.5391995310783386,0.53050297498703,0.03509021922945976,0.9499250650405884,0.4999023973941803,0.6199807524681091,0.29258713126182556,0.891089141368866,0.5465554594993591,0.6522395014762878,0.15851059556007385,0.9628579020500183,0.5125187039375305,0.4183692932128906,0.02828375995159149,0.2613094449043274,0.5404669046401978,0.437838077545166,-0.11353521049022675,0.7893522381782532,-179.72098349082955,0.5105375945568085,0.4319688528776169,174.21875596377416,174.36805558195184,0.5678889336386437,-0.05197936585669201,-0.008610596132021206,-0.6446697830101883,0.0742290157380355,21.302584067820376,5.148122182928503,52,1762115203.510076
0.5444236993789673,0.15745170414447784,-0.08092819154262543,0.999625563621521,0.4991856515407562,0.22370648384094238,0.031203851103782654,0.9992674589157104,0.515673041343689,0.23143672943115234,-0.16204117238521576,0.9998559951782227,0.498771995306015,0.43050673604011536,0.061770517379045486,0.99919593334198,0.5157504081726074,0.43255093693733215,-0.06186524033546448,0.9994668960571289,0.5053615570068359,0.5219624042510986,0.16502852737903595,0.7408044338226318,0.5363377332687378,0.5293077826499939,0.03205278515815735,0.9525431990623474,0.49969249963760376,0.6212820410728455,0.2726759910583496,0.8786133527755737,0.5423728227615356,0.6522480845451355,0.14595797657966614,0.9646210670471191,0.5081802606582642,0.4214690327644348,0.02360711619257927,0.23793140053749084,0.535460889339447,0.4387245178222656,-0.10796014219522476,0.7958486676216125,179.95276470636188,0.5072612017393112,0.43152883648872375,174.88165601174282,173.22912783708102,0.5608303649786368,-0.05152656907923105,-0.006919968429064758,0.007120960682155758,0.026587851327970435,25.11991069558025,0.9137501437771761,53,1762115203.5736625
0.5414429903030396,0.15810322761535645,-0.09535355865955353,0.9995812773704529,0.5023475885391235,0.22511938214302063,0.025368530303239822,0.99908846616745,0.5088968873023987,0.23146553337574005,-0.176693394780159,0.9998606443405151,0.4996584355831146,0.4303573966026306,0.0623263344168663,0.9991101026535034,0.5124831199645996,0.43219703435897827,-0.06240846961736679,0.999438464641571,0.5050192475318909,0.5249800086021423,0.1557198315858841,0.7235842347145081,0.5337997674942017,0.5297393202781677,0.028256017714738846,0.955757200717926,0.4997738301753998,0.625164806842804,0.2621512711048126,0.8735195398330688,0.5346413254737854,0.6518299579620361,0.14027290046215057,0.9664987921714783,0.5062311887741089,0.42141440510749817,0.015337768010795116,0.21666131913661957,0.5287802815437317,0.439400315284729,-0.13283059000968933,0.8025423288345337,-179.87339247052137,0.5060707777738571,0.43127721548080444,175.119657725348,171.172565798598,0.5650814814126282,-0.018576669221439256,-0.003926567650626167,0.5141860448888508,0.046712278752755416,44.097469773711275,0.20361060793132105,54,1762115203.6377442
0.5379506945610046,0.16007930040359497,-0.14041846990585327,0.9995895624160767,0.5038998126983643,0.22657069563865662,0.020861804485321045,0.9988152384757996,0.5052141547203064,0.23175451159477234,-0.1896914690732956,0.9998639822006226,0.5002508759498596,0.4302465617656708,0.06250066310167313,0.9989522099494934,0.508691132068634,0.43199190497398376,-0.06259613484144211,0.9993934631347656,0.5052335858345032,0.5282580256462097,0.15947511792182922,0.7116163372993469,0.5291757583618164,0.533630907535553,0.03093738481402397,0.9582916498184204,0.4998604357242584,0.62809157371521,0.27109527587890625,0.8676629066467285,0.5258685946464539,0.65224289894104,0.14191818237304688,0.9679932594299316,0.5047429203987122,0.4219653606414795,-0.0005484748398885131,0.19839808344841003,0.5215664505958557,0.43883153796195984,-0.1499774158000946,0.8114621639251709,179.97560726950502,0.5044710040092468,0.43111923336982727,174.5649708230957,170.37144110855394,0.5928497586566243,-0.02009853917304674,-0.0019847866719384637,-0.01911980525953737,0.024395300091159405,75.77263243142505,0.019805711199914377,55,1762115203.7173407
0.5369272232055664,0.1609382927417755,-0.13119088113307953,0.9995623230934143,0.5061297416687012,0.22832012176513672,0.015862908214330673,0.9985345005989075,0.5036090612411499,0.2322297990322113,-0.194448322057724,0.9998650550842285,0.5008226037025452,0.43012797832489014,0.06214916706085205,0.9988001585006714,0.5071415305137634,0.4318868815898895,-0.06222967430949211,0.9993473291397095,0.50525963306427,0.5289484858512878,0.15822619199752808,0.6959561109542847,0.5260258913040161,0.5354667901992798,0.0296170674264431,0.9603798389434814,0.49993762373924255,0.6289476156234741,0.26728448271751404,0.8598306179046631,0.5237822532653809,0.6531438827514648,0.13661476969718933,0.9690812826156616,0.504496693611145,0.425790399312973,-0.007195805199444294,0.1818731427192688,0.519606351852417,0.43981412053108215,-0.15246528387069702,0.8189079165458679,179.74672666534633,0.5039820671081543,0.43100742995738983,174.86527445994966,171.3773613675285,0.5849052368787511,-0.0061978662959381045,-0.001417243411508704,0.17620783320583974,0.007194296927567647,122.81102987467546,0.2345073188880125,56,1762115203.7962286
0.5344539284706116,0.16213847696781158,-0.15033049881458282,0.9995452165603638,0.5067925453186035,0.22962355613708496,0.013890770263969898,0.9983435273170471,0.5009279847145081,0.2333730012178421,-0.2003699094057083,0.9998683333396912,0.5013733506202698,0.4283239543437958,0.06390755623579025,0.9987716674804688,0.5031834840774536,0.430158793926239,-0.06397715210914612,0.9993393421173096,0.5062669515609741,0.5288788080215454,0.1600666642189026,0.6679036617279053,0.5177242755889893,0.5354092717170715,0.03333310782909393,0.9619961380958557,0.5012761950492859,0.6308566331863403,0.272506982088089,0.8367312550544739,0.5135539770126343,0.6522589325904846,0.146357923746109,0.9694284200668335,0.5049018263816833,0.42507755756378174,-0.007267738226801157,0.16713812947273254,0.5113160014152527,0.4430079162120819,-0.1673125922679901,0.827085018157959,179.54167167361683,0.5022784173488617,0.4292413741350174,174.3353850641095,172.6056836247447,0.6000027927673,-0.025008049472759534,-0.02592411447050218,-0.27611660724968706,-0.35973887268961086,147.40761334979192,0.3452664318821417,57,1762115203.8643527
0.5314188003540039,0.1620403528213501,-0.15231025218963623,0.9995520710945129,0.5065091848373413,0.23060569167137146,0.014379957690834999,0.9982262253761292,0.4962216317653656,0.2334136813879013,-0.19056442379951477,0.9998760223388672,0.5014904737472534,0.427826851606369,0.06256013363599777,0.9987393617630005,0.5006443858146667,0.43010780215263367,-0.06262895464897156,0.9993223547935486,0.508324146270752,0.5332743525505066,0.151334747672081,0.6250933408737183,0.5037329792976379,0.5457862615585327,0.03227487578988075,0.9578811526298523,0.5027331113815308,0.6331421732902527,0.2555338144302368,0.7886397838592529,0.5041273236274719,0.6496937870979309,0.1436401754617691,0.96201491355896,0.5047107934951782,0.4239944815635681,2.815349398588296e-05,0.15434128046035767,0.5046786069869995,0.4426581561565399,-0.18297980725765228,0.8387237191200256,179.9133169013002,0.5010674297809601,0.42896732687950134,172.04042215965003,172.29383037886961,0.5953301125737583,-0.016420643926535864,-0.003716002146637312,0.11644275504135873,0.3011356304694337,164.73299319925917,0.11463599034772927,58,1762115203.9381006
0.5287016034126282,0.16152895987033844,-0.1872137039899826,0.9995859265327454,0.5083237886428833,0.23023740947246552,0.009580365382134914,0.9981476664543152,0.4905281066894531,0.23320676386356354,-0.18937353789806366,0.9998858571052551,0.5020955801010132,0.4237768352031708,0.0617562010884285,0.998745322227478,0.4977821707725525,0.42756593227386475,-0.06183454394340515,0.999332070350647,0.5089625120162964,0.5330584049224854,0.1533750593662262,0.6098200678825378,0.5009351968765259,0.5443421006202698,0.031006986275315285,0.9565836787223816,0.5028890371322632,0.6310973167419434,0.26050886511802673,0.7678759694099426,0.4967539310455322,0.6453670263290405,0.14411383867263794,0.9570140242576599,0.5048478841781616,0.42237475514411926,-0.0024847660679370165,0.14397327601909637,0.49779343605041504,0.4417746961116791,-0.19545261561870575,0.8525289297103882,-179.84847314025262,0.49993887543678284,0.42567138373851776,170.8344984082846,169.85189631250356,0.6162870941910781,-0.018393596145252482,-0.053718500456585515,-0.03215590504098383,-0.8149592130074763,170.5270040117113,0.10001769272828517,59,1762115203.9994564
0.525951087474823,0.1613568365573883,-0.186591237783432,0.9996220469474792,0.5095097422599792,0.22947220504283905,0.01236444991081953,0.9981614947319031,0.4872146546840668,0.23260048031806946,-0.17958010733127594,0.9998953938484192,0.5034652948379517,0.42378196120262146,0.061272602528333664,0.9987797141075134,0.49575382471084595,0.4275907278060913,-0.06135116145014763,0.9993457794189453,0.5079067349433899,0.5332517623901367,0.1548151969909668,0.6022958755493164,0.4929896295070648,0.5454571843147278,0.03077419102191925,0.9547296762466431,0.49801310896873474,0.626702606678009,0.2599502205848694,0.7529819011688232,0.48643723130226135,0.6412665843963623,0.14570054411888123,0.9473910331726074,0.5069559812545776,0.41578033566474915,0.000295060541247949,0.13817378878593445,0.4922792911529541,0.44147589802742004,-0.18795467913150787,0.8659490942955017,-179.63284069245003,0.4996095597743988,0.4256863445043564,170.23068804116033,167.73653959467717,0.613318628525378,-0.005582883334411175,0.00025362963202483346,0.2171798162766076,0.9149886871854538,172.01284020491045,0.15167308714606353,60,1762115204.058443
0.5250170826911926,0.1611713469028473,-0.18590375781059265,0.9996530413627625,0.5098882913589478,0.22867244482040405,0.013438098132610321,0.9981430768966675,0.4863184988498688,0.23185952007770538,-0.17576828598976135,0.9999035596847534,0.5042914152145386,0.42350876331329346,0.06111352890729904,0.998799741268158,0.4954453408718109,0.42755937576293945,-0.06119557097554207,0.999350368976593,0.5078600645065308,0.5328708291053772,0.1523490995168686,0.5957300662994385,0.4911250174045563,0.5451694130897522,0.030822157859802246,0.9526452422142029,0.49671274423599243,0.6243712306022644,0.25622403621673584,0.7387266159057617,0.4851788580417633,0.6398664116859436,0.1456238031387329,0.9387168884277344,0.5074594020843506,0.41427081823349,0.0016646233852952719,0.1330391764640808,0.49108171463012695,0.44107457995414734,-0.19029763340950012,0.877947211265564,-179.48213084396426,0.49986837804317474,0.42553406953811646,169.32805131986387,167.53769712105918,0.6103998917036678,0.0032634657182969025,-0.0019200504447737952,0.11154450959794403,-0.027408151853910958,172.29924973221796,0.20648533724965135,61,1762115204.1377509
0.5229296684265137,0.16088993847370148,-0.18186990916728973,0.9996857047080994,0.5110272765159607,0.22862865030765533,0.009869730100035667,0.9982248544692993,0.48361626267433167,0.23019589483737946,-0.1593959927558899,0.9999117255210876,0.5060896873474121,0.4229855537414551,0.055295586585998535,0.9988772869110107,0.492492139339447,0.42696481943130493,-0.05541978403925896,0.9993920922279358,0.508311927318573,0.5317938327789307,0.145847350358963,0.6194801330566406,0.49114400148391724,0.5447841882705688,0.03269254416227341,0.9552838206291199,0.49681535363197327,0.6207019090652466,0.24807949364185333,0.7547544240951538,0.48061490058898926,0.6347474455833435,0.14763453602790833,0.9417663812637329,0.5159181952476501,0.4081612825393677,0.00017454703629482538,0.1486600935459137,0.4881804585456848,0.44023120403289795,-0.19250737130641937,0.889329195022583,-179.42310220786922,0.49929091334342957,0.42497518658638,169.12674467556192,164.42433162839419,0.6027419390147981,-0.009094591448601114,-0.008801944284861389,-0.1946291800710765,-0.10838413654697844,176.72763514430125,0.1787881640429444,62,1762115204.2012463
0.5211893916130066,0.1607387810945511,-0.2049262821674347,0.9997161030769348,0.5132343769073486,0.22860436141490936,-0.010462026111781597,0.9983217120170593,0.4805663228034973,0.2299141138792038,-0.1619141399860382,0.9999191164970398,0.5080233216285706,0.4219334125518799,0.05164910480380058,0.9989587664604187,0.49132460355758667,0.42561256885528564,-0.05179557204246521,0.999436616897583,0.509626030921936,0.5258005261421204,0.1477459967136383,0.6477251052856445,0.4876306653022766,0.5350324511528015,0.03938160091638565,0.9585672616958618,0.4978979527950287,0.6183226108551025,0.2606317698955536,0.7742315530776978,0.479936420917511,0.6268680691719055,0.16585899889469147,0.9461643695831299,0.5218722820281982,0.40585213899612427,-0.009282738901674747,0.1732064038515091,0.4836288094520569,0.4377550780773163,-0.2242964804172516,0.8993270397186279,-179.18306272883146,0.4996739625930786,0.42377299070358276,170.5190110755701,165.72512707450548,0.6238754033715574,0.0048297324839998435,-0.015158062605778394,0.1755668746946636,-0.08014204741245526,177.70408369051708,0.2855814133016838,63,1762115204.280557
0.5192536115646362,0.1606535017490387,-0.2094384729862213,0.9997435212135315,0.5148255228996277,0.2290605902671814,-0.01983289048075676,0.9984228014945984,0.47760432958602905,0.23098231852054596,-0.1630662977695465,0.9999257326126099,0.5092390179634094,0.4221312999725342,0.04886997491121292,0.9990363717079163,0.49078503251075745,0.42593345046043396,-0.048995982855558395,0.9994781613349915,0.5113285183906555,0.5237109065055847,0.14918355643749237,0.6758942008018494,0.4851263463497162,0.5327114462852478,0.045381106436252594,0.9617167115211487,0.5000722408294678,0.618944525718689,0.2618171274662018,0.7931371331214905,0.4775843024253845,0.6240389347076416,0.1779709756374359,0.9503766298294067,0.5234278440475464,0.4054409861564636,-0.018047543242573738,0.20151209831237793,0.4800580143928528,0.43838220834732056,-0.2256752997636795,0.908343493938446,-178.87877458660242,0.5000120252370834,0.42403237521648407,172.66546723468113,166.0283831519979,0.63057433404037,0.005338479407545735,0.004096042272982263,0.008033821610184323,0.30404909926848817,177.04444621144285,0.40393979402742763,64,1762115204.3438826
0.5169433355331421,0.16050836443901062,-0.20779600739479065,0.9997674226760864,0.5170941948890686,0.23160558938980103,-0.02806301973760128,0.9984472990036011,0.47469109296798706,0.23209121823310852,-0.1655295193195343,0.9999312162399292,0.5099201202392578,0.4221687614917755,0.04546371474862099,0.9990943670272827,0.4898698329925537,0.425917387008667,-0.045593712478876114,0.9995131492614746,0.5120761394500732,0.52015620470047,0.14817588031291962,0.7015215158462524,0.4840362071990967,0.5264256000518799,0.047813668847084045,0.9645185470581055,0.5010119676589966,0.6189330816268921,0.26258331537246704,0.8105196952819824,0.4777812957763672,0.6212888360023499,0.17974823713302612,0.9541396498680115,0.5222578048706055,0.4048311412334442,-0.024758655577898026,0.21313828229904175,0.47517967224121094,0.4367770254611969,-0.21624699234962463,0.9157470464706421,-178.80702398655353,0.49989497661590576,0.42404307425022125,174.1728316216452,168.61394572644332,0.6292865622893635,-0.0018358911937055692,0.00016781284240364083,-0.11252899585398787,-0.06161372723483192,179.34383888334293,0.46213422543779276,65,1762115204.4076383
0.5163644552230835,0.1603466421365738,-0.20671598613262177,0.9997883439064026,0.5183352828025818,0.2328086495399475,-0.028852906078100204,0.9984546303749084,0.4736226201057434,0.23312808573246002,-0.16614198684692383,0.9999358654022217,0.5104855298995972,0.4222785234451294,0.04419531673192978,0.9991402626037598,0.4895170331001282,0.4258173108100891,-0.044321902096271515,0.9995420575141907,0.5123899579048157,0.5183015465736389,0.14677812159061432,0.7243067026138306,0.48393645882606506,0.5245373249053955,0.04762759432196617,0.9668588638305664,0.5015398263931274,0.6187237501144409,0.2630298137664795,0.8259016871452332,0.4780692160129547,0.6203076243400574,0.17969416081905365,0.9573419690132141,0.5225656032562256,0.4046895205974579,-0.026247337460517883,0.22207120060920715,0.4744687080383301,0.4356171190738678,-0.21199467778205872,0.9222179055213928,-178.7940703032126,0.5000012814998627,0.42404791712760925,174.64056366468483,168.90545148887048,0.6283250698457122,0.0016708136445565294,7.611640516973256e-05,0.05511553254294211,-0.0014412099687699978,179.59067447163864,0.4811579629189898,66,1762115204.471263
0.5139757990837097,0.15984691679477692,-0.20802025496959686,0.9998075366020203,0.5198251605033875,0.23388907313346863,-0.031168857589364052,0.9984891414642334,0.4717795252799988,0.23368969559669495,-0.1626206636428833,0.9999400973320007,0.5105007886886597,0.42230212688446045,0.0430556982755661,0.9991891384124756,0.4884788393974304,0.42534881830215454,-0.04318544641137123,0.9995710849761963,0.5124856233596802,0.518151581287384,0.14524464309215546,0.746015191078186,0.48264139890670776,0.5245978832244873,0.047032859176397324,0.969147801399231,0.501747727394104,0.6188808083534241,0.2644413113594055,0.8404841423034668,0.4786355495452881,0.6200675368309021,0.1810179203748703,0.9604390859603882,0.5233905911445618,0.40189605951309204,-0.032529450953006744,0.22771644592285156,0.47089552879333496,0.4335006773471832,-0.2046642303466797,0.9271168112754822,-178.8883689115384,0.49948981404304504,0.4238254725933075,174.3761082076752,167.68883304670038,0.630371598181432,-0.006400521529501623,-0.002783678632805041,-0.10100496886902331,-0.035787574490875454,-179.76223801055298,0.5001403550081761,67,1762115204.5511732
0.5109835863113403,0.1597518026828766,-0.21577230095863342,0.9998241066932678,0.5209872722625732,0.23618994653224945,-0.03703457862138748,0.9985207319259644,0.46867984533309937,0.23459410667419434,-0.16011032462120056,0.9999434351921082,0.5103379487991333,0.42262980341911316,0.04190867394208908,0.9992359280586243,0.48557335138320923,0.4255412220954895,-0.042036112397909164,0.99959796667099,0.5130859017372131,0.5186159610748291,0.14515142142772675,0.7653124332427979,0.4807315468788147,0.525732696056366,0.047124527394771576,0.9711858034133911,0.5023772716522217,0.6193641424179077,0.27181822061538696,0.8533626198768616,0.4785270094871521,0.6207337379455566,0.1888960897922516,0.9631016254425049,0.5255419611930847,0.40268757939338684,-0.048020344227552414,0.23674635589122772,0.4657753109931946,0.4335483908653259,-0.20412155985832214,0.931086540222168,-179.0520799802213,0.49795565009117126,0.42408551275730133,173.38216218826358,165.4264392105015,0.6413473993941884,-0.020960302543673065,0.003552762730580429,-0.1989209918887264,0.08657075266602973,-178.25251324835006,0.4834767027185008,68,1762115204.624367
0.5086797475814819,0.15968452394008636,-0.22040335834026337,0.9998371601104736,0.5226060748100281,0.2371235340833664,-0.04439327493309975,0.9985234141349792,0.46543583273887634,0.2353154569864273,-0.15218384563922882,0.9999456405639648,0.5102030634880066,0.4227953553199768,0.037182971835136414,0.9992710947990417,0.48189878463745117,0.4255967140197754,-0.037285078316926956,0.9996185898780823,0.5134431719779968,0.5202401280403137,0.13592904806137085,0.7841837406158447,0.47858911752700806,0.5264120697975159,0.04812398925423622,0.9730553030967712,0.502458393573761,0.6194175481796265,0.2722555994987488,0.8651764392852783,0.477813184261322,0.6201240420341492,0.19748350977897644,0.9654504060745239,0.526857316493988,0.4031628966331482,-0.05738929659128189,0.2386639416217804,0.462090402841568,0.43327441811561584,-0.2000780552625656,0.9328543543815613,-179.38128337925122,0.4960509240627289,0.4241960346698761,170.02262107238363,162.33078891279428,0.6475312197968529,-0.028934644428749934,0.0016789355498813858,-0.12113802381682856,-0.028465260822204307,-178.18855641571315,0.34515345529848473,69,1762115204.6901956
0.5050638318061829,0.1582588106393814,-0.2255016267299652,0.9998490214347839,0.5228477716445923,0.23681515455245972,-0.045076511800289154,0.9985480904579163,0.4631942808628082,0.2352565973997116,-0.14686225354671478,0.9999475479125977,0.5101248025894165,0.4227868914604187,0.036755435168743134,0.9993086457252502,0.48010697960853577,0.42540818452835083,-0.036851413547992706,0.9996386170387268,0.5139803886413574,0.5207486152648926,0.12698796391487122,0.8012760877609253,0.4777858853340149,0.5265549421310425,0.045427821576595306,0.974800169467926,0.502438485622406,0.6188688278198242,0.27865126729011536,0.8758102655410767,0.4781404435634613,0.6203885674476624,0.202069953083992,0.9677020311355591,0.5276943445205688,0.4035106301307678,-0.0627974420785904,0.24694497883319855,0.4583674967288971,0.4324045777320862,-0.19938506186008453,0.9345446825027466,-179.36179469572832,0.49511589109897614,0.42409753799438477,164.60159579645898,160.01236138413907,0.6558262562120175,-0.012554379837764817,-0.0013224824415946938,0.2199324210913013,-0.04029905145339447,-178.5033828642747,0.3744392338755613,70,1762115204.7646742
0.5042427778244019,0.15753613412380219,-0.22642938792705536,0.9998591542243958,0.5232419371604919,0.23654215037822723,-0.049393005669116974,0.9985970854759216,0.4623834490776062,0.23521733283996582,-0.1439504325389862,0.9999485015869141,0.5100597739219666,0.4226534962654114,0.034269269555807114,0.9993396997451782,0.4794577658176422,0.4252520203590393,-0.03435118496417999,0.9996533989906311,0.5140665769577026,0.5213161110877991,0.11869440227746964,0.8171901702880859,0.47800302505493164,0.5267165899276733,0.04373055696487427,0.9762908220291138,0.5026938915252686,0.6168274879455566,0.2803112864494324,0.8853060007095337,0.4779359698295593,0.6185891628265381,0.20627911388874054,0.9695590734481812,0.5283790826797485,0.40360191464424133,-0.0693788230419159,0.2556656002998352,0.45836472511291504,0.43173858523368835,-0.19512605667114258,0.9342620968818665,-179.4071557571682,0.4947587698698044,0.42395275831222534,160.42452674270461,157.04133522783906,0.657718495406155,-0.005589440374949157,-0.002266001947884754,0.10901092027720256,-0.014767383152328409,-178.7529353892463,0.3401714492501722,71,1762115204.8285663
0.5018681287765503,0.15682226419448853,-0.23203714191913605,0.9998695254325867,0.5226195454597473,0.23632477223873138,-0.0576983205974102,0.9986541271209717,0.45986828207969666,0.23521055281162262,-0.1474456936120987,0.9999501705169678,0.5099254846572876,0.42259761691093445,0.032524224370718,0.9993706345558167,0.47827282547950745,0.4252837300300598,-0.03261985257267952,0.9996680021286011,0.5139706134796143,0.5216187834739685,0.11949075758457184,0.8310951590538025,0.4767114520072937,0.5269425511360168,0.04527677595615387,0.9775789380073547,0.5027133226394653,0.6163842678070068,0.2790824770927429,0.8934496641159058,0.4771985113620758,0.6175002455711365,0.209385484457016,0.9710649847984314,0.5290732383728027,0.4041363298892975,-0.07205846905708313,0.2762282192707062,0.4555709958076477,0.43180668354034424,-0.1976640373468399,0.9362585544586182,-179.13068977393263,0.4940991550683975,0.42394067347049713,161.25066893990075,156.33179352808403,0.6623341230789972,-0.010392680187371576,-0.00019040490742236362,-0.07567831274751267,0.032702444204364106,-178.98275573608802,0.5301113891869376,72,1762115204.8920355
0.49803104996681213,0.1561497300863266,-0.23361262679100037,0.9998784065246582,0.5221215486526489,0.2361821085214615,-0.06429803371429443,0.9987167716026306,0.45694345235824585,0.23540246486663818,-0.14422747492790222,0.9999509453773499,0.5098386406898499,0.42262786626815796,0.028474390506744385,0.9994006156921387,0.476897656917572,0.42543262243270874,-0.028563937172293663,0.9996811151504517,0.513661801815033,0.5227735042572021,0.10932250320911407,0.8448541164398193,0.47547632455825806,0.5271148681640625,0.04980897158384323,0.978814423084259,0.5027121305465698,0.6165282130241394,0.27177396416664124,0.9014493227005005,0.4762846827507019,0.6166962385177612,0.21908029913902283,0.9724951982498169,0.5299522280693054,0.40495333075523376,-0.07492577284574509,0.299620658159256,0.4527739882469177,0.43185895681381226,-0.19264936447143555,0.9359871745109558,-178.8326687485712,0.49336814880371094,0.42403024435043335,158.3129516679402,155.49189087644282,0.6645130593931413,-0.01142463101727819,0.0013998707023433804,-0.016127984162641665,0.024853839064074623,-179.31467527983006,0.7562910204027417,73,1762115204.9560206
0.4943070411682129,0.15608978271484375,-0.230494886636734,0.9998849034309387,0.5220264196395874,0.2360735982656479,-0.0625963807106018,0.9987654089927673,0.4544021189212799,0.23582369089126587,-0.13819701969623566,0.9999510645866394,0.5092155933380127,0.4229128658771515,0.026294389739632607,0.9994279146194458,0.4754582345485687,0.42611953616142273,-0.02638033963739872,0.9996923208236694,0.5130444169044495,0.5243727564811707,0.10426054149866104,0.8572672605514526,0.4749351441860199,0.5286246538162231,0.05296453833580017,0.9798356294631958,0.5029165744781494,0.6166613698005676,0.267985075712204,0.9085855484008789,0.47585004568099976,0.6162025332450867,0.22550559043884277,0.9736816883087158,0.5299032926559448,0.4051103889942169,-0.0703173503279686,0.3160846531391144,0.45040732622146606,0.4318867027759552,-0.18490517139434814,0.9348522424697876,-178.74754427759387,0.4923369139432907,0.4245162010192871,156.4580472595459,154.64353283490914,0.6630968125558099,-0.012826495995160387,0.0060443275398334015,-0.01743639224650954,0.05776773973824494,-179.78826291012365,0.8947739749138944,74,1762115205.0364194
0.4909438192844391,0.15599103271961212,-0.23661009967327118,0.9998882412910461,0.5214284658432007,0.23630574345588684,-0.06662613153457642,0.9988009333610535,0.4513618052005768,0.23721686005592346,-0.13703970611095428,0.9999492764472961,0.5077478289604187,0.42399728298187256,0.024417221546173096,0.9994533658027649,0.4732171595096588,0.42729559540748596,-0.024493642151355743,0.9997009038925171,0.5125051736831665,0.5262525081634521,0.10300645977258682,0.8684225678443909,0.47421425580978394,0.5294756889343262,0.059722356498241425,0.9806845784187317,0.5030447244644165,0.6169272661209106,0.2682143747806549,0.9150115847587585,0.47517043352127075,0.6164087057113647,0.24219569563865662,0.9746861457824707,0.5297004580497742,0.4056919515132904,-0.07726548612117767,0.32470160722732544,0.4484056830406189,0.4323272407054901,-0.18202228844165802,0.9289960265159607,-178.76034788585244,0.49048249423503876,0.42564643919467926,155.78835702972282,154.9642825887953,0.6738759187600889,-0.02824624860185064,0.01721562186778228,-0.2348714067098508,0.17015951426073594,179.25499241358287,0.961022396160288,75,1762115205.1020713
0.4900689125061035,0.15604092180728912,-0.23805229365825653,0.9998947381973267,0.5207613706588745,0.23628383874893188,-0.07025646418333054,0.9988752603530884,0.4512867331504822,0.23770686984062195,-0.13611094653606415,0.9999486207962036,0.5073870420455933,0.424849271774292,0.02393510937690735,0.9994811415672302,0.4732181131839752,0.42822375893592834,-0.02402251586318016,0.999709963798523,0.51241135597229,0.5270644426345825,0.09928331524133682,0.8781840205192566,0.4740869998931885,0.5308194160461426,0.057096414268016815,0.981363832950592,0.5033830404281616,0.617012083530426,0.26489517092704773,0.9204854369163513,0.4748261570930481,0.6166667342185974,0.22721326351165771,0.9754340052604675,0.5300819873809814,0.4067276120185852,-0.07994501292705536,0.3577421009540558,0.4474419057369232,0.43395426869392395,-0.18030068278312683,0.9274888634681702,-178.70687801879737,0.49030257761478424,0.42653651535511017,154.41151003449528,155.10435226197498,0.6683526684756588,-0.002365729100701607,0.011703638449818485,0.34030373646709655,-0.07247723726699067,178.8265893975721,1.0320694726722701,76,1762115205.1781225
0.48718008399009705,0.15587249398231506,-0.2430582046508789,0.9999000430107117,0.5194751620292664,0.23624187707901,-0.0743902325630188,0.9989451169967651,0.4496195912361145,0.23826314508914948,-0.13597005605697632,0.9999479651451111,0.5068048238754272,0.42517200112342834,0.022480271756649017,0.9995056986808777,0.4722267985343933,0.4286676049232483,-0.022568147629499435,0.9997212886810303,0.512166440486908,0.5280376672744751,0.10569176822900772,0.887200653553009,0.4737551212310791,0.531574547290802,0.05433809757232666,0.982155442237854,0.5035489797592163,0.6163532733917236,0.2886362075805664,0.9255315661430359,0.4744281768798828,0.6167204976081848,0.2229263037443161,0.9763412475585938,0.5300255417823792,0.4075567424297333,-0.08705344796180725,0.38450750708580017,0.4461947977542877,0.4346872866153717,-0.18074941635131836,0.9238878488540649,-178.4994500552261,0.4895158112049103,0.4269198030233383,154.2993624084164,153.56015907771706,0.6790108684179812,-0.01155897641573872,0.0056311670934228175,-0.13506490308297547,-0.08921523887257835,178.34261145984857,1.2504861060808534,77,1762115205.246188
0.48476606607437134,0.1557755321264267,-0.2517623007297516,0.9999065399169922,0.5182344317436218,0.23622815310955048,-0.07803978770971298,0.999022364616394,0.447948694229126,0.23863330483436584,-0.13727450370788574,0.9999476075172424,0.5064640641212463,0.42722088098526,0.021396813914179802,0.9995391368865967,0.47071152925491333,0.4306422472000122,-0.021476317197084427,0.9997369050979614,0.5121642351150513,0.5288544297218323,0.10848204791545868,0.8957356810569763,0.4728976786136627,0.5324446558952332,0.06368939578533173,0.9829410314559937,0.503816545009613,0.6156697273254395,0.3018033802509308,0.9302032589912415,0.47442418336868286,0.6167784929275513,0.2585970163345337,0.977268636226654,0.5298179984092712,0.4099399447441101,-0.09767181426286697,0.41208305954933167,0.4447317123413086,0.4353373944759369,-0.18216396868228912,0.9190059304237366,-178.3560146419214,0.48858779668807983,0.4289315640926361,154.3450060046722,153.305256361671,0.7035737013707972,-0.013096027158516644,0.028389725723206534,-0.02169067175822601,0.32116599093976933,178.04012454821182,1.611046283938088,78,1762115205.3170502
0.48275551199913025,0.1557260900735855,-0.25981101393699646,0.999912440776825,0.516743004322052,0.23620662093162537,-0.07968004047870636,0.9990963935852051,0.4459450840950012,0.23995926976203918,-0.13757535815238953,0.999947726726532,0.5063973069190979,0.42817550897598267,0.02116534672677517,0.9995747804641724,0.4699530601501465,0.4314858615398407,-0.021238965913653374,0.9997538328170776,0.5124186873435974,0.5303423404693604,0.10709680616855621,0.9036418199539185,0.4716978073120117,0.5342870354652405,0.06901685893535614,0.9836403727531433,0.5041766166687012,0.6155277490615845,0.3113294243812561,0.934503972530365,0.47428756952285767,0.6169299483299255,0.28012925386428833,0.9781190752983093,0.5297763347625732,0.41036006808280945,-0.098036989569664,0.4299233555793762,0.4437500536441803,0.4365023672580719,-0.18605177104473114,0.9136943817138672,-177.95966307567818,0.4881751835346222,0.4298306852579117,152.30761150973146,152.65891397716018,0.721616117252866,-0.00582468640511041,0.012692515456769846,0.10264646019734443,-0.2215909174753431,176.96587247753183,2.41625987316663,79,1762115205.387889
0.4807926118373871,0.1557234823703766,-0.2720915675163269,0.9999178051948547,0.5159350633621216,0.2361305058002472,-0.09395643323659897,0.9991658329963684,0.4451771676540375,0.24031955003738403,-0.13795027136802673,0.9999467134475708,0.5064106583595276,0.42853426933288574,0.017147479578852654,0.9996058344841003,0.46962156891822815,0.4316521883010864,-0.017224611714482307,0.9997671842575073,0.5126360654830933,0.5316425561904907,0.09520895034074783,0.9107570052146912,0.4720771312713623,0.5339654088020325,0.07361692935228348,0.9840322136878967,0.505134642124176,0.613959014415741,0.3099917769432068,0.9379931092262268,0.47452297806739807,0.6169887781143188,0.2946127653121948,0.9785832166671753,0.5296144485473633,0.4118654429912567,-0.11122667789459229,0.4505155682563782,0.44298338890075684,0.4369056224822998,-0.18541786074638367,0.907428503036499,-177.77341311292423,0.48801611363887787,0.4300932288169861,147.7714594752202,152.18739776012285,0.7357855515212918,-0.0020060178656796743,0.003310916044534912,0.048156926723077434,-0.118310607683068,176.6119013442743,2.9500287491636628,80,1762115205.4671853
0.4802509844303131,0.15572255849838257,-0.2737467586994171,0.9999222159385681,0.5153375864028931,0.23567363619804382,-0.09657533466815948,0.9992272853851318,0.44540029764175415,0.24028731882572174,-0.14488230645656586,0.9999470710754395,0.5063711404800415,0.4287124574184418,0.01694321446120739,0.9996339082717896,0.46942201256752014,0.4316880404949188,-0.017030173912644386,0.9997801184654236,0.5129361152648926,0.5318900942802429,0.09443935751914978,0.9172558784484863,0.4723374843597412,0.5337061285972595,0.07912620902061462,0.9844573736190796,0.5059365034103394,0.6133646368980408,0.30214571952819824,0.9413237571716309,0.47468775510787964,0.6172114610671997,0.2996627688407898,0.9790922999382019,0.5294920802116394,0.41242337226867676,-0.11079452186822891,0.4738951027393341,0.44231295585632324,0.4369615912437439,-0.1862579882144928,0.9067156314849854,-177.75735138915672,0.4878965765237808,0.4302002489566803,147.98702011170437,154.0370304329577,0.7358841225320525,-0.0015877954700919664,0.001421534164323174,0.005555191997615673,-0.02509640615166709,176.2257319469518,3.236758745160892,81,1762115205.5424702
0.47919169068336487,0.15573257207870483,-0.2759891152381897,0.9999265074729919,0.5147642493247986,0.23471198976039886,-0.1013854593038559,0.9992852807044983,0.4457281231880188,0.2403775304555893,-0.14846758544445038,0.9999484419822693,0.506382167339325,0.42867833375930786,0.016345974057912827,0.9996580481529236,0.4697561264038086,0.431625097990036,-0.016447272151708603,0.9997922778129578,0.5134338736534119,0.5317437052726746,0.09880723059177399,0.9229773879051208,0.47211652994155884,0.5330613255500793,0.07819065451622009,0.9849103689193726,0.5062111020088196,0.6125525832176208,0.3009907603263855,0.944339394569397,0.4748059809207916,0.6173006892204285,0.2853549122810364,0.9795891642570496,0.5294327735900879,0.4123930335044861,-0.11273108422756195,0.5016266703605652,0.44264325499534607,0.43717116117477417,-0.18407955765724182,0.9084445834159851,-177.67414216910458,0.4880691468715668,0.43015171587467194,150.04266235000424,155.13946326118395,0.7313908577062598,0.002703960984138132,-0.0007604525451461787,0.06724644270900652,-0.034188996000814924,175.3084597983999,3.4497938260063403,82,1762115205.6062915
0.4792168140411377,0.15573008358478546,-0.2780752182006836,0.9999314546585083,0.5148239135742188,0.2330806702375412,-0.10406116396188736,0.9993472099304199,0.4459558129310608,0.24039268493652344,-0.15341877937316895,0.9999502897262573,0.5066754221916199,0.4285183250904083,0.016950426623225212,0.9996850490570068,0.47016042470932007,0.43157798051834106,-0.017062893137335777,0.9998066425323486,0.5145076513290405,0.5316535234451294,0.10421518981456757,0.9282930493354797,0.47219133377075195,0.5318366289138794,0.07579857856035233,0.9853752255439758,0.508681058883667,0.6123813390731812,0.3047679364681244,0.9475186467170715,0.47486719489097595,0.6174179315567017,0.27798739075660706,0.9801580905914307,0.5292867422103882,0.413038045167923,-0.11070913076400757,0.5382065773010254,0.4428804814815521,0.4385666847229004,-0.18414179980754852,0.9113375544548035,-177.62192179545528,0.48841792345046997,0.4300481528043747,151.74796581612188,155.74566603797098,0.7316221346755277,0.004445469214850291,-0.0013200038897380809,0.022197078861731754,-0.0071319819820865205,173.93937277935316,5.092765205705833,83,1762115205.6847482
0.4785067141056061,0.15578709542751312,-0.2740073502063751,0.9999336004257202,0.5149102807044983,0.23177488148212433,-0.10361025482416153,0.9994009733200073,0.446438729763031,0.2404559850692749,-0.15226511657238007,0.99994957447052,0.5070578455924988,0.4279908835887909,0.016847681254148483,0.9997094869613647,0.47042322158813477,0.4314170777797699,-0.016990218311548233,0.9998195171356201,0.5150321125984192,0.5311309099197388,0.10433904826641083,0.932425320148468,0.4726949632167816,0.530229926109314,0.06357783079147339,0.9855604767799377,0.5116220116615295,0.6122000217437744,0.3194599747657776,0.950000524520874,0.4754188060760498,0.6171494126319885,0.2606866955757141,0.9804691672325134,0.5291473865509033,0.4135739207267761,-0.10622654110193253,0.5672809481620789,0.44273361563682556,0.4409785270690918,-0.1730322390794754,0.9111315011978149,-177.6141035727829,0.4887405335903168,0.4297039806842804,150.66113344251815,152.98606797759817,0.7273171798128045,0.00444316200445917,-0.004740125303325332,-3.177615418719054e-05,-0.04710376903436536,172.77435739548685,23.438964594291086,84,1762115205.7573564
0.47888994216918945,0.15580160915851593,-0.26973050832748413,0.9999369978904724,0.5154626369476318,0.23065140843391418,-0.09994661062955856,0.9994542002677917,0.4468824863433838,0.2404329478740692,-0.13796144723892212,0.9999467134475708,0.5075439810752869,0.42718827724456787,0.013300798833370209,0.9997328519821167,0.4705689549446106,0.4306035041809082,-0.013453361578285694,0.9998311996459961,0.5151036977767944,0.5305405259132385,0.1025504320859909,0.9370098114013672,0.4728972315788269,0.5292425155639648,0.0602937713265419,0.9857500195503235,0.5136090517044067,0.6122739315032959,0.31242015957832336,0.9529327750205994,0.47579899430274963,0.6163902878761292,0.2483208179473877,0.9807686805725098,0.5291544795036316,0.4135335683822632,-0.1040816456079483,0.5996915698051453,0.44308024644851685,0.44086137413978577,-0.15648190677165985,0.9070769548416138,-177.66508504182133,0.48905646800994873,0.42889589071273804,151.87512910790252,151.6489311915982,0.716317954591264,0.004508025228952059,-0.011530525807285643,0.000925524521151445,-0.09689130048635386,171.8826909360567,11.189856220707508,85,1762115205.827439
