nose_x,nose_y,nose_z,nose_visibility,left_shoulder_x,left_shoulder_y,left_shoulder_z,left_shoulder_visibility,right_shoulder_x,right_shoulder_y,right_shoulder_z,right_shoulder_visibility,left_hip_x,left_hip_y,left_hip_z,left_hip_visibility,right_hip_x,right_hip_y,right_hip_z,right_hip_visibility,left_knee_x,left_knee_y,left_knee_z,left_knee_visibility,right_knee_x,right_knee_y,right_knee_z,right_knee_visibility,left_ankle_x,left_ankle_y,left_ankle_z,left_ankle_visibility,right_ankle_x,right_ankle_y,right_ankle_z,right_ankle_visibility,left_wrist_x,left_wrist_y,left_wrist_z,left_wrist_visibility,right_wrist_x,right_wrist_y,right_wrist_z,right_wrist_visibility,trunk_lateral_inclination,center_mass_x,center_mass_y,left_knee_angle,right_knee_angle,person_height,center_mass_velocity_x,center_mass_velocity_y,center_mass_acceleration_x,center_mass_acceleration_y,body_orientation,torso_leg_ratio,frame,timestamp
0.5206289291381836,0.1566089391708374,-0.004583592992275953,0.9999256134033203,0.461071252822876,0.3879829943180084,-0.25282302498817444,0.9999773502349854,0.6217892169952393,0.35790732502937317,-0.17623543739318848,0.9998326301574707,0.5229562520980835,0.8385124206542969,-0.018755991011857986,0.9999489784240723,0.5943782925605774,0.825792670249939,0.018361466005444527,0.9997804760932922,0.49218493700027466,0.7900874614715576,0.38867008686065674,0.7008141279220581,0.6053837537765503,0.8384535312652588,0.408987432718277,0.5712272524833679,0.5366513133049011,0.9781523942947388,0.6294549703598022,0.6806879043579102,0.5797867774963379,0.9825348854064941,0.7024178504943848,0.33941036462783813,0.4322609007358551,0.8808916807174683,-0.11116640269756317,0.8298029899597168,0.5844394564628601,0.7556192278862,0.1937185823917389,0.3336409628391266,-177.85032629211045,0.5586672723293304,0.8321525454521179,133.61403776578942,154.97022492291677,1.062802403521059,0.0,0.0,0.0,0.0,-10.599352401531053,1.8267894695648603,0,1762115288.5189552
0.5216484665870667,0.16344891488552094,0.051237571984529495,0.9997007846832275,0.46031641960144043,0.3831876516342163,-0.2598321735858917,0.999958872795105,0.6233303546905518,0.35433903336524963,-0.16963620483875275,0.9997198581695557,0.5204330682754517,0.8386325240135193,-0.02501544915139675,0.9998003840446472,0.5989805459976196,0.8267159461975098,0.024821091443300247,0.9993209838867188,0.49398741126060486,0.9515242576599121,0.3403359055519104,0.7025986313819885,0.590821385383606,0.9660431742668152,0.40541934967041016,0.5518842935562134,0.5277996063232422,1.1558583974838257,0.6561154127120972,0.636252224445343,0.5812605619430542,1.1092779636383057,0.7547066807746887,0.3133225440979004,0.43057164549827576,0.8669952154159546,-0.13086125254631042,0.8367061614990234,0.6042233109474182,0.7156898379325867,0.259306937456131,0.3184840977191925,-177.79238340570944,0.5597068071365356,0.8326742351055145,161.84029072257292,177.77974790663993,1.1697077784447016,0.021007993408690123,0.010542843514208899,0.4245512358033526,0.2130606743710813,-10.035741801056592,1.474716197747498,1,1762115288.568438
0.5216000080108643,0.1756795346736908,0.07552288472652435,0.9994742274284363,0.4582536816596985,0.3768206238746643,-0.2463875114917755,0.999941885471344,0.6240638494491577,0.35461336374282837,-0.1616000235080719,0.9995294213294983,0.5190969705581665,0.8284168839454651,-0.02508383058011532,0.9997295141220093,0.5984177589416504,0.8202685713768005,0.02493605576455593,0.9989678263664246,0.5008949637413025,1.0129802227020264,0.23620149493217468,0.704390287399292,0.5791131258010864,1.0023797750473022,0.3252727687358856,0.5223548412322998,0.5135246515274048,1.2840468883514404,0.45103225111961365,0.6039729118347168,0.5814265608787537,1.173674464225769,0.6253931522369385,0.2883438766002655,0.42748984694480896,0.8328829407691956,-0.10607977211475372,0.8422305583953857,0.6100761890411377,0.684813380241394,0.25577372312545776,0.3036351203918457,-177.8024979410364,0.5587573647499084,0.8243427276611328,162.78749793931632,176.15230297104728,1.1506267554450242,-0.01190600764184959,-0.104477104348918,-0.4127415771099784,-1.4423501599589343,-7.628333395790592,2.3550959541648817,2,1762115288.6481829
0.521598219871521,0.1747218370437622,0.14445769786834717,0.9993504881858826,0.45677924156188965,0.3638392984867096,-0.1857856959104538,0.9999333024024963,0.6233488321304321,0.35467806458473206,-0.12805184721946716,0.9993817210197449,0.5155158638954163,0.818088710308075,-0.02421608194708824,0.99968421459198,0.5935394763946533,0.8122974634170532,0.024223269894719124,0.9987316131591797,0.500785231590271,1.008438229560852,0.2627656161785126,0.7047528028488159,0.5704118013381958,1.007817029953003,0.33155298233032227,0.4965153932571411,0.5040574073791504,1.2537049055099487,0.4732625484466553,0.5728609561920166,0.5733598470687866,1.170908808708191,0.6243499517440796,0.2671269178390503,0.42671918869018555,0.7932502627372742,-0.0773397758603096,0.8471259474754333,0.6064096689224243,0.6932655572891235,0.2413109987974167,0.2892615795135498,-178.18301204579157,0.5545276701450348,0.8151930868625641,163.90741024535993,174.67566697968206,1.113720427931435,-0.06344071505966578,-0.13723443629510695,-0.7729632974469985,-0.49132354844685894,-3.1480640077000017,4.649025513995327,3,1762115288.7148545
0.5249726176261902,0.17426738142967224,0.16313865780830383,0.9991210699081421,0.45339855551719666,0.3473854660987854,-0.17572960257530212,0.9999237656593323,0.6203204989433289,0.3535553514957428,-0.09703387320041656,0.9989554286003113,0.5104062557220459,0.8069319725036621,-0.024799741804599762,0.9995874762535095,0.5863362550735474,0.8013654351234436,0.02492707222700119,0.998213529586792,0.5007193684577942,1.0062302350997925,0.189268097281456,0.7096524834632874,0.5639125108718872,1.0119297504425049,0.2908702492713928,0.478714257478714,0.49412497878074646,1.2837636470794678,0.4251987040042877,0.5462879538536072,0.5641202330589294,1.2219562530517578,0.5753463506698608,0.2515164017677307,0.4250403344631195,0.7742934226989746,-0.04321666806936264,0.8526405692100525,0.6042906045913696,0.666013777256012,0.31237709522247314,0.26916834712028503,-178.5464767760798,0.5483712553977966,0.8041487038135529,173.26405480360765,175.7169416145782,1.1300612361739322,-0.09714520309848876,-0.1742749438502372,-0.531840278845882,-0.5844810294706799,2.116842910867391,3.603796311372585,4,1762115288.7782278
0.5246434807777405,0.1736638993024826,0.1815122365951538,0.9989376664161682,0.4520204961299896,0.34539973735809326,-0.1619163453578949,0.999911367893219,0.6199274659156799,0.35280245542526245,-0.07673008739948273,0.9986258745193481,0.5066286325454712,0.8009666204452515,-0.025984909385442734,0.9994816780090332,0.5860440731048584,0.7955981492996216,0.02620977722108364,0.9976793527603149,0.4957968294620514,1.006271481513977,0.1637692153453827,0.7146821618080139,0.559050440788269,1.0120795965194702,0.2676490247249603,0.46526038646698,0.48859167098999023,1.292074203491211,0.39057984948158264,0.5216602087020874,0.5547605156898499,1.2330169677734375,0.5400252938270569,0.23716922104358673,0.42459359765052795,0.7712713479995728,-0.04689290374517441,0.8566685914993286,0.603027880191803,0.6604012250900269,0.3087307810783386,0.25293979048728943,-178.67845145631497,0.5463363528251648,0.7982823848724365,175.54895905449513,175.0475166386072,1.125259564049877,-0.029930145460156262,-0.08628412071649998,0.988625440492799,1.2942035510552754,2.524433676543851,1.8026087640062407,5,1762115288.8462162
0.5245829820632935,0.16959689557552338,0.14014649391174316,0.9987290501594543,0.4502617418766022,0.33970701694488525,-0.2062845528125763,0.9998970031738281,0.6146194338798523,0.3464014530181885,-0.10826021432876587,0.9982064366340637,0.5017163157463074,0.7908766865730286,-0.02581370808184147,0.9993463158607483,0.5775494575500488,0.7838403582572937,0.025997858494520187,0.9971451759338379,0.4955117702484131,0.9832874536514282,0.22301176190376282,0.7007649540901184,0.5544024109840393,0.9903523921966553,0.30647289752960205,0.43950435519218445,0.4925079345703125,1.240002155303955,0.40098318457603455,0.4886876940727234,0.5523269176483154,1.1933891773223877,0.574316143989563,0.22093267738819122,0.4225802421569824,0.7588488459587097,-0.021911652758717537,0.8501672148704529,0.6112435460090637,0.5530434846878052,0.35923367738723755,0.23525087535381317,-179.07258969423467,0.5396328866481781,0.7873585224151611,162.4367379302638,176.45243189133402,1.103258346322754,-0.09347758509485275,-0.15232959419114175,-0.8861477091367369,-0.9209819522996187,2.3324191790378093,2.8308730847316586,6,1762115288.9179282
0.521526038646698,0.16851848363876343,0.12136925756931305,0.9987776875495911,0.4497108459472656,0.33561256527900696,-0.2070571929216385,0.9999005794525146,0.6083658933639526,0.34124329686164856,-0.11629996448755264,0.9981990456581116,0.4992203712463379,0.7775980830192566,-0.025688428431749344,0.9993460178375244,0.5702789425849915,0.771516740322113,0.025861823931336403,0.9971415400505066,0.49588829278945923,0.9731901288032532,0.3011314868927002,0.7049091458320618,0.5523790717124939,0.9538739323616028,0.4131506383419037,0.4340055584907532,0.493986040353775,1.165847897529602,0.6458595991134644,0.4737434685230255,0.5491845011711121,1.1395522356033325,0.7964284420013428,0.21549275517463684,0.42184948921203613,0.7441807389259338,-0.03711907938122749,0.8545675277709961,0.6020728945732117,0.5780466794967651,0.39163732528686523,0.21799860894680023,-179.2497320946407,0.5347496569156647,0.7745574116706848,178.27269116728957,177.92691836551757,1.1525377035047246,-0.06601394296470103,-0.17305182038522032,0.37126725640442937,-0.2801334225521766,2.032597197238657,2.2402375158911383,7,1762115288.991901
0.5178500413894653,0.1593462973833084,0.10962174832820892,0.9988585114479065,0.44523516297340393,0.3379132151603699,-0.2091951072216034,0.9998953938484192,0.6002784967422485,0.34166574478149414,-0.13637182116508484,0.9980788826942444,0.4971409738063812,0.7675381302833557,-0.01705523207783699,0.9993017315864563,0.5675127506256104,0.765686571598053,0.017151758074760437,0.9970108866691589,0.49715656042099,0.9439336061477661,0.3574690520763397,0.7200927138328552,0.5538026690483093,0.9228758215904236,0.40007758140563965,0.4604765772819519,0.4953881800174713,1.0991218090057373,0.7031513452529907,0.4819371700286865,0.5458273887634277,1.092403531074524,0.743596613407135,0.22956404089927673,0.42198482155799866,0.7288167476654053,-0.12788978219032288,0.8580069541931152,0.5863558650016785,0.579215407371521,0.37492385506629944,0.20282573997974396,-178.7155547568335,0.5323268622159958,0.7666123509407043,178.90361313371838,175.98539832178201,1.1196316488854596,-0.035154871619237395,-0.11528322643585114,0.44776666037238905,0.8382251720261223,1.3864649119881536,1.963957634921611,8,1762115289.0608187
0.5153920650482178,0.15907414257526398,0.1393202245235443,0.9988246560096741,0.44410625100135803,0.33837220072746277,-0.17194488644599915,0.9998832941055298,0.5912070274353027,0.34177160263061523,-0.10076011717319489,0.997649073600769,0.4873693883419037,0.7601699829101562,-0.01727135106921196,0.9992451667785645,0.5540075302124023,0.7559286952018738,0.017357237637043,0.9968330264091492,0.5012562870979309,0.9421595335006714,0.35234466195106506,0.7299085259437561,0.5520482659339905,0.9302430152893066,0.35132017731666565,0.46546289324760437,0.49699944257736206,1.1161879301071167,0.629745602607727,0.47294923663139343,0.5448651313781738,1.0993627309799194,0.6552106142044067,0.22958293557167053,0.4236867427825928,0.7216724753379822,-0.11897019296884537,0.8576737642288208,0.5612874627113342,0.5840321183204651,0.2819839119911194,0.1864616721868515,-179.584409511991,0.520688459277153,0.758049339056015,173.52995786268082,178.2149443377744,1.0738866300613596,-0.1792494400176257,-0.13188365218668527,-2.2192796409195963,-0.2556722804260515,1.3238320404441695,0.5299467930473403,9,1762115289.1257472
0.5142989754676819,0.1590079665184021,0.13838130235671997,0.9988061189651489,0.44449383020401,0.3375856280326843,-0.14850834012031555,0.99983811378479,0.5848397016525269,0.3418161869049072,-0.09588821232318878,0.997276246547699,0.4909442365169525,0.7528389692306519,-0.016039440408349037,0.9991788268089294,0.5499746203422546,0.7532005906105042,0.016199631616473198,0.9967670440673828,0.5203908681869507,0.9434593915939331,0.28175681829452515,0.7437759637832642,0.5458592176437378,0.9438207745552063,0.30277174711227417,0.47459614276885986,0.5113912224769592,1.1199538707733154,0.59747314453125,0.47342464327812195,0.5451606512069702,1.1049315929412842,0.585739016532898,0.23767408728599548,0.42994967103004456,0.7110527157783508,-0.15622937679290771,0.8525416851043701,0.5116461515426636,0.5868765115737915,-0.16736005246639252,0.17687036097049713,-179.19705242644963,0.5204594284296036,0.753019779920578,172.93090291648397,175.9780311266805,1.0557679227738432,-0.003654650941601674,-0.08025680045653415,2.8019704249599537,0.8238109595555632,1.726590095459309,1.1943372812254518,10,1762115289.1884155
0.5115483403205872,0.16514259576797485,0.13975748419761658,0.9986690282821655,0.4400521218776703,0.3384459912776947,-0.14174939692020416,0.9997946619987488,0.5825597643852234,0.34189724922180176,-0.10486666858196259,0.9965477585792542,0.49204277992248535,0.7589088678359985,-0.008982142433524132,0.9990187287330627,0.5510868430137634,0.7526106834411621,0.00910780020058155,0.996185839176178,0.5171399712562561,0.9430100321769714,0.26890993118286133,0.7501313090324402,0.5484633445739746,0.9409703612327576,0.2857823371887207,0.47218334674835205,0.5127553343772888,1.1219677925109863,0.5429330468177795,0.4581161141395569,0.5458891987800598,1.1073918342590332,0.5527393817901611,0.23020827770233154,0.42945796251296997,0.7169291377067566,-0.15354156494140625,0.8486132025718689,0.5254772901535034,0.5864511132240295,0.08213436603546143,0.16444069147109985,-178.58593055942498,0.5215648114681244,0.7557597756385803,174.9069906066734,177.67902414030374,1.0336658502919318,0.012843148797074752,0.03183527472679677,0.19168350651706945,1.3023677317130309,1.3873211620887917,2.947619202835969,11,1762115289.2744834
0.5066555142402649,0.17054776847362518,0.1599143147468567,0.9986286163330078,0.4364587664604187,0.33926162123680115,-0.12381293624639511,0.9997829794883728,0.5754885673522949,0.34209567308425903,-0.06615041196346283,0.9963880181312561,0.4855303168296814,0.7551450729370117,-0.011618681252002716,0.9989745616912842,0.5463150143623352,0.7476712465286255,0.011704322881996632,0.9960972666740417,0.5149797201156616,0.9496572017669678,0.23518002033233643,0.7617107033729553,0.5457324385643005,0.9434804320335388,0.2611914277076721,0.4763335883617401,0.5125243067741394,1.1005463600158691,0.4744223952293396,0.45811331272125244,0.5469952821731567,1.1474326848983765,0.4878038465976715,0.23089611530303955,0.4289322793483734,0.7143665552139282,-0.1144447773694992,0.8502222895622253,0.5371941328048706,0.5975453853607178,0.1366245448589325,0.1552066206932068,-178.61240994571924,0.5159226655960083,0.7514081597328186,171.61796333698078,176.11522780057803,1.0063566261952626,-0.07277558921937659,-0.05612960366078677,-1.1043589174396446,-1.13462076315766,1.1677836214628647,16.657041305487496,12,1762115289.3520114
0.49779295921325684,0.17879986763000488,0.15159177780151367,0.9985433220863342,0.43015116453170776,0.342088520526886,-0.13809362053871155,0.9997565150260925,0.5666311979293823,0.34274613857269287,-0.0846596285700798,0.9963153600692749,0.4881572127342224,0.7562875747680664,-0.008604396134614944,0.9988009333610535,0.5470077991485596,0.746520459651947,0.008638710714876652,0.9957972764968872,0.5143170952796936,0.9274581670761108,0.25438591837882996,0.7486767172813416,0.54661625623703,0.943088710308075,0.26523327827453613,0.4710177481174469,0.5099477767944336,1.0742911100387573,0.5148321986198425,0.43061399459838867,0.5523630380630493,1.1303359270095825,0.49796828627586365,0.22520241141319275,0.42820462584495544,0.7177808880805969,-0.10818745195865631,0.8422958254814148,0.5386003851890564,0.6022146940231323,0.14834488928318024,0.14655497670173645,-177.3134188431713,0.517582505941391,0.7514040172100067,173.31238291294173,178.18320451258447,0.9898886618824833,0.027523275810947045,-6.869082211547965e-05,1.6631438881659908,0.9295954099226723,0.2760729611840661,27.824334498490916,13,1762115289.4123182
0.488086462020874,0.19163267314434052,0.1406344622373581,0.9983961582183838,0.42600545287132263,0.35362622141838074,-0.1469719111919403,0.9997288584709167,0.5570613145828247,0.3430015444755554,-0.07857032120227814,0.9963211417198181,0.48714661598205566,0.7529702186584473,-0.009040425531566143,0.9986928701400757,0.5463804006576538,0.7378588318824768,0.009113372303545475,0.9956803321838379,0.5132554769515991,0.9206741452217102,0.2410973757505417,0.7294699549674988,0.5472277402877808,0.9413829445838928,0.24672046303749084,0.45532888174057007,0.5073117613792419,1.081376552581787,0.47892314195632935,0.40402257442474365,0.5587447881698608,1.1229581832885742,0.4609633982181549,0.21360334753990173,0.4242696762084961,0.7212954163551331,-0.102488674223423,0.8321777582168579,0.5263173580169678,0.6059218645095825,0.22902683913707733,0.137543186545372,-176.36455088196684,0.5167635083198547,0.745414525270462,173.8491406862881,177.7696106868461,0.9692974197215976,-0.010654556789667782,-0.07791888563904854,-0.49666552729014757,-1.0127737858479187,-4.63482322010643,9.050626291380658,14,1762115289.4891865
0.48437976837158203,0.19618593156337738,0.1343931406736374,0.9981727600097656,0.424262672662735,0.35749608278274536,-0.1447189450263977,0.9996758699417114,0.5559104681015015,0.343494713306427,-0.06741762161254883,0.9962357878684998,0.48575359582901,0.7460885047912598,-0.008626950904726982,0.9985199570655823,0.546256422996521,0.7297146916389465,0.008663712069392204,0.9955691695213318,0.5097324252128601,0.9105172753334045,0.23585104942321777,0.7009544968605042,0.5479102730751038,0.9404642581939697,0.2212669402360916,0.450251966714859,0.5073018074035645,1.0765658617019653,0.45287322998046875,0.37960752844810486,0.5661627054214478,1.1303390264511108,0.4101702570915222,0.21010710299015045,0.4222171902656555,0.7110012173652649,-0.10372574627399445,0.8258368968963623,0.5126989483833313,0.6032233238220215,0.22062242031097412,0.12827058136463165,-176.1724735402125,0.5160050094127655,0.7379015982151031,173.76017629893303,176.3847158835469,0.9561164753160596,-0.010488579642487422,-0.1038893174819826,0.00229514441057626,-0.3591210747814033,-6.070857590690557,3.275877503488728,15,1762115289.5615032
0.48053091764450073,0.20682580769062042,0.14196038246154785,0.9979222416877747,0.4208633303642273,0.3591644763946533,-0.12478175014257431,0.9996354579925537,0.5526254177093506,0.3455375134944916,-0.058597587049007416,0.9961339831352234,0.4833962917327881,0.7352453470230103,-0.006555431522428989,0.998368501663208,0.5427733063697815,0.721329927444458,0.006580034736543894,0.9954857230186462,0.5029566884040833,0.8890259861946106,0.22250327467918396,0.6699880361557007,0.5473405122756958,0.9397193193435669,0.19606418907642365,0.4392724335193634,0.5052412152290344,1.0684460401535034,0.4268874228000641,0.35412684082984924,0.5688897967338562,1.140773892402649,0.37229394912719727,0.20305325090885162,0.42119988799095154,0.7054110765457153,-0.07607825100421906,0.8198975324630737,0.5223816633224487,0.6003402471542358,0.2525431513786316,0.11962038278579712,-175.99205667863146,0.5130847990512848,0.7282876372337341,171.78066655233408,176.27423866599185,0.9357274861686969,-0.050359556937043616,-0.16579449953950398,-0.6875822295838523,-1.067566084158074,-5.9045931718161455,2.2101555262068113,16,1762115289.6194904
0.47245779633522034,0.2107495218515396,0.2510332465171814,0.9975518584251404,0.4157949984073639,0.362075537443161,-0.0334443673491478,0.9996221661567688,0.5449904203414917,0.3461247384548187,0.025210877880454063,0.9961281418800354,0.47695431113243103,0.7232987880706787,-5.021964170737192e-05,0.9983285069465637,0.530418872833252,0.7136246562004089,0.0003135446459054947,0.9956178069114685,0.5038818717002869,0.8963371515274048,0.14169523119926453,0.656542181968689,0.542191743850708,0.945158839225769,0.09925264120101929,0.4591052532196045,0.5044645071029663,1.0602450370788574,0.3562793731689453,0.3303055763244629,0.5685250759124756,1.1799589395523071,0.24033045768737793,0.21188341081142426,0.4211421012878418,0.7015013098716736,0.01256033219397068,0.8056380748748779,0.525492250919342,0.6008046269416809,0.2397601157426834,0.11107382923364639,-176.34202017682503,0.5036865919828415,0.7184617221355438,165.1120613285507,171.66415509143633,0.9128292587864337,-0.14798287189113093,-0.15471750351947441,-1.5371632488228562,0.17441685111138092,-7.038267025515148,1.7307311660273028,17,1762115289.6829991
0.4642888605594635,0.20834419131278992,0.21022753417491913,0.9973176121711731,0.4119141101837158,0.3616747260093689,-0.057380788028240204,0.9995896816253662,0.537940502166748,0.34505319595336914,-0.025112394243478775,0.9960860013961792,0.4728337228298187,0.7155402302742004,-0.002671993337571621,0.9981219172477722,0.5273393988609314,0.7037560343742371,0.0028917831368744373,0.995380163192749,0.4978925287723541,0.8757836222648621,0.18846026062965393,0.6381007432937622,0.5354469418525696,0.9299157857894897,0.17519846558570862,0.44999364018440247,0.5036194920539856,1.0561935901641846,0.39526641368865967,0.3118288815021515,0.556537926197052,1.156432867050171,0.35329577326774597,0.20601823925971985,0.4175238013267517,0.6970593929290771,-0.029884835705161095,0.8006760478019714,0.5247327089309692,0.6019187569618225,0.23846852779388428,0.10430833697319031,-175.96072381039943,0.5000865608453751,0.7096481323242188,175.3116323698617,177.2876013358412,0.9151995773785246,-0.04612149803902403,-0.11291456925727271,1.3049884778714778,0.5355547985500069,-7.513335068647752,1.8761598658489707,18,1762115289.7610545
0.4567163586616516,0.20680929720401764,0.11005063354969025,0.9973037838935852,0.4103955328464508,0.35986053943634033,-0.14278563857078552,0.9996052980422974,0.5291110277175903,0.3425915539264679,-0.03389442339539528,0.9961583614349365,0.4665079116821289,0.7024045586585999,-0.008909149095416069,0.9981973171234131,0.5165818929672241,0.6930350661277771,0.008866642601788044,0.9955917596817017,0.4864845871925354,0.8500458598136902,0.24163565039634705,0.616936206817627,0.5252681970596313,0.890757143497467,0.22940759360790253,0.4367963373661041,0.49309563636779785,0.9880409240722656,0.4814662039279938,0.2952791750431061,0.5397705435752869,1.063336968421936,0.4510731101036072,0.20132046937942505,0.41360902786254883,0.6905903816223145,-0.09093216061592102,0.8075988292694092,0.515283465385437,0.5898594260215759,0.31007716059684753,0.09799564629793167,-176.40130413927076,0.4915449023246765,0.6977198123931885,177.3556657940375,175.8197668121167,0.8949983018388414,-0.14610342275255697,-0.20403161346100518,-1.7101715525898817,-1.5585394800086942,-8.276496454595593,2.064050549810803,19,1762115289.8195176
0.45696479082107544,0.20511481165885925,0.09317415207624435,0.9967865943908691,0.4097006320953369,0.35925766825675964,-0.1562879979610443,0.9995438456535339,0.5257860422134399,0.3410685956478119,-0.049504149705171585,0.996032178401947,0.4662865698337555,0.6967201828956604,-0.009700597263872623,0.9980713129043579,0.5163977742195129,0.6887388825416565,0.009622802957892418,0.9955657720565796,0.48197871446609497,0.8374810814857483,0.24048462510108948,0.5961449146270752,0.528863251209259,0.892878532409668,0.2177366018295288,0.4325651526451111,0.4915352463722229,0.9935709834098816,0.4779326319694519,0.279325395822525,0.5431261658668518,1.0797419548034668,0.42585134506225586,0.1978624165058136,0.41439515352249146,0.6867697238922119,-0.10535888373851776,0.7897873520851135,0.49935489892959595,0.5471981763839722,0.33259421586990356,0.09035489708185196,-176.05921409582547,0.4913421720266342,0.6927295327186584,175.8590530114517,177.41623974663767,0.9076255053604403,-0.0022085522676093287,-0.05436431356150116,1.5675966817775633,1.6304817670176261,-8.905098072675557,1.9813099770511886,20,1762115289.911311
0.45717042684555054,0.2049102783203125,0.06489534676074982,0.9969940185546875,0.4080384373664856,0.35369881987571716,-0.1648830622434616,0.9995547533035278,0.5228003263473511,0.333827406167984,-0.0628739446401596,0.9960797429084778,0.46442198753356934,0.6849893927574158,-0.009754945524036884,0.9981610178947449,0.5094136595726013,0.6785634756088257,0.009687375277280807,0.9958286285400391,0.4703938364982605,0.7838323712348938,0.2758727967739105,0.5981005430221558,0.5223843455314636,0.8631716966629028,0.2444864958524704,0.45952123403549194,0.47591981291770935,0.9206251502037048,0.5277982950210571,0.29192912578582764,0.5410791635513306,1.0309088230133057,0.47633880376815796,0.2349451333284378,0.41490668058395386,0.668685793876648,-0.10932981967926025,0.784717857837677,0.49607008695602417,0.5037685632705688,0.3484346270561218,0.08381238579750061,-176.3607557004668,0.4869178235530853,0.6817764341831207,170.58474146496644,177.37767477681703,0.8876796417385748,-0.05822901337031796,-0.14415413362787152,-0.7372873538472541,-1.1817271321237734,-9.823556129777796,1.7750587571575203,21,1762115289.9872928
0.4547089636325836,0.20032034814357758,0.048998478800058365,0.997257649898529,0.4077076017856598,0.3413507342338562,-0.16980625689029694,0.9995816946029663,0.5206663012504578,0.32549646496772766,-0.0864049568772316,0.9962973594665527,0.44785618782043457,0.6573401689529419,-0.009644655510783195,0.9982805848121643,0.5038663744926453,0.649978756904602,0.009561887010931969,0.9961060881614685,0.46580061316490173,0.7758619785308838,0.26809996366500854,0.6136528849601746,0.5169818997383118,0.8143742680549622,0.2536558508872986,0.4894740581512451,0.468332439661026,0.898099958896637,0.511168897151947,0.3282161056995392,0.5225704908370972,0.9686275720596313,0.48039737343788147,0.28340238332748413,0.4151793420314789,0.6351865530014038,-0.10583043098449707,0.7843883037567139,0.5036787986755371,0.5297239422798157,0.20440569519996643,0.08183802664279938,-177.9121834495948,0.4758612811565399,0.653659462928772,175.4000328396429,178.56154536155267,0.859435356739947,-0.1489752320986861,-0.37884649362330947,-1.2227094612652811,-3.1622316948771414,-7.98953404982282,2.8745947870982307,22,1762115290.06151
0.45578092336654663,0.19168077409267426,0.06459450721740723,0.9975014925003052,0.40805506706237793,0.3296368420124054,-0.14632724225521088,0.9996004700660706,0.5190392136573792,0.3178900480270386,-0.08499906957149506,0.9964598417282104,0.45471224188804626,0.6326369643211365,-0.007126189768314362,0.9983936548233032,0.5001899003982544,0.6307635307312012,0.007005310617387295,0.9963514804840088,0.46311527490615845,0.7649586796760559,0.25644999742507935,0.6338415741920471,0.5118470191955566,0.7856327295303345,0.24145884811878204,0.513614296913147,0.468949556350708,0.8922554850578308,0.4569854140281677,0.3722380995750427,0.5105608105659485,0.9366496801376343,0.4347631335258484,0.32473787665367126,0.41540685296058655,0.6109228730201721,-0.10329358279705048,0.7829751968383789,0.5052972435951233,0.5411528944969177,0.08762418478727341,0.07976324111223221,-177.4147427612153,0.47745107114315033,0.6317002475261688,174.24053679992534,174.71215329422566,0.817879941009804,0.020864036158149663,-0.28818766505212834,2.228931282640331,1.1897855020445165,-6.041810808021294,6.1115201223217515,23,1762115290.1377077
0.4576299786567688,0.1837620586156845,0.06358083337545395,0.9977090358734131,0.4084204137325287,0.32017752528190613,-0.11579927057027817,0.9995725750923157,0.5140250325202942,0.3155275583267212,-0.08245742321014404,0.996519923210144,0.45686882734298706,0.6230360269546509,-0.005509492009878159,0.9984963536262512,0.49098706245422363,0.6195286512374878,0.005422574933618307,0.9965817332267761,0.46660947799682617,0.7710155844688416,0.21209478378295898,0.6597588658332825,0.5020977854728699,0.784399151802063,0.20134861767292023,0.5441368818283081,0.4733343720436096,0.8947001099586487,0.3729960024356842,0.4239863157272339,0.5008741021156311,0.9173423647880554,0.35972028970718384,0.37432539463043213,0.4271157383918762,0.5938840508460999,-0.10182067006826401,0.7464516758918762,0.4979284405708313,0.5451232194900513,0.01262657344341278,0.07730786502361298,-177.60230997315503,0.47392794489860535,0.6212823390960693,176.64416998954775,177.15373862023924,0.7837098661447849,-0.04217691710502656,-0.12471743269046892,-0.7546913949279255,1.956975129725332,-2.5212107530089507,4.617385191641684,24,1762115290.2212398
0.45831117033958435,0.1794077605009079,0.05764598771929741,0.9979259371757507,0.40883779525756836,0.3172367513179779,-0.12062115967273712,0.9995964169502258,0.5149648189544678,0.314290851354599,-0.09411583840847015,0.9967566132545471,0.44816142320632935,0.626501739025116,-0.006020046770572662,0.9986313581466675,0.49357539415359497,0.6113237738609314,0.00588216632604599,0.9968701601028442,0.46014848351478577,0.7656494379043579,0.22167184948921204,0.6909213066101074,0.5022880434989929,0.7684219479560852,0.21961656212806702,0.58035808801651,0.47236695885658264,0.8939101099967957,0.41517072916030884,0.47877833247184753,0.5011083483695984,0.9123364686965942,0.3871372640132904,0.42772603034973145,0.42599982023239136,0.5951355695724487,-0.07793226093053818,0.7275412678718567,0.5005239248275757,0.5472968220710754,0.07670702785253525,0.08053035289049149,-178.30569329532656,0.47086840867996216,0.6189127564430237,177.8241152750207,175.12115611202057,0.8016046306003678,-0.04163003561997573,-0.03224207958371992,0.0074412244456669345,1.2582796766207407,-1.5900220084905081,1.624360126990148,25,1762115290.2947333
0.4587855935096741,0.17897334694862366,0.06421591341495514,0.9981152415275574,0.40933340787887573,0.3154103755950928,-0.10391531139612198,0.9996057152748108,0.5138459205627441,0.3136254549026489,-0.095794677734375,0.9969643354415894,0.44787678122520447,0.6274417042732239,-0.005450439173728228,0.9987512230873108,0.4943303167819977,0.6090598106384277,0.005302801262587309,0.9971218109130859,0.4598284363746643,0.765214204788208,0.2209593951702118,0.7176067233085632,0.5018025636672974,0.7564620971679688,0.21986818313598633,0.6115439534187317,0.4723687171936035,0.8976982831954956,0.4023212492465973,0.527543842792511,0.5001075863838196,0.9011296629905701,0.4040137231349945,0.47310030460357666,0.4253878593444824,0.5802563428878784,-0.058009542524814606,0.6878005862236023,0.5027177333831787,0.548683226108551,0.06649146229028702,0.08357012271881104,-178.20589940061603,0.4711035490036011,0.6182507574558258,175.12890142316076,175.78352372799074,0.7966658693847932,0.0045709240566168905,-0.012868686447355004,0.898106606116678,0.37660196845391725,-0.9784329020681907,1.7541474250607725,26,1762115290.346176
0.4593378007411957,0.17963792383670807,0.06249158829450607,0.9982703328132629,0.40968847274780273,0.31353384256362915,-0.10909557342529297,0.9996064305305481,0.5128298997879028,0.3135303258895874,-0.09372439235448837,0.9970864653587341,0.4484875798225403,0.6174283623695374,-0.006062435917556286,0.998856246471405,0.4960092604160309,0.6044476628303528,0.005887932609766722,0.997326672077179,0.45421186089515686,0.7622361183166504,0.21456138789653778,0.7418191432952881,0.49943527579307556,0.7393983006477356,0.22086334228515625,0.6381873488426208,0.46801820397377014,0.904852569103241,0.38839560747146606,0.5715000033378601,0.4973985552787781,0.8912335634231567,0.4079253673553467,0.512591540813446,0.42109090089797974,0.5676934719085693,-0.05035296082496643,0.6539081335067749,0.5039876103401184,0.5381561517715454,0.07029563188552856,0.08218753337860107,-177.88386732871476,0.4722484201192856,0.6109380125999451,173.50006237722488,172.93250466973825,0.7933005372858035,0.01521565026996882,-0.0971883792998555,0.14147132289654635,-1.1206317809387256,-0.00195353686893396,1.8670720695285101,27,1762115290.421419
0.46199870109558105,0.17995916306972504,0.05652201920747757,0.9984217286109924,0.4122064709663391,0.3096804916858673,-0.1084739938378334,0.9996146559715271,0.5131040215492249,0.3133435547351837,-0.09319227188825607,0.9971469044685364,0.4474329948425293,0.6115971207618713,-0.00613251980394125,0.998957633972168,0.49290579557418823,0.598267674446106,0.005971341393887997,0.9975385665893555,0.4514949321746826,0.7606980204582214,0.21527345478534698,0.7654458284378052,0.49163317680358887,0.7391544580459595,0.2237158566713333,0.666283130645752,0.4652595520019531,0.9062706232070923,0.39053624868392944,0.6128171682357788,0.49045664072036743,0.8840029239654541,0.4114091992378235,0.5552194714546204,0.41990146040916443,0.5510668158531189,-0.04754543676972389,0.6428835391998291,0.5009598731994629,0.5194476842880249,0.10103803873062134,0.08186589181423187,-178.53304343945555,0.47016939520835876,0.6049323976039886,173.6861444987879,175.23443816681552,0.7939627340168193,-0.029951235136119143,-0.08651920712229771,-0.650691580487516,0.1537042114879315,2.0791973190273616,1.1936614725264998,28,1762115290.4908326
0.46480831503868103,0.18083395063877106,0.06134609505534172,0.9985525608062744,0.4160989224910736,0.30605289340019226,-0.1046624630689621,0.9996249079704285,0.5133184790611267,0.3132854104042053,-0.09308965504169464,0.9971312880516052,0.45622149109840393,0.604009747505188,-0.007643184158951044,0.9990531802177429,0.4940670430660248,0.5945489406585693,0.0074364556930959225,0.9977262616157532,0.45337048172950745,0.7589235901832581,0.18548038601875305,0.7873283624649048,0.4925559163093567,0.7241681218147278,0.24149730801582336,0.6870274543762207,0.464843213558197,0.903685450553894,0.33075112104415894,0.6498799324035645,0.49466079473495483,0.8439395427703857,0.43368759751319885,0.5885058045387268,0.419513076543808,0.544047474861145,-0.023113228380680084,0.6364215016365051,0.5022634267807007,0.5099329352378845,0.1147502213716507,0.08268780261278152,-177.93634564995617,0.47514426708221436,0.5992793440818787,172.71915364955254,176.90707497194995,0.7638077184646377,0.05675787603975693,-0.06449519086917967,0.9892566298041576,0.25127006606167557,4.25460441426423,1.5369463645422665,29,1762115290.5784833
0.466236412525177,0.1815844625234604,0.06367997825145721,0.9986610412597656,0.419437974691391,0.30416983366012573,-0.10085195302963257,0.9996340870857239,0.5125647783279419,0.31348416209220886,-0.09241708368062973,0.9971469640731812,0.4647952914237976,0.5981225371360779,-0.007184779737144709,0.9991374611854553,0.4952664375305176,0.5929034948348999,0.006966053042560816,0.9978984594345093,0.4534282684326172,0.7454139590263367,0.19258028268814087,0.8057602047920227,0.49048224091529846,0.7278908491134644,0.23894986510276794,0.7029005289077759,0.465487003326416,0.8973326683044434,0.3438805639743805,0.6818452477455139,0.48655128479003906,0.8464104533195496,0.42919522523880005,0.6147318482398987,0.4191167950630188,0.5413799285888672,-0.031888239085674286,0.6316676735877991,0.5027272701263428,0.5168971419334412,0.10087233781814575,0.0819929763674736,-177.19836460136298,0.4800308644771576,0.5955130159854889,169.50622920821843,178.24109154645632,0.7621215218408629,0.023358852792514546,-0.018003755263922682,-0.15965360032595205,0.22223778892438958,5.7115970619702665,3.4513824710168945,30,1762115290.7876801
0.4676545560359955,0.1854402720928192,0.08045447617769241,0.9987298250198364,0.4195351004600525,0.30609866976737976,-0.09041637182235718,0.9996337890625,0.5128936171531677,0.3137509822845459,-0.0714639201760292,0.9970117211341858,0.46447762846946716,0.5881783962249756,-0.00720696896314621,0.9992148876190186,0.4961106777191162,0.5822006464004517,0.006994405295699835,0.9980487823486328,0.4546796679496765,0.7447592616081238,0.17391616106033325,0.822699248790741,0.492509126663208,0.7101539373397827,0.2396896332502365,0.7157246470451355,0.4653197228908539,0.8889514207839966,0.3198544681072235,0.7092258334159851,0.4862910211086273,0.8215585350990295,0.44329872727394104,0.6307249069213867,0.4190717339515686,0.5434083342552185,-0.02841930091381073,0.6133615374565125,0.5033620595932007,0.5078735947608948,0.1364627182483673,0.07788584381341934,-177.07187167672933,0.4802941530942917,0.5851895213127136,173.45232641143622,179.16639460382908,0.7344335967509048,0.0030145374786052976,-0.11819941910140884,-0.2329333552582264,-1.1471957546801468,4.6858846497380355,6.365260113661964,31,1762115290.8750198
0.46936845779418945,0.1931135207414627,0.09600919485092163,0.9987916946411133,0.4204729199409485,0.30752038955688477,-0.07446582615375519,0.9996280670166016,0.5132104754447937,0.31628939509391785,-0.06845255196094513,0.9970480799674988,0.4639664590358734,0.5940719842910767,-0.006741742137819529,0.9992802739143372,0.496640682220459,0.5852504968643188,0.00657686498016119,0.9981614947319031,0.4550887942314148,0.7477391362190247,0.1695617288351059,0.8380524516105652,0.49297961592674255,0.7079862952232361,0.23427195847034454,0.7266138792037964,0.46426957845687866,0.8904015421867371,0.31398680806159973,0.732170581817627,0.4831274449825287,0.8039320111274719,0.43585601449012756,0.6412168741226196,0.423515647649765,0.5463087558746338,-0.018004020676016808,0.5784690380096436,0.5052331686019897,0.518440842628479,0.06352762877941132,0.07695730030536652,-177.22524643045344,0.4803035706281662,0.5896612405776978,174.03490645636484,176.637171512389,0.7110530468340063,0.00011574921979165141,0.05496109947107002,-0.035628486583625475,2.1282848769706595,5.4016689985610435,39.98259116331912,32,1762115290.9563813
0.47177252173423767,0.20067733526229858,0.0911068469285965,0.9988266229629517,0.4260450303554535,0.3079361319541931,-0.07094461470842361,0.999577522277832,0.5106194019317627,0.3195905387401581,-0.06497897207736969,0.9969263076782227,0.46376901865005493,0.5889778733253479,-0.006276166532188654,0.9993317723274231,0.49430370330810547,0.581543505191803,0.00616875197738409,0.998238742351532,0.46152663230895996,0.7438139915466309,0.14584574103355408,0.8519415855407715,0.4918745160102844,0.6889535784721375,0.2247699797153473,0.7365535497665405,0.4648680090904236,0.8842247128486633,0.2818857431411743,0.7547528147697449,0.48696938157081604,0.7841911911964417,0.4264710545539856,0.656692624092102,0.4331375062465668,0.548622190952301,-0.018706543371081352,0.5361518859863281,0.5053895115852356,0.5345646739006042,0.008596502244472504,0.0740605965256691,-177.74220695000068,0.4790363609790802,0.5852606892585754,178.3320348756688,178.821062622419,0.6859918910287361,-0.02235690069278236,-0.07763726302594884,-0.3964764652490308,-2.3393827726214105,7.84598443097236,13.672798955506765,33,1762115291.0130622
0.47420763969421387,0.20824703574180603,0.07218267023563385,0.9988049268722534,0.4340944290161133,0.3084142804145813,-0.06273411214351654,0.999484121799469,0.5053969621658325,0.3194241225719452,-0.06826073676347733,0.9969680905342102,0.4667072892189026,0.5822446346282959,-0.005496895406395197,0.9993710517883301,0.4911762773990631,0.5762816071510315,0.005440130364149809,0.9983011484146118,0.46580561995506287,0.7347942590713501,0.14712032675743103,0.8624453544616699,0.48942017555236816,0.6831998229026794,0.2091931849718094,0.7355926632881165,0.4652760922908783,0.8729671239852905,0.2822727560997009,0.7723464965820312,0.48842644691467285,0.7684546709060669,0.4066374897956848,0.6606998443603516,0.4411415457725525,0.5427687764167786,-0.033512551337480545,0.4945046901702881,0.5077077150344849,0.5423021912574768,-0.05492779612541199,0.08054698258638382,-178.0150809141794,0.47894178330898285,0.5792631208896637,179.237576816699,175.64772814167483,0.6702620824559259,-0.001213891183940757,-0.07697795220171975,0.2713675735333773,0.008462162328429095,8.777732768535396,12.058416289348543,34,1762115291.090975
0.47506722807884216,0.21047326922416687,0.07355672121047974,0.9987959265708923,0.43339601159095764,0.3088878393173218,-0.0535099096596241,0.9994322657585144,0.5053495168685913,0.31972411274909973,-0.06908449530601501,0.9970414042472839,0.4668082296848297,0.578126847743988,-0.0042858123779296875,0.9994084239006042,0.4896174967288971,0.5717124342918396,0.004271704703569412,0.9983706474304199,0.4663000702857971,0.7356647849082947,0.1392277628183365,0.8723151683807373,0.48778384923934937,0.6991016268730164,0.17662306129932404,0.7364121675491333,0.4654960632324219,0.8703455328941345,0.2614520192146301,0.7888268232345581,0.48946818709373474,0.773494303226471,0.3515046238899231,0.6632421016693115,0.4415053427219391,0.5436214804649353,-0.036654092371463776,0.46052801609039307,0.5115249752998352,0.5461111068725586,-0.027677204459905624,0.08816666901111603,-178.0572536819058,0.4782128632068634,0.5749196410179138,179.55860722140008,166.532582329555,0.6543128517816627,-0.01005063430541995,-0.059889592394252296,-0.12184445634944055,0.23562096148110886,8.564442457647427,20.03806048019266,35,1762115291.1634998
0.4764787256717682,0.21601329743862152,0.07727208733558655,0.9986132383346558,0.43417853116989136,0.3114449679851532,-0.05718543380498886,0.9993146657943726,0.506243884563446,0.32296913862228394,-0.07353047281503677,0.9969185590744019,0.46671992540359497,0.5740249752998352,0.0014397503109648824,0.9994317889213562,0.4901648163795471,0.5698694586753845,-0.0014717062003910542,0.9984110593795776,0.46741771697998047,0.7266479730606079,0.15430989861488342,0.8779060244560242,0.4887588918209076,0.6911622285842896,0.1835068017244339,0.7406609058380127,0.46555739641189575,0.8614124655723572,0.28925594687461853,0.7981758117675781,0.4892271161079407,0.7977657914161682,0.35898327827453613,0.6727482080459595,0.4412475526332855,0.5385341048240662,-0.03447653353214264,0.4260903596878052,0.5104058384895325,0.5483853816986084,-0.013542264699935913,0.08508899062871933,-178.14930293317673,0.47844237089157104,0.5719472169876099,179.15567947566754,177.9294480718553,0.6613696664577008,0.0030487708318817264,-0.03948556099600307,0.17401196978864064,0.27104633057940447,9.08540397167366,11.80860050597534,36,1762115291.2387786
0.4784809648990631,0.2205822616815567,0.07224477082490921,0.9986430406570435,0.43775978684425354,0.3140770494937897,-0.06416866928339005,0.9992946982383728,0.5066404938697815,0.32527291774749756,-0.07134763896465302,0.9969146847724915,0.4676172733306885,0.5694565176963806,0.0012445006286725402,0.999468982219696,0.4907011389732361,0.5647306442260742,-0.0012780855176970363,0.9984621405601501,0.46765226125717163,0.7201461791992188,0.14997753500938416,0.886932909488678,0.4893001914024353,0.6619729399681091,0.19214852154254913,0.7407460808753967,0.4656715393066406,0.8569628596305847,0.2914697527885437,0.8132968544960022,0.4903203845024109,0.7349328994750977,0.40938955545425415,0.6672363877296448,0.4404377341270447,0.5335481762886047,-0.04742026701569557,0.4022875726222992,0.5080419778823853,0.5438928604125977,0.0019150752341374755,0.08259698003530502,-178.3888842295937,0.4791592061519623,0.5670935809612274,178.48734609211817,171.84217128306656,0.639087363942514,0.008984896796770173,-0.06083604029513105,0.07440409549335081,-0.2676093987892625,9.232117586668782,14.459963025376512,37,1762115291.3185608
0.48190587759017944,0.22409066557884216,0.07246565073728561,0.998677134513855,0.43935146927833557,0.3141942620277405,-0.06534194946289062,0.9993358850479126,0.5130184888839722,0.32644739747047424,-0.05647284910082817,0.9970812797546387,0.46753281354904175,0.5583588480949402,-0.011626350693404675,0.9995102882385254,0.49185672402381897,0.554938793182373,0.011610669083893299,0.9985336065292358,0.46730390191078186,0.7084922194480896,0.0900869369506836,0.8959686756134033,0.4896276593208313,0.6532090306282043,0.19278481602668762,0.7312569618225098,0.46573466062545776,0.8509348630905151,0.18749135732650757,0.8279228210449219,0.49399814009666443,0.731046199798584,0.38725584745407104,0.6582287549972534,0.440106064081192,0.5308701395988464,-0.0661139190196991,0.4030422270298004,0.5176345109939575,0.5438048839569092,-0.03263479471206665,0.10100091248750687,-179.14914287754004,0.47969476878643036,0.5566488206386566,179.31259377611008,173.08466223353034,0.6062714285446865,0.008682877474816974,-0.16933700803228374,-0.004896526752938048,-1.7590857691116961,9.44362868202498,2.5040955060455112,38,1762115291.3802412
0.4852958619594574,0.22552761435508728,0.06697650253772736,0.9987276196479797,0.44177865982055664,0.3130122125148773,-0.08413571864366531,0.9993804097175598,0.517392635345459,0.3266507089138031,-0.058847151696681976,0.9972341656684875,0.46729129552841187,0.5545494556427002,-0.017020422965288162,0.9995524883270264,0.4974897503852844,0.5508585572242737,0.01688295230269432,0.9986312389373779,0.4667317271232605,0.7007302641868591,0.11167515814304352,0.9053360223770142,0.4909287989139557,0.641766369342804,0.20426881313323975,0.7341464757919312,0.46620163321495056,0.8416302800178528,0.22208929061889648,0.8429991006851196,0.4994708001613617,0.6966728568077087,0.40820997953414917,0.6583812832832336,0.43965983390808105,0.5276387929916382,-0.062950000166893,0.418131947517395,0.5242193937301636,0.5398960113525391,-0.019154762849211693,0.11428581178188324,-179.30992402024174,0.48239052295684814,0.5527040064334869,176.6946612191731,168.42593488922915,0.5975976547764393,0.037690505715171456,-0.05515415462463874,0.4055682042428998,1.596439889127004,10.22450919530941,0.7000019479029086,39,1762115291.4517646
0.485990047454834,0.22637493908405304,0.0734180361032486,0.9988120794296265,0.44330349564552307,0.31270167231559753,-0.08323164284229279,0.9994300007820129,0.5194054245948792,0.32669398188591003,-0.048046521842479706,0.9974404573440552,0.4671597480773926,0.5486974716186523,-0.021876787766814232,0.9995920062065125,0.501175045967102,0.5445941686630249,0.021679578348994255,0.9987296462059021,0.46602240204811096,0.6937907934188843,0.09854044020175934,0.914025604724884,0.4917828142642975,0.6438451409339905,0.19488047063350677,0.7340224981307983,0.46643561124801636,0.8369826674461365,0.14476048946380615,0.8571080565452576,0.5011419057846069,0.6895954012870789,0.34599214792251587,0.657341718673706,0.43889251351356506,0.5226566791534424,-0.06335698068141937,0.4515940248966217,0.5285972952842712,0.5389845967292786,-0.06846974790096283,0.15846219658851624,-179.2898762495926,0.4841673970222473,0.5466458201408386,158.1882217299553,165.67138695059975,0.5637829745011348,0.02626584620589759,-0.08955242948724726,-0.1688799197808771,-0.5084771143229555,10.418201747162728,0.575578137519054,40,1762115291.5194142
0.4894629120826721,0.22559894621372223,0.0730992928147316,0.998879075050354,0.44593745470046997,0.3096277117729187,-0.08856239169836044,0.9994687438011169,0.5212134122848511,0.3260570764541626,-0.04822641611099243,0.9976015686988831,0.4685278534889221,0.5442092418670654,-0.023618794977664948,0.9996283054351807,0.5043187737464905,0.5417816042900085,0.023408563807606697,0.9988272786140442,0.46589750051498413,0.6834698915481567,0.11076752841472626,0.9219869375228882,0.4937191903591156,0.6337683200836182,0.21283695101737976,0.74127596616745,0.4664738178253174,0.8232927322387695,0.18076439201831818,0.8703904747962952,0.504102349281311,0.6984491348266602,0.36896786093711853,0.6744991540908813,0.43840909004211426,0.5227296948432922,-0.06827495992183685,0.4651997983455658,0.5301023721694946,0.5348033308982849,-0.028183292597532272,0.17086820304393768,-179.27532482474976,0.4864233136177063,0.542995423078537,162.57976594625313,172.74428274231457,0.5720519074070645,0.035394059094836776,-0.057272671162931624,0.14321651211383998,0.5064512030266012,12.31202590578167,0.5196161656756707,41,1762115291.5831513
0.4934276044368744,0.22432613372802734,0.06145095080137253,0.9989395141601562,0.44759297370910645,0.30444613099098206,-0.09733147919178009,0.9994946718215942,0.5239973068237305,0.3237128257751465,-0.05080869793891907,0.9977649450302124,0.46869415044784546,0.5390097498893738,-0.022939102724194527,0.9996606707572937,0.5060909986495972,0.53631192445755,0.02270091511309147,0.9989182949066162,0.46562251448631287,0.6712242364883423,0.11424201726913452,0.9292937517166138,0.49978089332580566,0.6285948753356934,0.22749236226081848,0.7576820850372314,0.46587949991226196,0.8082612752914429,0.18369947373867035,0.8827105760574341,0.505928099155426,0.6997531056404114,0.36413565278053284,0.7009844183921814,0.43774324655532837,0.5166532397270203,-0.07243874669075012,0.4647197127342224,0.5323575735092163,0.5325707197189331,-0.012716846540570259,0.18198727071285248,-179.59064259394518,0.4873925745487213,0.5376608371734619,160.79011263134842,174.90882340979678,0.570754492681987,0.020095872940548397,-0.11060299358869792,-0.3171802301527757,-1.1057078120587907,14.15307072145065,0.4987157637274935,42,1762115291.6313832
0.4958322048187256,0.22392818331718445,0.06052321195602417,0.9990007281303406,0.4496479630470276,0.2999560534954071,-0.09414245933294296,0.9995070695877075,0.5244954228401184,0.3176138699054718,-0.05299696326255798,0.9979290962219238,0.4700288772583008,0.5306714177131653,-0.02387665957212448,0.9996873736381531,0.5054141283035278,0.5276286005973816,0.023651452735066414,0.9989966154098511,0.4657859802246094,0.6505482792854309,0.09799186140298843,0.9357746839523315,0.49936771392822266,0.6188823580741882,0.22641614079475403,0.7719915509223938,0.464927613735199,0.7857210636138916,0.18664410710334778,0.8936058282852173,0.505889356136322,0.7006030678749084,0.35789966583251953,0.7231128215789795,0.4407559931278229,0.4973389208316803,-0.06375432014465332,0.4484722912311554,0.5352180004119873,0.5245373845100403,-0.018674567341804504,0.19919319450855255,-179.8310473748761,0.4877215027809143,0.5291500091552734,167.72761359215224,171.3877031982082,0.560847554825898,0.005178791962432291,-0.13399825074418448,-0.2348611384233285,-0.36834530410506755,13.274352037133271,0.22940095755540207,43,1762115291.6948977
0.4974941313266754,0.2199656367301941,0.06035382300615311,0.9990542531013489,0.45173758268356323,0.2952055335044861,-0.09607134014368057,0.999519944190979,0.5250189900398254,0.3117963969707489,-0.0590195469558239,0.9980551600456238,0.4724659025669098,0.5180917382240295,-0.022387687116861343,0.9997068643569946,0.5057575702667236,0.517444372177124,0.0221843384206295,0.9990621209144592,0.466605007648468,0.6283034682273865,0.10671792924404144,0.9410258531570435,0.499537855386734,0.613750159740448,0.1919698715209961,0.7862329483032227,0.4646562933921814,0.7512656450271606,0.21251049637794495,0.9026545286178589,0.5024851560592651,0.7088385820388794,0.3341776728630066,0.7426347732543945,0.43999409675598145,0.4905796945095062,-0.06339546293020248,0.45282813906669617,0.5349155068397522,0.5076937675476074,-0.01594533771276474,0.20746955275535583,-179.80387362093154,0.4891117364168167,0.5177680552005768,171.0889380200609,174.9214731143651,0.5529438729301853,0.019950466509509813,-0.16333606476048407,0.21198005193534022,-0.42101058475289344,12.756674415285312,1.466040400338889,44,1762115291.764582
0.4981030821800232,0.2172001153230667,0.05635446310043335,0.9991095066070557,0.4524420201778412,0.2931658923625946,-0.09630538523197174,0.9995439648628235,0.5256394743919373,0.3092748522758484,-0.07669244706630707,0.9981791377067566,0.4729733467102051,0.516613781452179,-0.017734086140990257,0.9997290968894958,0.5052002668380737,0.514487624168396,0.01748763397336006,0.9991336464881897,0.46848535537719727,0.6280011534690857,0.13568437099456787,0.9454013705253601,0.4996802806854248,0.6154617667198181,0.1939443051815033,0.7983654141426086,0.4646817147731781,0.749174177646637,0.28259849548339844,0.9101042151451111,0.49970489740371704,0.713135302066803,0.35159391164779663,0.7599477767944336,0.4394688606262207,0.48774254322052,-0.035496145486831665,0.46621203422546387,0.5353844165802002,0.5058878660202026,0.02348306030035019,0.2171565145254135,-179.98768716357648,0.4890868067741394,0.5155507028102875,176.4345572674381,177.42701662264128,0.5765316403074645,-0.0004459392605671345,-0.03966380497873992,-0.3648491165745758,2.2122385303957683,12.411539794465359,0.024363500809425776,45,1762115291.8204856
0.4984840750694275,0.21346066892147064,0.06824947148561478,0.9991704225540161,0.4522612988948822,0.29103630781173706,-0.10003314912319183,0.9995723366737366,0.5259939432144165,0.30654579401016235,-0.05315539985895157,0.9983044862747192,0.47285890579223633,0.5096684098243713,-0.02524740993976593,0.999745786190033,0.5075923204421997,0.5091521739959717,0.024941779673099518,0.9991928339004517,0.46825161576271057,0.6107404828071594,0.13282707333564758,0.9490852952003479,0.5020121932029724,0.6034570932388306,0.19899246096611023,0.8051360845565796,0.4657735228538513,0.7194322943687439,0.20382149517536163,0.9177886843681335,0.5006025433540344,0.7061387896537781,0.29072490334510803,0.7770562767982483,0.4379040598869324,0.48136892914772034,-0.056225866079330444,0.494315505027771,0.5375149250030518,0.49761590361595154,-0.0069549595937132835,0.24016152322292328,-179.70131056911362,0.490225613117218,0.5094102919101715,155.74474089985682,160.19787042260623,0.5306682512570979,0.014419579110704572,-0.07774995396240313,0.18822736585458882,-0.4822472597117428,11.878853660223417,0.5645576743437176,46,1762115291.899462
0.4985898435115814,0.20857620239257812,0.056863933801651,0.9992160797119141,0.4527534544467926,0.28779053688049316,-0.09801670908927917,0.9995802044868469,0.5265139937400818,0.30107274651527405,-0.06684593856334686,0.9984143972396851,0.472665935754776,0.5008187294006348,-0.02022147737443447,0.9997550845146179,0.5083990097045898,0.5025873780250549,0.019948367029428482,0.999238908290863,0.46849536895751953,0.6043374538421631,0.13213123381137848,0.9525666236877441,0.5041450262069702,0.6009827256202698,0.17743203043937683,0.8169176578521729,0.4703110158443451,0.7098825573921204,0.25866571068763733,0.9236253499984741,0.5013797283172607,0.7058435082435608,0.31536024808883667,0.7914896011352539,0.4396882951259613,0.47204288840293884,-0.04228409752249718,0.5031312108039856,0.5382106304168701,0.4903443157672882,0.017915096133947372,0.2458416223526001,-179.75156158548552,0.4905324727296829,0.5017030537128448,174.0242119233983,174.71952221824523,0.5499257620557262,0.00390903803458131,-0.09818133775546464,-0.1338921877029157,-0.26027229750001696,10.207970859428134,1.8888198163447172,47,1762115291.977962
0.49862009286880493,0.20548000931739807,0.046589821577072144,0.9992485642433167,0.45397767424583435,0.28485602140426636,-0.09768932312726974,0.9995772838592529,0.5270239114761353,0.2964025139808655,-0.07845969498157501,0.998496949672699,0.4730338156223297,0.4937191307544708,-0.012953316792845726,0.9997576475143433,0.5085335969924927,0.496041476726532,0.012760927900671959,0.9992747902870178,0.47060704231262207,0.5946575999259949,0.14262685179710388,0.9547858834266663,0.5055968761444092,0.5971280932426453,0.17094865441322327,0.8287033438682556,0.4746590256690979,0.6926476359367371,0.27993059158325195,0.9278970956802368,0.5013691186904907,0.7010957598686218,0.3098188638687134,0.8051466941833496,0.44201740622520447,0.46652624011039734,-0.04598810151219368,0.5092381834983826,0.537050187587738,0.47780877351760864,0.03354901820421219,0.24524934589862823,-179.9206381696032,0.4907837063074112,0.4948803037405014,176.65692294228208,175.70677265819288,0.5506574923733656,0.003869386406198362,-0.10508092204310947,-0.0006106965208868374,-0.10626428956048117,8.982480448544,3.1828421631300507,48,1762115292.0428905
0.4990041255950928,0.2045094221830368,0.050369106233119965,0.9992902278900146,0.4558194577693939,0.2834799289703369,-0.0924784317612648,0.9995869994163513,0.5271129012107849,0.29392746090888977,-0.07695639878511429,0.9985846281051636,0.4739789068698883,0.4889184236526489,-0.00654908362776041,0.9997618794441223,0.5081861615180969,0.4927920997142792,0.006382977124303579,0.9993150234222412,0.47591009736061096,0.5825904607772827,0.15837223827838898,0.9559968709945679,0.5068122744560242,0.5898829698562622,0.17142798006534576,0.8405076861381531,0.4793175756931305,0.6764562129974365,0.30830681324005127,0.9301670789718628,0.5016768574714661,0.6948558688163757,0.31736597418785095,0.8184682130813599,0.444445937871933,0.4640751779079437,-0.04908410459756851,0.525728166103363,0.5362426042556763,0.4700471758842468,0.05002318695187569,0.24688494205474854,179.89126361837967,0.4910825341939926,0.49085526168346405,177.4543249781699,174.582141180949,0.5481455219263491,0.0059882420953054375,-0.08065822288897595,0.04245996241027282,0.48940892641863504,8.336936883191685,0.44353630187372356,49,1762115292.092793
0.4991896152496338,0.20426078140735626,0.050931476056575775,0.9993357062339783,0.4571670889854431,0.28272005915641785,-0.08751669526100159,0.9995969533920288,0.527194082736969,0.2933465838432312,-0.07705280184745789,0.9986730217933655,0.4748486578464508,0.48593077063560486,-0.004031996242702007,0.999765157699585,0.507945716381073,0.49040549993515015,0.003922504372894764,0.9993500113487244,0.4775583744049072,0.5808267593383789,0.16870036721229553,0.9582321643829346,0.5069655776023865,0.5889070630073547,0.17468899488449097,0.853207528591156,0.4811384081840515,0.6761490106582642,0.32157477736473083,0.9345989227294922,0.5016947984695435,0.694710910320282,0.32405275106430054,0.8336390256881714,0.4480201303958893,0.4571130871772766,-0.04807690531015396,0.5357879400253296,0.5358477234840393,0.4636273682117462,0.05966765433549881,0.256437212228775,179.77572511343763,0.4913971871137619,0.4881681352853775,176.7908360927896,174.4775295777539,0.5527243229917744,0.004316533820888786,-0.036863068001556865,-0.022933158575074032,0.6007993423395512,8.6287443063072,0.9255955075964482,50,1762115292.1656878
0.4992685317993164,0.20429015159606934,0.05152503773570061,0.9993828535079956,0.4586123824119568,0.2828750014305115,-0.07582379877567291,0.9996054768562317,0.5275450944900513,0.2928236722946167,-0.07563717663288116,0.9987669587135315,0.4770665168762207,0.4840061664581299,-0.0030125915072858334,0.9997603297233582,0.5083324909210205,0.487740159034729,0.002912521595135331,0.9993782043457031,0.4785650372505188,0.5711893439292908,0.17760810256004333,0.9595693349838257,0.5074949264526367,0.587103009223938,0.17567923665046692,0.8635554313659668,0.48285946249961853,0.6647680997848511,0.3400843143463135,0.9372311234474182,0.5022088289260864,0.6939004063606262,0.32665374875068665,0.846861720085144,0.45448893308639526,0.45791152119636536,-0.028467869386076927,0.540318489074707,0.5354639291763306,0.459594190120697,0.06534241139888763,0.2775450646877289,179.89027324042257,0.4926995038986206,0.48587316274642944,175.71359421636404,174.43554800056538,0.5524022874247417,0.01851248555383463,-0.032623127082196564,0.20179602569401475,0.060270930952706685,8.21247048820312,0.7632990493735315,51,1762115292.2360358
0.49924761056900024,0.2045406997203827,0.05247792601585388,0.999419093132019,0.4596729278564453,0.28378477692604065,-0.06812453269958496,0.9995879530906677,0.527894139289856,0.2927882969379425,-0.07744218409061432,0.9988452196121216,0.47803062200546265,0.4804399311542511,0.003587178885936737,0.9997421503067017,0.5093119144439697,0.483919233083725,-0.0037159800995141268,0.9993984699249268,0.4819547235965729,0.5640422105789185,0.1726621687412262,0.9584612846374512,0.5090071558952332,0.5809801816940308,0.15397155284881592,0.8733883500099182,0.4844912588596344,0.6496845483779907,0.32239407300949097,0.9356894493103027,0.5032662153244019,0.6907376050949097,0.29295068979263306,0.8577560186386108,0.4591984152793884,0.4561018943786621,-0.03284170478582382,0.5320385694503784,0.5353531241416931,0.45711299777030945,0.02770543098449707,0.2807430326938629,179.96682537052402,0.4936712682247162,0.48217958211898804,176.496702276482,173.0722700871823,0.5310385436972078,0.013529471318699192,-0.051424189816735764,-0.06937643867398322,-0.2617593918579319,7.518183616142441,0.07002567527093743,52,1762115292.3078616
0.4991021752357483,0.20459140837192535,0.06551091372966766,0.9994361996650696,0.46038755774497986,0.28435906767845154,-0.055093683302402496,0.9995402693748474,0.5283240079879761,0.29225924611091614,-0.06723268330097198,0.998901903629303,0.4790169596672058,0.47871941328048706,0.00491214357316494,0.9996918439865112,0.5107631683349609,0.48032522201538086,-0.005052871070802212,0.9994017481803894,0.4847620129585266,0.5586609244346619,0.1665324866771698,0.9571458697319031,0.5117723941802979,0.581798255443573,0.1268884837627411,0.8824889063835144,0.4933288097381592,0.6532847285270691,0.28564217686653137,0.9329009652137756,0.5043752789497375,0.6903489828109741,0.22980943322181702,0.8675433993339539,0.4628390371799469,0.45069465041160583,-0.037099625915288925,0.5146321058273315,0.5358325242996216,0.4566648304462433,-0.05791773274540901,0.28462329506874084,-179.83990655088957,0.4948900640010834,0.47952231764793396,167.7758353880543,170.48051338494975,0.5052190075704617,0.02082807063290933,-0.045410144313431496,0.1247261805343461,0.10277436709348638,6.633006561051213,0.9119903527173404,53,1762115292.3663785
0.49900245666503906,0.2049814909696579,0.0720757320523262,0.9994582533836365,0.4613572061061859,0.2846776843070984,-0.052627839148044586,0.9995070695877075,0.5282069444656372,0.29136162996292114,-0.05086606740951538,0.9989330768585205,0.4813588261604309,0.4744062125682831,0.002562860492616892,0.9996402263641357,0.5118740797042847,0.4751971364021301,-0.002745183417573571,0.9993798732757568,0.48920974135398865,0.5612167716026306,0.12438659369945526,0.9581706523895264,0.5122088193893433,0.5775008201599121,0.11616933345794678,0.8900339603424072,0.4994926452636719,0.6580500602722168,0.2334994524717331,0.9335821866989136,0.5048050284385681,0.684942364692688,0.2237119972705841,0.8754526972770691,0.46481338143348694,0.4469878673553467,-0.04025256633758545,0.49729815125465393,0.5357726812362671,0.4536539614200592,-0.05863457918167114,0.2843650281429291,-179.43731886083793,0.4966164529323578,0.4748016744852066,173.78721160991222,174.8095176437889,0.49208487453720756,0.020982445566186995,-0.05737446319596173,0.0018762652931812022,-0.1454137391299633,5.709720625493835,1.273381274951082,54,1762115292.4486563
0.49895739555358887,0.20540469884872437,0.07167001068592072,0.9994855523109436,0.46151241660118103,0.28492510318756104,-0.05811881273984909,0.9994745254516602,0.5282314419746399,0.29080846905708313,-0.05362141877412796,0.998985230922699,0.4819198548793793,0.4728674292564392,0.000724838231690228,0.9995935559272766,0.5124639272689819,0.4731926918029785,-0.0008873019251041114,0.9993818402290344,0.4899895191192627,0.5571690797805786,0.13423439860343933,0.9577580094337463,0.5125201940536499,0.5748451948165894,0.11476780474185944,0.8969532251358032,0.49969226121902466,0.6542131900787354,0.24372200667858124,0.9336960911750793,0.5048068761825562,0.6823145747184753,0.20515315234661102,0.8835225701332092,0.4642229676246643,0.4500885009765625,-0.05228239297866821,0.4790993332862854,0.5356589555740356,0.45028507709503174,-0.06512095034122467,0.28189659118652344,-179.28216292095564,0.4971918910741806,0.47303006052970886,170.6777433495969,170.8032427805274,0.4874293715870091,0.009081361397594169,-0.027958985367101754,-0.18781870457147531,0.4642246758280576,5.039377465022046,2.3299523555778388,55,1762115292.512021
0.4989356994628906,0.20589174330234528,0.08053560554981232,0.9994666576385498,0.46213704347610474,0.28504183888435364,-0.039671048521995544,0.9994314908981323,0.5281641483306885,0.29019564390182495,-0.05207446962594986,0.9990167021751404,0.4826648235321045,0.4719884991645813,0.004950224421918392,0.9995355010032654,0.5128234624862671,0.4725145101547241,-0.005057387985289097,0.9993533492088318,0.4920271337032318,0.556462287902832,0.13115432858467102,0.9535094499588013,0.5125604271888733,0.5736340284347534,0.10521771758794785,0.9019213914871216,0.5015341639518738,0.6522124409675598,0.24539446830749512,0.925204336643219,0.5047594308853149,0.6819878220558167,0.21290740370750427,0.8874390125274658,0.4665137827396393,0.4462805986404419,-0.04167472943663597,0.46192699670791626,0.535597562789917,0.4509856402873993,-0.05387253686785698,0.28317874670028687,-179.1952158013837,0.4977441430091858,0.4722515046596527,173.8156943136864,176.08828404801653,0.4845796396338791,0.009862104568484693,-0.013903435943287776,0.013942496720052837,0.25100373470643617,4.463223854134288,3.0368800494327592,56,1762115292.5680184
0.4988977015018463,0.20793147385120392,0.08362340182065964,0.999470591545105,0.4629199504852295,0.2866920232772827,-0.03653016313910484,0.9994006752967834,0.5281215906143188,0.2905174791812897,-0.048770882189273834,0.9990472793579102,0.48373040556907654,0.4709346294403076,0.006309723947197199,0.9994864463806152,0.5140846967697144,0.47216469049453735,-0.006430408451706171,0.9993394613265991,0.49328938126564026,0.5542936325073242,0.13262200355529785,0.9522070288658142,0.5130529403686523,0.5721729397773743,0.10453029721975327,0.9080914855003357,0.5016211867332458,0.6501091718673706,0.250908225774765,0.9202842116355896,0.5047242045402527,0.6808615326881409,0.21331436932086945,0.893380880355835,0.4673256278038025,0.44887402653694153,-0.039481647312641144,0.4540116786956787,0.5357250571250916,0.4521030783653259,-0.07451051473617554,0.286257266998291,-178.93942895830793,0.49890755116939545,0.4715496599674225,174.37775465807823,175.96611137409127,0.48106390678943317,0.01461697624888793,-0.008817926113642287,0.05973986498980645,0.06389397885950747,3.3577606037394543,1336.103214468589,57,1762115292.6476114
0.49877825379371643,0.21189545094966888,0.08339835703372955,0.999475359916687,0.46307462453842163,0.29023852944374084,-0.034559473395347595,0.9993434548377991,0.5275045037269592,0.29068872332572937,-0.0516146719455719,0.9990800023078918,0.48506584763526917,0.47058165073394775,0.008493593893945217,0.9994145631790161,0.5149242877960205,0.4714675843715668,-0.008602195419371128,0.9993191361427307,0.49381810426712036,0.5519851446151733,0.13203097879886627,0.9522748589515686,0.5134143829345703,0.570786714553833,0.09432089328765869,0.9144408106803894,0.5009632706642151,0.6505894064903259,0.24694526195526123,0.9185291528701782,0.5050085783004761,0.6781604886054993,0.19025622308254242,0.9000235795974731,0.4685268998146057,0.45013219118118286,-0.030758747830986977,0.4372794032096863,0.5360022783279419,0.45333603024482727,-0.08141997456550598,0.29172974824905396,-178.50718316896356,0.49999506771564484,0.47102461755275726,172.70866243042173,174.92398041238638,0.4722659043116548,0.01715570123476292,-0.008282605752197412,0.040048684799423105,0.008444741569686,0.40033894140527515,7.453446989117638,58,1762115292.7110023
0.4985477030277252,0.2139260470867157,0.08136458694934845,0.9994715452194214,0.46373724937438965,0.2912399172782898,-0.03808373957872391,0.9992938041687012,0.5273599028587341,0.2907511591911316,-0.048940375447273254,0.9990965723991394,0.48617497086524963,0.46845337748527527,0.006693977862596512,0.9993576407432556,0.5148656368255615,0.46924519538879395,-0.006806571967899799,0.9993057250976562,0.49418073892593384,0.5500590205192566,0.12663741409778595,0.9538558125495911,0.5132483243942261,0.5683295726776123,0.08937142789363861,0.9205764532089233,0.5007445216178894,0.6499513983726501,0.24301719665527344,0.9201711416244507,0.5050615072250366,0.675012469291687,0.18164801597595215,0.9068691730499268,0.4691673815250397,0.44905519485473633,-0.032242096960544586,0.42590025067329407,0.5360873341560364,0.4537571370601654,-0.06913776695728302,0.2937003970146179,-178.398769469187,0.5005203038454056,0.4688492864370346,173.53557292022563,175.7382367911118,0.4673050121366752,0.008253502024974055,-0.03418291079249355,-0.1398881665626928,-0.40699450777482976,-0.4401455016339749,6.118919688776698,59,1762115292.7746403
0.4983331263065338,0.215720996260643,0.07380744814872742,0.9994943141937256,0.46412843465805054,0.29327675700187683,-0.04037640243768692,0.9992910027503967,0.5268668532371521,0.2916862368583679,-0.05147809535264969,0.999147355556488,0.48682528734207153,0.46760326623916626,0.00895628146827221,0.9993550181388855,0.514933705329895,0.4684203565120697,-0.009079204872250557,0.9993385076522827,0.4944681227207184,0.5466868281364441,0.1415502279996872,0.9551677703857422,0.513238787651062,0.5641664266586304,0.08623990416526794,0.9270800352096558,0.500092625617981,0.6445330381393433,0.2716561257839203,0.9221895933151245,0.5052729845046997,0.6712525486946106,0.17533601820468903,0.914483368396759,0.4688006341457367,0.44994986057281494,-0.032695166766643524,0.42699259519577026,0.5361317992210388,0.45443886518478394,-0.07301300764083862,0.3085746467113495,-178.24383122882605,0.5008794963359833,0.468011811375618,173.79337421057795,174.25891055677,0.46684205253438216,0.005669544912297868,-0.013218824441442222,-0.04078554336758947,0.33090009460224507,-1.4522293964053472,4.593395481820653,60,1762115292.837995
0.49758943915367126,0.217293381690979,0.07111486047506332,0.9995215535163879,0.46450790762901306,0.29440730810165405,-0.04121901094913483,0.9992988109588623,0.5255551338195801,0.2917799949645996,-0.054256897419691086,0.9992030262947083,0.4872441291809082,0.46273913979530334,0.011185242794454098,0.9993692636489868,0.5152700543403625,0.4643931984901428,-0.011362932622432709,0.9993804097175598,0.49434027075767517,0.5412660241127014,0.15084317326545715,0.9572741389274597,0.5132609009742737,0.5590732097625732,0.08635048568248749,0.9333296418190002,0.4992620050907135,0.6353227496147156,0.2678152918815613,0.9265872836112976,0.5052791237831116,0.6654084324836731,0.15813854336738586,0.9219604134559631,0.468303382396698,0.4497538208961487,-0.03399365767836571,0.4357050955295563,0.5360982418060303,0.4532800316810608,-0.07128060609102249,0.3266305923461914,-177.90851625904892,0.5012570917606354,0.4635661691427231,170.51554096299708,167.8088745686484,0.45573928370394606,0.004753550718547777,-0.05596621264692111,-0.011531455556957906,-0.5381470872095883,-2.4643399257977805,4.066286021975167,61,1762115292.9174294
0.4969366192817688,0.21807751059532166,0.060004305094480515,0.9995263814926147,0.4646608233451843,0.2942601442337036,-0.04728654399514198,0.9992732405662537,0.5246245265007019,0.291715145111084,-0.05639715865254402,0.9992449283599854,0.48750758171081543,0.4575391411781311,0.0099573265761137,0.9993672966957092,0.5153815746307373,0.4588860869407654,-0.01010050531476736,0.9994001984596252,0.49440160393714905,0.5435879230499268,0.14875361323356628,0.9586262106895447,0.5136998891830444,0.5576505661010742,0.0966734066605568,0.937404453754425,0.49884599447250366,0.631934404373169,0.22447066009044647,0.9310001730918884,0.5053297281265259,0.6588009595870972,0.16273920238018036,0.9282870292663574,0.46779292821884155,0.448588490486145,-0.036813247948884964,0.43087664246559143,0.5356225371360779,0.4536798298358917,-0.07019256800413132,0.3464388847351074,-177.64260564060893,0.5014445781707764,0.45821261405944824,162.3989031327021,165.53757766018168,0.4477192794169238,0.0020887119908204244,-0.059641841174220694,-0.029687914980189932,-0.04094872461955431,-2.4303076550074074,3.463493201134165,62,1762115293.0071912
0.4962006211280823,0.2176710069179535,0.0625314861536026,0.9994605779647827,0.46484604477882385,0.2940036654472351,-0.046960100531578064,0.9992935657501221,0.5240354537963867,0.28957176208496094,-0.05633979290723801,0.9992836117744446,0.4880005419254303,0.4531286060810089,0.009454787708818913,0.9994170069694519,0.5159050226211548,0.4529819190502167,-0.00949263758957386,0.9994428753852844,0.49475446343421936,0.5440992712974548,0.11896808445453644,0.9550683498382568,0.5148695707321167,0.5511435866355896,0.08065078407526016,0.9332535266876221,0.49886125326156616,0.6285537481307983,0.08577767014503479,0.9351447820663452,0.506191074848175,0.6456350684165955,0.050043027848005295,0.9328855872154236,0.4673827588558197,0.44704991579055786,-0.036834489554166794,0.42200061678886414,0.5336978435516357,0.45037180185317993,-0.06870218366384506,0.3559783101081848,-177.33302271312516,0.5019527822732925,0.4530552625656128,108.3483390949135,119.4081848086245,0.41950558311376807,0.007669808503288763,-0.07783466946847249,0.08422982277606185,-0.27456588496485806,-4.282124109931036,3.2848779054594552,63,1762115293.0734515
0.4956181049346924,0.2173912674188614,0.06261207908391953,0.9994644522666931,0.4649645686149597,0.29346588253974915,-0.05234694480895996,0.9993083477020264,0.5239778757095337,0.2888247072696686,-0.05544976145029068,0.999325156211853,0.4881983697414398,0.4520941376686096,0.004058093763887882,0.999455451965332,0.5162875056266785,0.45095163583755493,-0.004282297100871801,0.9994786977767944,0.494523286819458,0.5440348982810974,0.12574265897274017,0.9543545842170715,0.5149936676025391,0.5497229099273682,0.08562596142292023,0.9321584701538086,0.4991387724876404,0.6262651681900024,0.12880012392997742,0.9394017457962036,0.507051408290863,0.6420503854751587,0.09487991780042648,0.9377110004425049,0.46701130270957947,0.44755828380584717,-0.03984581679105759,0.42132487893104553,0.5336630344390869,0.4490189850330353,-0.06951168924570084,0.3696439862251282,-177.225682001841,0.5022429376840591,0.4515228867530823,129.25730183951464,143.2019926708151,0.41973041220812757,0.004555459064502605,-0.02405840120979817,-0.0488954913625896,0.8442909544470216,-4.496842072252769,4.669416640571439,64,1762115293.1371455
0.4955282211303711,0.21486137807369232,0.06375981122255325,0.9993938207626343,0.46542277932167053,0.28978848457336426,-0.05037945508956909,0.9992815256118774,0.5240366458892822,0.28622183203697205,-0.05799882486462593,0.9993242621421814,0.48843973875045776,0.4448632001876831,0.004150695167481899,0.9994891881942749,0.5166898965835571,0.4435723125934601,-0.004400037694722414,0.9994983673095703,0.4942747950553894,0.5369803309440613,0.12018372863531113,0.9539168477058411,0.5150647759437561,0.5390154719352722,0.09145016223192215,0.9297202229499817,0.4997183382511139,0.620931088924408,0.10743747651576996,0.9431816339492798,0.5080134272575378,0.630309522151947,0.09648077189922333,0.9408470392227173,0.46725350618362427,0.44243186712265015,-0.03891393914818764,0.40004101395606995,0.5312875509262085,0.4379860460758209,-0.05174572020769119,0.3567209839820862,-177.1286402130944,0.5025648176670074,0.4442177563905716,119.88336290318465,137.91305418387986,0.41261556030480895,0.005141724111665461,-0.11669245344098716,0.009365022022224,-1.4797401676104844,-3.4821533896166006,9.734225790381434,65,1762115293.199747
0.49554505944252014,0.21339645981788635,0.06199755519628525,0.9993910193443298,0.4661351144313812,0.2863268256187439,-0.05189274996519089,0.9992837309837341,0.5239487886428833,0.2833302319049835,-0.057518310844898224,0.9993372559547424,0.4888392388820648,0.4403514862060547,0.0015134771820157766,0.9995191693305969,0.516567051410675,0.43779876828193665,-0.0017736954614520073,0.9995146989822388,0.4940943717956543,0.5301810503005981,0.11604684591293335,0.9555933475494385,0.5153306126594543,0.5302503705024719,0.10128332674503326,0.9307120442390442,0.500271201133728,0.6165223717689514,0.1266675740480423,0.9469507336616516,0.5094972848892212,0.6195066571235657,0.12517735362052917,0.9443429112434387,0.4671563506126404,0.43682461977005005,-0.03865897282958031,0.3971896469593048,0.531518816947937,0.43621495366096497,-0.05334978550672531,0.35889220237731934,-177.15654259379454,0.5027031451463699,0.43907512724399567,135.1411681329038,146.75613708812273,0.40974307123532877,0.0020194483118691265,-0.07507744517925513,-0.04558222720566991,0.6075391424024216,-2.967095057292619,44.34824222142317,66,1762115293.2682447
0.4956669807434082,0.21286949515342712,0.06992269307374954,0.9994167685508728,0.4665992856025696,0.283821165561676,-0.045988280326128006,0.9992966055870056,0.5237210988998413,0.281432569026947,-0.051680635660886765,0.999352216720581,0.4891239106655121,0.4354410469532013,-0.00012084933405276388,0.9995500445365906,0.5165687203407288,0.4317395091056824,-0.0001488739508204162,0.9995344281196594,0.4939919412136078,0.5228533148765564,0.09021443128585815,0.9587977528572083,0.5156495571136475,0.5211989283561707,0.09264090657234192,0.9350975751876831,0.5002710819244385,0.6130709052085876,0.07905611395835876,0.9511712789535522,0.5111338496208191,0.6139838099479675,0.09400138258934021,0.9486541748046875,0.4674568176269531,0.43104803562164307,-0.0266655795276165,0.39719852805137634,0.5316157937049866,0.4309142231941223,-0.04926008731126785,0.3599487841129303,-177.0853699612251,0.5028463155031204,0.43359027802944183,127.05984746501764,134.7477399465992,0.40112740463839025,0.0024254492432840705,-0.09291883933872681,0.006878062430124141,-0.30225108706433285,-2.3944760962614255,8.707350891031982,67,1762115293.3272731
0.4958350658416748,0.21281848847866058,0.07172096520662308,0.999443531036377,0.46709388494491577,0.28213998675346375,-0.04461176320910454,0.9993188977241516,0.5237094163894653,0.2807358503341675,-0.04840880259871483,0.9993616342544556,0.4899328351020813,0.4348481595516205,-0.0008284784853458405,0.9995796084403992,0.5172523260116577,0.43030500411987305,0.0005736270686611533,0.9995530247688293,0.4939175546169281,0.516039252281189,0.09523297846317291,0.961837112903595,0.5165465474128723,0.5136327743530273,0.0943082720041275,0.9393014311790466,0.5001376867294312,0.6082116365432739,0.09811215847730637,0.9550662636756897,0.5121152997016907,0.6077162623405457,0.11017946153879166,0.9526410102844238,0.46827688813209534,0.4264821708202362,-0.022020362317562103,0.40063342452049255,0.5317349433898926,0.42639219760894775,-0.04640504717826843,0.35591578483581543,-176.8979012485659,0.5035925805568695,0.43257658183574677,132.0107488968112,141.1516080169999,0.39660713477904963,0.009419132494154537,-0.012794567706562265,0.0882721612531078,1.0113043974249096,-1.4207161798018204,9.147357454937064,68,1762115293.4065018
0.49586835503578186,0.21262279152870178,0.06968194246292114,0.9994773864746094,0.4674144685268402,0.28155601024627686,-0.04660990461707115,0.9993484020233154,0.5237425565719604,0.2807348966598511,-0.04578713700175285,0.9993733167648315,0.49024564027786255,0.4337970018386841,-0.0034443307667970657,0.9996044635772705,0.51750648021698,0.4295479953289032,0.0032177299726754427,0.9995666742324829,0.49373379349708557,0.5147095918655396,0.10269200801849365,0.9646835923194885,0.5170665979385376,0.5119547247886658,0.11054855585098267,0.9432529211044312,0.5000908374786377,0.6068688631057739,0.1273152232170105,0.958552360534668,0.5128234624862671,0.6074408292770386,0.14609497785568237,0.9562202095985413,0.4684344232082367,0.42581748962402344,-0.02363080531358719,0.4114653766155243,0.5321388840675354,0.42544445395469666,-0.05386681109666824,0.35610389709472656,-176.84486059662783,0.5038760602474213,0.43167249858379364,142.24659710813248,147.86346718343623,0.4003245788768574,0.0029584252916748568,-0.009435112452507197,-0.06742465237181443,0.035059645262424485,-0.8351607986392842,7.8430117211523145,69,1762115293.502323
0.4962177872657776,0.21262525022029877,0.06919323652982712,0.9995144009590149,0.4678798317909241,0.28144076466560364,-0.05636395886540413,0.9993901252746582,0.5238121747970581,0.2807452380657196,-0.033229995518922806,0.9993893504142761,0.49091988801956177,0.4353227913379669,-0.014199391007423401,0.9996317028999329,0.5179644227027893,0.430869460105896,0.014034976251423359,0.9995821714401245,0.4934820234775543,0.5154010653495789,0.0949416309595108,0.9677907824516296,0.5172984600067139,0.5108019709587097,0.136327862739563,0.9471859335899353,0.500008761882782,0.6072989702224731,0.17860904335975647,0.9618763327598572,0.5146123170852661,0.6045534610748291,0.23175545036792755,0.958833634853363,0.46827930212020874,0.42812657356262207,-0.024067703634500504,0.4235435426235199,0.5325324535369873,0.4241120219230652,-0.049145281314849854,0.3575569689273834,-176.76322982691855,0.5044421553611755,0.43309612572193146,168.4144355632152,168.62840003857934,0.4162952191537566,0.007473332850717471,0.018794084598363934,0.0596037771023618,0.37266915142678136,-0.7124444048814975,4.474138432457915,70,1762115293.5780716
0.49679312109947205,0.21259750425815582,0.06954862922430038,0.9995467066764832,0.46844038367271423,0.28091609477996826,-0.0590333454310894,0.9994284510612488,0.5241844058036804,0.2804827094078064,-0.02746041677892208,0.9993994235992432,0.491466224193573,0.4354545474052429,-0.017151417210698128,0.999657928943634,0.5184630751609802,0.43073540925979614,0.016983531415462494,0.9995986223220825,0.4934416711330414,0.5162182450294495,0.09696295112371445,0.9706536531448364,0.5176044702529907,0.509074330329895,0.14452682435512543,0.950833797454834,0.4999407231807709,0.605705201625824,0.18701769411563873,0.9649527668952942,0.5172203779220581,0.5998926758766174,0.24395796656608582,0.9611296057701111,0.46843719482421875,0.4274974465370178,-0.024727875366806984,0.4338606894016266,0.5324214100837708,0.420767217874527,-0.017211750149726868,0.348562628030777,-176.75052204229686,0.5049646496772766,0.43309497833251953,170.22350773489165,169.1349407048419,0.41676654543769515,0.00742916612991803,-1.6314333561592755e-05,-0.0006279913409991607,-0.2674585623784551,-0.44544063201650375,2.828939649650009,71,1762115293.6484017
0.49821409583091736,0.2120513767004013,0.0642608255147934,0.99957275390625,0.4697812497615814,0.2792529761791229,-0.06121083348989487,0.9994657039642334,0.5248467922210693,0.27936744689941406,-0.032838933169841766,0.9994045495986938,0.49251875281333923,0.4338935911655426,-0.015262352302670479,0.9996816515922546,0.5189744234085083,0.42860934138298035,0.015104037709534168,0.9996107816696167,0.4934733510017395,0.5181881785392761,0.09965843707323074,0.9731616973876953,0.5178155303001404,0.5073572397232056,0.1416364312171936,0.9540862441062927,0.49992528557777405,0.6038373112678528,0.2098047435283661,0.9674492478370667,0.5184534192085266,0.5912708044052124,0.2593139708042145,0.9627007246017456,0.4687342047691345,0.42678263783454895,-0.026590144261717796,0.4529501795768738,0.5324757099151611,0.41883331537246704,0.012791785411536694,0.3401804566383362,-176.82340805001283,0.5057465881109238,0.4312514662742615,177.1647201316707,176.29580809369116,0.42158553497767026,0.009864048133923227,-0.02325565657811236,0.030715708877367406,-0.29316117565900907,0.11910678456828212,2.3781097028494687,72,1762115293.7276733
0.49972620606422424,0.21185548603534698,0.06347320973873138,0.9995953440666199,0.47123146057128906,0.27791377902030945,-0.06180519610643387,0.9995023608207703,0.5259395241737366,0.27891695499420166,-0.027765613049268723,0.9994019269943237,0.4933919906616211,0.4328635036945343,-0.01803792640566826,0.9997038841247559,0.5196337103843689,0.428148478269577,0.01789853349328041,0.9996213912963867,0.49348515272140503,0.518801212310791,0.09723015129566193,0.9755366444587708,0.5177195072174072,0.504902720451355,0.14476421475410461,0.957024335861206,0.49990200996398926,0.601685643196106,0.2068413943052292,0.9698225855827332,0.5194870233535767,0.5855796933174133,0.2644006907939911,0.9642021656036377,0.4694681167602539,0.4243355989456177,-0.027170542627573013,0.47050076723098755,0.5321484804153442,0.4166540503501892,0.006825593300163746,0.33054277300834656,-177.01629528476096,0.506512850522995,0.43050599098205566,177.27357663307862,176.78528403965015,0.41891295088898073,0.01223998103413475,-0.011907935576992653,0.03795223826568507,0.1812641304679404,1.0505089156770508,1.9367203971068032,73,1762115293.7902765
0.5001801252365112,0.21160201728343964,0.0633963942527771,0.9996172189712524,0.47205623984336853,0.27735358476638794,-0.06431398540735245,0.9995371699333191,0.5265548229217529,0.2787013351917267,-0.025484737008810043,0.9994019865989685,0.4936865270137787,0.43158403038978577,-0.01981496997177601,0.9997262954711914,0.5198871493339539,0.4273683428764343,0.019664565101265907,0.9996368288993835,0.49364811182022095,0.5189852118492126,0.09788187593221664,0.9776703715324402,0.5176487565040588,0.5042872428894043,0.14989957213401794,0.9593991637229919,0.4998799264431,0.6007400751113892,0.19609491527080536,0.9721601605415344,0.5192992687225342,0.5837574601173401,0.25692468881607056,0.9659556746482849,0.4697257876396179,0.4233100414276123,-0.02924216352403164,0.4902217388153076,0.5319916009902954,0.4173087775707245,-0.007902993820607662,0.3260264992713928,-177.1719857728641,0.5067868381738663,0.42947618663311005,175.72026791190024,173.74781447292997,0.4142299729720338,0.003958920414223606,-0.014879916838341176,-0.11965524663369524,-0.04294294742419045,1.4166363718223127,1.897766782590764,74,1762115293.8594842
0.5010839700698853,0.21160030364990234,0.06365221738815308,0.9996339082717896,0.47335490584373474,0.276100754737854,-0.06701101362705231,0.9995718598365784,0.5274206399917603,0.27844807505607605,-0.022718243300914764,0.999396562576294,0.49429553747177124,0.4299357533454895,-0.021848466247320175,0.9997483491897583,0.5203521847724915,0.4266108274459839,0.021698880940675735,0.9996532797813416,0.493983656167984,0.518176257610321,0.08994416892528534,0.9796271324157715,0.5176225900650024,0.5024030208587646,0.1524137556552887,0.9613235592842102,0.4999133050441742,0.6000599265098572,0.1887335181236267,0.9743388891220093,0.5197206139564514,0.581632137298584,0.2680668234825134,0.9673503637313843,0.46993136405944824,0.4232996702194214,-0.033552415668964386,0.5139369368553162,0.5318543910980225,0.4164320230484009,0.0020510463509708643,0.3232894539833069,-177.36998423210437,0.5073238611221313,0.4282732903957367,176.85146794770847,175.26301057423487,0.4135764447571257,0.008686574675762917,-0.019457358436720258,0.07647181915916783,-0.07404206542145143,2.485994901361448,1.7276141643872145,75,1762115293.9213064
0.5031081438064575,0.21160657703876495,0.0605391189455986,0.9996515512466431,0.47589707374572754,0.27523094415664673,-0.06965942680835724,0.9996053576469421,0.5288885831832886,0.27837178111076355,-0.024006497114896774,0.9994019269943237,0.4947853684425354,0.4284488558769226,-0.022007321938872337,0.9997679591178894,0.5204190015792847,0.4257712960243225,0.021860824897885323,0.999666690826416,0.4939885139465332,0.5176308155059814,0.08588196337223053,0.981372058391571,0.5175830125808716,0.5003286600112915,0.14854386448860168,0.9630424976348877,0.5001161694526672,0.5996312499046326,0.18633624911308289,0.976153552532196,0.520042359828949,0.5775458216667175,0.2653051018714905,0.9682270884513855,0.47103866934776306,0.42008036375045776,-0.038504280149936676,0.5397936105728149,0.5319281816482544,0.4161674976348877,0.0021140682511031628,0.3273443579673767,-178.01505369338545,0.50760218501091,0.42711007595062256,176.889349002524,176.28873928358362,0.4116818998703249,0.004006050040665333,-0.016742706835550767,-0.06736904973211785,0.0390732904925193,3.391985192677126,1.2130294273913664,76,1762115293.9907823
0.5043078660964966,0.21223370730876923,0.05787225440144539,0.9996685981750488,0.478536993265152,0.27566009759902954,-0.07300429046154022,0.9996374249458313,0.5303634405136108,0.27848559617996216,-0.023959727957844734,0.999407947063446,0.49519091844558716,0.4273069202899933,-0.0219956673681736,0.9997871518135071,0.5205763578414917,0.4254592955112457,0.021849283948540688,0.9996822476387024,0.49401965737342834,0.5179322957992554,0.084681436419487,0.9829743504524231,0.5175636410713196,0.5004069805145264,0.1487165093421936,0.9652183055877686,0.5003209710121155,0.6004061102867126,0.18503567576408386,0.9778844714164734,0.5201579332351685,0.5793864130973816,0.2662941813468933,0.9695173501968384,0.4729275107383728,0.42046844959259033,-0.03895016387104988,0.5654590129852295,0.5316740870475769,0.41635432839393616,0.013243718072772026,0.3249950408935547,-178.68270350030392,0.5078836381435394,0.4263831079006195,176.55918962375972,175.96907446519307,0.4133020326539233,0.004877554983534895,-0.012598284488920657,0.015103094563406467,0.07182242983700189,3.1205889140981613,0.7717629506983599,77,1762115294.048486
0.505865216255188,0.21451693773269653,0.05313355475664139,0.9996798634529114,0.4810226857662201,0.2765205204486847,-0.0779186338186264,0.9996655583381653,0.5317255258560181,0.28003403544425964,-0.025699308142066002,0.9994128346443176,0.49582546949386597,0.42794355750083923,-0.020801164209842682,0.9998035430908203,0.5206106901168823,0.426209032535553,0.020646095275878906,0.9996930360794067,0.49445170164108276,0.5179938077926636,0.08112622797489166,0.9842650294303894,0.5175763964653015,0.5020405650138855,0.14532820880413055,0.966755211353302,0.5006175637245178,0.6012635827064514,0.17511579394340515,0.9793340563774109,0.520016074180603,0.5812997221946716,0.25127407908439636,0.9703567624092102,0.47466421127319336,0.4225693941116333,-0.040532663464546204,0.5875394940376282,0.5309818983078003,0.4172084927558899,0.029359525069594383,0.32612723112106323,-179.2900052593116,0.5082180798053741,0.4270762950181961,176.55315126422698,174.0372231004338,0.4093789356489322,0.004233962856427082,0.008775606759852585,-0.008147744350732424,0.2705890801647242,3.964043791983983,0.42845552559065186,78,1762115294.1274762
0.506209135055542,0.2155175805091858,0.04938462749123573,0.9996947050094604,0.48106318712234497,0.27775996923446655,-0.07890073955059052,0.9996895790100098,0.532505452632904,0.281778484582901,-0.02695263922214508,0.9994298219680786,0.49582213163375854,0.42834994196891785,-0.02036275342106819,0.9998183250427246,0.5209652185440063,0.42657849192619324,0.020192259922623634,0.9997057914733887,0.494791179895401,0.518027663230896,0.08165406435728073,0.9854328036308289,0.5181199312210083,0.502314567565918,0.1433267891407013,0.9680078029632568,0.5006954073905945,0.6014798283576965,0.16956909000873566,0.9805871248245239,0.5209394097328186,0.5813464522361755,0.2459065467119217,0.97089022397995,0.47512465715408325,0.4246412515640259,-0.03705665096640587,0.6040325164794922,0.5309940576553345,0.41774076223373413,0.03233254328370094,0.3260877728462219,-179.37570250593072,0.5083936750888824,0.42746421694755554,176.05206573831333,173.50394458415332,0.4079147473569411,0.00314406341915296,0.00694580812888739,-0.019514834811192264,-0.03276285572762483,4.466703357695828,0.3688767900193217,79,1762115294.183326
0.5080399513244629,0.2181464284658432,0.05125271528959274,0.9997052550315857,0.48294296860694885,0.2826519310474396,-0.07608483731746674,0.999705970287323,0.5331910252571106,0.2853291928768158,-0.025604870170354843,0.9994087815284729,0.49646586179733276,0.4284366965293884,-0.01983373984694481,0.999828040599823,0.5214980840682983,0.4268399477005005,0.01966116949915886,0.999706506729126,0.49481433629989624,0.5166023969650269,0.07913099229335785,0.9865397214889526,0.5183733701705933,0.5028780102729797,0.1326267570257187,0.9695912599563599,0.5007168054580688,0.6019214391708374,0.1611594408750534,0.9819495677947998,0.5209709405899048,0.5814367532730103,0.22528521716594696,0.9719557166099548,0.4772520661354065,0.42670494318008423,-0.037841930985450745,0.6038768291473389,0.5293532013893127,0.4141365587711334,0.01811329834163189,0.3083643615245819,-179.63505484398604,0.5089819729328156,0.42763832211494446,174.2764565634768,173.13502119506992,0.39961217083664335,0.007423262866236864,0.002196894714516503,0.053995816371496495,-0.05992276355832103,3.049886986861276,0.21523682463416183,80,1762115294.2625766
0.508088231086731,0.22355587780475616,0.05310617759823799,0.9997278451919556,0.48265498876571655,0.2878052294254303,-0.07471317052841187,0.9997261166572571,0.5333307981491089,0.2907143831253052,-0.01764858514070511,0.9994142651557922,0.496433824300766,0.42885902523994446,-0.022194581106305122,0.9998378753662109,0.5215033292770386,0.42783716320991516,0.022031882777810097,0.9997104406356812,0.49446654319763184,0.5172898769378662,0.0661383718252182,0.9877322316169739,0.518396258354187,0.5031898617744446,0.13096275925636292,0.9716100692749023,0.5000643134117126,0.608764111995697,0.13515415787696838,0.983357310295105,0.521261990070343,0.5843040347099304,0.2181072235107422,0.9733473658561707,0.4779009222984314,0.42886489629745483,-0.028031835332512856,0.6053694486618042,0.5287848711013794,0.4128892123699188,0.005988608580082655,0.29262232780456543,-179.5980853533095,0.5089685767889023,0.4283480942249298,171.22235555592331,171.26664049014127,0.3929092387640819,-0.0002106483564273289,0.011160848179473336,-0.12003983105717006,0.14095414894833208,3.2855811734506144,0.23050808789131513,81,1762115294.3261714
0.5086082220077515,0.22422879934310913,0.05927471071481705,0.9997355341911316,0.48379912972450256,0.28828954696655273,-0.07305235415697098,0.9997435808181763,0.5338900685310364,0.2905656695365906,-0.011782628484070301,0.9993746280670166,0.4971536695957184,0.4289666414260864,-0.02460278756916523,0.9998480081558228,0.5220917463302612,0.42790934443473816,0.024437403306365013,0.999713659286499,0.494640052318573,0.5175251960754395,0.0702490583062172,0.9888119697570801,0.5185682773590088,0.5035500526428223,0.1394433081150055,0.9734987616539001,0.5000380873680115,0.6093088984489441,0.14749795198440552,0.9847346544265747,0.5217218995094299,0.5852497816085815,0.23721250891685486,0.9747982025146484,0.47999754548072815,0.43038225173950195,-0.028064528480172157,0.6054856777191162,0.5251492261886597,0.4089583158493042,0.030597228556871414,0.2716362774372101,-179.67929096264513,0.5096227079629898,0.4284379929304123,172.16965710671337,172.81775467780008,0.3960836926514992,0.010246123567811422,0.001408147603184799,0.16379188380010715,-0.15276351163650165,2.601719466969812,0.18193594085886608,82,1762115294.3900132
