nose_x,nose_y,nose_z,nose_visibility,left_shoulder_x,left_shoulder_y,left_shoulder_z,left_shoulder_visibility,right_shoulder_x,right_shoulder_y,right_shoulder_z,right_shoulder_visibility,left_hip_x,left_hip_y,left_hip_z,left_hip_visibility,right_hip_x,right_hip_y,right_hip_z,right_hip_visibility,left_knee_x,left_knee_y,left_knee_z,left_knee_visibility,right_knee_x,right_knee_y,right_knee_z,right_knee_visibility,left_ankle_x,left_ankle_y,left_ankle_z,left_ankle_visibility,right_ankle_x,right_ankle_y,right_ankle_z,right_ankle_visibility,left_wrist_x,left_wrist_y,left_wrist_z,left_wrist_visibility,right_wrist_x,right_wrist_y,right_wrist_z,right_wrist_visibility,trunk_lateral_inclination,center_mass_x,center_mass_y,left_knee_angle,right_knee_angle,person_height,center_mass_velocity_x,center_mass_velocity_y,center_mass_acceleration_x,center_mass_acceleration_y,body_orientation,torso_leg_ratio,frame,timestamp
0.47352010011672974,0.35509157180786133,-0.6894815564155579,0.9995049238204956,0.5488959550857544,0.5336642861366272,-0.3209580183029175,0.9995530247688293,0.3884202837944031,0.504214346408844,-0.2795265018939972,0.9995001554489136,0.5064783692359924,0.9284855127334595,-0.0338364876806736,0.8005721569061279,0.4074628949165344,0.9120883345603943,0.03440733253955841,0.7931212782859802,0.49984049797058105,1.2405608892440796,-0.05038345605134964,0.0825822651386261,0.40076884627342224,1.2244895696640015,0.05771669000387192,0.07532081007957458,0.4920831620693207,1.5291130542755127,0.24877138435840607,0.020542534068226814,0.3984779119491577,1.522449254989624,0.3035009801387787,0.029749348759651184,0.5576701760292053,0.9317640662193298,-0.3468134105205536,0.6039256453514099,0.3630230724811554,0.881506621837616,-0.3626290559768677,0.5389180779457092,178.33198331113368,0.4569706320762634,0.9202869236469269,130.94115559594212,144.74019757616585,1.5178040682122498,0.0,0.0,0.0,0.0,-169.6009869643694,2.325805595581366,0,1762115328.717205
0.4727330803871155,0.35443177819252014,-0.6513153314590454,0.999527633190155,0.5488333106040955,0.5306220054626465,-0.28557834029197693,0.9995830059051514,0.3875829577445984,0.5010618567466736,-0.2533782422542572,0.9995080232620239,0.5072136521339417,0.9168994426727295,-0.025014806538820267,0.8123955726623535,0.409435898065567,0.9077625870704651,0.025686463341116905,0.8046492338180542,0.5055619478225708,1.2235302925109863,-0.08094480633735657,0.08802551031112671,0.4133829176425934,1.216612696647644,0.006357014179229736,0.07947889715433121,0.5012425184249878,1.502888798713684,0.21079616248607635,0.020099997520446777,0.41175442934036255,1.5103273391723633,0.2409835159778595,0.029399262741208076,0.5600024461746216,0.9165889024734497,-0.29554325342178345,0.6334560513496399,0.3625117540359497,0.8703547716140747,-0.2890617847442627,0.5594082474708557,178.57207287279672,0.45832477509975433,0.9123310148715973,123.42160767990654,137.78909314968868,1.44819290113679,0.02231309788053193,-0.13109469838338997,0.3676674681989691,-2.160132855912495,-169.6119727203506,3.3221834563869055,1,1762115328.7778933
0.47201570868492126,0.35397207736968994,-0.6514095664024353,0.9995437264442444,0.5487832427024841,0.5281193852424622,-0.2873147130012512,0.999609112739563,0.38717591762542725,0.49865514039993286,-0.2470017671585083,0.9995081424713135,0.5076838731765747,0.9116538763046265,-0.02343173697590828,0.8212799429893494,0.41037359833717346,0.9038063883781433,0.024133287370204926,0.8125393390655518,0.5069711804389954,1.2137690782546997,-0.09030105173587799,0.09125569462776184,0.4158099591732025,1.2094073295593262,0.004256441257894039,0.0820712298154831,0.5026140213012695,1.4905283451080322,0.19851921498775482,0.019630862399935722,0.4134767949581146,1.5008612871170044,0.2417275607585907,0.02899998612701893,0.5611505508422852,0.9116463661193848,-0.2965161204338074,0.6591241955757141,0.36129891872406006,0.850315272808075,-0.2717382311820984,0.574709951877594,178.69971641198734,0.4590287357568741,0.9077301323413849,121.29711952675201,137.08542340805482,1.436417652303256,0.01103743785279055,-0.07213749018728272,-0.1767916936076998,0.9243933092810191,-169.66732490809403,2.6749587356140854,2,1762115328.8416727
0.471524178981781,0.3538917899131775,-0.6378960609436035,0.9995687007904053,0.5480990409851074,0.5239325165748596,-0.2863454520702362,0.9996340870857239,0.38713473081588745,0.494705468416214,-0.26649588346481323,0.9994864463806152,0.5078333616256714,0.8946398496627808,-0.005950759164988995,0.8382652401924133,0.412393718957901,0.8909950256347656,0.006406334228813648,0.8297502994537354,0.5074654221534729,1.1713695526123047,-0.04614449292421341,0.13469542562961578,0.4156205654144287,1.1627756357192993,0.0508929118514061,0.10703729093074799,0.5039446353912354,1.4012706279754639,0.3749522566795349,0.026863424107432365,0.41822919249534607,1.3992120027542114,0.4536874294281006,0.03508319333195686,0.5651043653488159,0.8932545185089111,-0.16114208102226257,0.6867055296897888,0.36086905002593994,0.8300883769989014,-0.11902923882007599,0.5819036960601807,178.87912142602642,0.4601135402917862,0.8928174376487732,110.36835902467973,129.70906207597338,1.483952349147205,0.015131611766075258,-0.20801268727448077,0.0571083989463932,-1.8952822050370746,-169.708657544641,16.415831417712997,3,1762115328.913364
0.4710537791252136,0.3539656698703766,-0.6709784269332886,0.9995825290679932,0.5476787686347961,0.5137618780136108,-0.2899705767631531,0.9996576309204102,0.3889285922050476,0.486831933259964,-0.3055577278137207,0.9994895458221436,0.509115993976593,0.8805356621742249,0.006050118710845709,0.8531665802001953,0.416984885931015,0.8778513669967651,-0.005523425992578268,0.845129668712616,0.5085291266441345,1.1230735778808594,-0.032408177852630615,0.18000824749469757,0.421588271856308,1.121830701828003,-0.05266369506716728,0.15314561128616333,0.5035347938537598,1.3462319374084473,0.37015312910079956,0.03799234330654144,0.41950345039367676,1.3547255992889404,0.30818453431129456,0.04867035523056984,0.5687914490699768,0.8718360662460327,-0.15397725999355316,0.7146088480949402,0.36063307523727417,0.7878491878509521,-0.18142931163311005,0.6006927490234375,179.20566926013979,0.463050439953804,0.879193514585495,109.99158678994962,111.89298921954536,1.418987931329776,0.03701141447556208,-0.1716914846630191,0.27573378048876257,0.457727276654751,-170.37215566382767,1.483724341660213,4,1762115328.9927151
0.47105979919433594,0.35400649905204773,-0.5134439468383789,0.9996098279953003,0.5474942922592163,0.5082486867904663,-0.20019793510437012,0.999683141708374,0.39297011494636536,0.4824332296848297,-0.1904406100511551,0.9994872808456421,0.5120238065719604,0.875857949256897,0.0013579155784100294,0.866204023361206,0.42020392417907715,0.8743559122085571,-0.0009012574446387589,0.8586698770523071,0.5113464593887329,1.1469743251800537,-0.07440419495105743,0.20648902654647827,0.4237247407436371,1.1339069604873657,-0.06837616860866547,0.1762232929468155,0.5073381662368774,1.3868257999420166,0.2272387444972992,0.04106766730546951,0.42735886573791504,1.390440583229065,0.16655227541923523,0.05289875343441963,0.5743658542633057,0.868787407875061,-0.14655694365501404,0.7410987019538879,0.3605339825153351,0.7916275858879089,-0.13763396441936493,0.6231284141540527,179.37868538281828,0.4661138653755188,0.875106930732727,112.87717780380991,122.94841336185964,1.2550092869807743,0.03998909934611638,-0.05334512357186651,0.03886986615243602,1.544860324452215,-170.51551817901193,21.896261787779807,5,1762115329.0693216
0.47114700078964233,0.3545053005218506,-0.49976271390914917,0.9996305108070374,0.5475026965141296,0.5059250593185425,-0.21066470444202423,0.9997020959854126,0.3977140486240387,0.4814331829547882,-0.18813954293727875,0.9994957447052002,0.5136248469352722,0.8690625429153442,-0.0007978652720339596,0.8759081363677979,0.4226439893245697,0.865521252155304,0.0012092209653928876,0.8696918487548828,0.5111370086669922,1.135621190071106,-0.07370061427354813,0.24398019909858704,0.423489511013031,1.123403549194336,-0.08583612740039825,0.21864186227321625,0.506886899471283,1.3731693029403687,0.1911756694316864,0.057698480784893036,0.42507046461105347,1.3808181285858154,0.10752208530902863,0.07343068718910217,0.5760012269020081,0.8654378056526184,-0.17309820652008057,0.7651429176330566,0.3598721921443939,0.8034505248069763,-0.16578994691371918,0.6427898406982422,179.31392481301123,0.46813441812992096,0.8672918975353241,116.59387998658546,124.43617819743147,1.211137947863349,0.02844755966567084,-0.11002861602497399,-0.16249446493186348,-0.7980524290223172,-170.71376721863297,3.3498269011641795,6,1762115329.140349
0.47132229804992676,0.3546830415725708,-0.5384622812271118,0.9996516108512878,0.5475035309791565,0.5052576661109924,-0.23485830426216125,0.9997193217277527,0.39862948656082153,0.48158562183380127,-0.21612513065338135,0.9994811415672302,0.5143474340438843,0.8651840090751648,0.0016366008203476667,0.8856950402259827,0.4231188893318176,0.8628321886062622,-0.0012624665396288037,0.8798290491104126,0.5115488767623901,1.1298590898513794,-0.06638573855161667,0.28214579820632935,0.42540597915649414,1.125120997428894,-0.05362824723124504,0.2584614157676697,0.5070949792861938,1.3634413480758667,0.21872472763061523,0.07488849014043808,0.4240804612636566,1.3741459846496582,0.1631142646074295,0.0937541127204895,0.5767635703086853,0.8684151768684387,-0.1964692771434784,0.7867447137832642,0.35945218801498413,0.8038904070854187,-0.1954757422208786,0.6533219218254089,179.33005866608377,0.46873316168785095,0.8640080988407135,114.9176588540186,127.66927456343501,1.2491801398594264,0.008610883474372865,-0.04722624158220296,-0.28528291442946146,0.9031979068138289,-170.96519529536786,1.4990609757424322,7,1762115329.2098823
0.47154250741004944,0.3557910621166229,-0.5654669404029846,0.9996819496154785,0.5474374890327454,0.49829545617103577,-0.2640957534313202,0.9997442364692688,0.40460261702537537,0.47787970304489136,-0.2345602959394455,0.9995107650756836,0.5149484872817993,0.8378546237945557,0.0004950789152644575,0.8962634205818176,0.4282543659210205,0.835062563419342,-0.00014147424371913075,0.8907434940338135,0.5114310383796692,1.1248284578323364,-0.06803292036056519,0.3112998902797699,0.4277130663394928,1.1068172454833984,-0.04641037434339523,0.2853720784187317,0.5066958665847778,1.3594651222229004,0.2287638932466507,0.07695312798023224,0.42586851119995117,1.3613948822021484,0.19584611058235168,0.10021120309829712,0.5786669254302979,0.8491756916046143,-0.22779898345470428,0.807496964931488,0.358124703168869,0.8068289160728455,-0.21198324859142303,0.6813005208969116,179.273317639941,0.4716014266014099,0.8364585936069489,114.9033655654569,126.75771635722808,1.270533850459813,0.038267837886841426,-0.36756019123779715,0.39567737216629456,-4.273833841889276,-171.8656633376805,1.3426951533142317,8,1762115329.2848346
0.4734877645969391,0.35639408230781555,-0.6020680069923401,0.9997110962867737,0.547380805015564,0.49428069591522217,-0.3136013448238373,0.999764621257782,0.40945321321487427,0.47798916697502136,-0.2935486435890198,0.999541699886322,0.515156626701355,0.8178061842918396,0.002283311914652586,0.9061095118522644,0.43160977959632874,0.8143543004989624,-0.002036788733676076,0.9010953903198242,0.5072882175445557,1.0296181440353394,-0.04898839071393013,0.3420760929584503,0.43180546164512634,1.0739551782608032,0.010141253471374512,0.31772494316101074,0.5076495409011841,1.3055479526519775,0.25814464688301086,0.08133570104837418,0.4317263066768646,1.3058147430419922,0.26747027039527893,0.10901139676570892,0.58037269115448,0.845524787902832,-0.24426893889904022,0.8261244297027588,0.357930451631546,0.8099014163017273,-0.25249478220939636,0.7088811993598938,179.1259355624811,0.47338320314884186,0.816080242395401,118.30674686128197,134.70475510518168,1.2842002656736513,0.02919890015433003,-0.33395065346070446,-0.1486174053301431,0.5507769979355368,-173.26363297429808,35.42833173886666,9,1762115329.3458567
0.4752565920352936,0.35656970739364624,-0.6128135919570923,0.9997372031211853,0.5474255681037903,0.49113738536834717,-0.3319500982761383,0.9997842907905579,0.41465601325035095,0.4771781861782074,-0.2908715605735779,0.9995713829994202,0.5154234170913696,0.8016447424888611,0.0016727488255128264,0.9150665402412415,0.4351930022239685,0.7966204881668091,-0.001404510927386582,0.9105221033096313,0.5016759634017944,1.004157543182373,-0.009480773471295834,0.3849683403968811,0.43969374895095825,1.0174306631088257,0.02864477038383484,0.3643820583820343,0.5035725235939026,1.232306718826294,0.32016652822494507,0.10869207233190536,0.43523168563842773,1.2368717193603516,0.3042503893375397,0.1406162530183792,0.5815443992614746,0.8359304666519165,-0.29212266206741333,0.8429569602012634,0.3587157726287842,0.7948383688926697,-0.25061050057411194,0.7335474491119385,178.95732481307545,0.47530820965766907,0.7991326153278351,121.43196343790409,136.23790464280447,1.275389482589704,0.027478312584656644,-0.24191720495245614,-0.024560354914105815,1.3137222418506367,-173.9980550968792,4.465490985232782,10,1762115329.4159122
0.4769601821899414,0.3567515015602112,-0.5172624588012695,0.9997618198394775,0.547761857509613,0.49023035168647766,-0.2883884608745575,0.9998012781143188,0.4209764897823334,0.4767529368400574,-0.255184531211853,0.9996033310890198,0.515579342842102,0.7914687395095825,0.0012306243879720569,0.923275887966156,0.43811550736427307,0.7844479084014893,-0.000977229792624712,0.919224202632904,0.4991701543331146,0.9968910217285156,0.023152725771069527,0.4276442229747772,0.4454278349876404,1.0032916069030762,0.03728589043021202,0.41239628195762634,0.49775147438049316,1.1862988471984863,0.30443665385246277,0.1443718671798706,0.44068869948387146,1.198326826095581,0.28216707706451416,0.17822998762130737,0.5816767811775208,0.8276363611221313,-0.2129451483488083,0.8581107258796692,0.3612600266933441,0.7850427627563477,-0.2043219804763794,0.7572658061981201,178.58481459092764,0.47684742510318756,0.7879583239555359,129.91910328766843,138.36671964542163,1.1641465446967365,0.015591754596544953,-0.11319195722369409,-0.12040698765584978,1.3039451226986785,-173.93218655329164,2.4421993145857486,11,1762115329.514632
0.47719043493270874,0.3573685586452484,-0.5106858611106873,0.9997847080230713,0.5480276346206665,0.4895177483558655,-0.28802019357681274,0.9998176693916321,0.4212521016597748,0.47697216272354126,-0.25564098358154297,0.999633252620697,0.5156469345092773,0.7900469303131104,0.0008055848302319646,0.9307193756103516,0.4391970634460449,0.7817961573600769,-0.0004873782745562494,0.9270799160003662,0.4991218149662018,0.9951880574226379,0.030194878578186035,0.462894082069397,0.44753533601760864,0.9934310913085938,0.05131365731358528,0.4501899778842926,0.49670568108558655,1.1620557308197021,0.3012208938598633,0.1751004159450531,0.4419606626033783,1.174768328666687,0.2735293209552765,0.2080131471157074,0.5816272497177124,0.8244084715843201,-0.2162117213010788,0.8716886639595032,0.36133450269699097,0.7910341024398804,-0.2130635529756546,0.7778607606887817,178.63393770447232,0.47742199897766113,0.7859215438365936,129.66514621722146,142.82796109354328,1.137872821569327,0.007925861672038414,-0.028096017233440768,-0.10574585725458618,1.1738414835390365,-174.34846475582927,1.8060911257585766,12,1762115329.5871255
0.4788527488708496,0.357310026884079,-0.4900924563407898,0.9998050928115845,0.5487867593765259,0.4879513084888458,-0.2723264992237091,0.9998332858085632,0.42467111349105835,0.4766463339328766,-0.24140501022338867,0.9996610879898071,0.5162360668182373,0.7852738499641418,0.000525263836607337,0.9375248551368713,0.44221171736717224,0.7782595157623291,-0.00026677371351979673,0.9342519044876099,0.49943384528160095,0.9813978672027588,0.026677751913666725,0.48680171370506287,0.4518871307373047,0.9853246212005615,0.049678437411785126,0.4780213534832001,0.4931336045265198,1.1269747018814087,0.37498265504837036,0.19153107702732086,0.44678059220314026,1.1508334875106812,0.31053540110588074,0.23143401741981506,0.5813199281692505,0.8214684128761292,-0.2215847671031952,0.88387131690979,0.3692019581794739,0.7726567387580872,-0.1978466808795929,0.797096848487854,178.56439561547776,0.4792238920927048,0.7817666828632355,120.24690490481628,135.82372753527508,1.1421952611239055,0.024563147579984658,-0.05663846673860194,0.22679708672808,-0.3890865632574184,-174.79562036415214,1.3156612378612516,13,1762115329.6604831
0.4813467860221863,0.35724079608917236,-0.4950832426548004,0.9998235702514648,0.5495608448982239,0.48712918162345886,-0.2611854076385498,0.9998468160629272,0.4286520481109619,0.4754301607608795,-0.24350345134735107,0.9996857047080994,0.5170773267745972,0.7747166752815247,0.0007133590988814831,0.9436852335929871,0.4457359313964844,0.7687478065490723,-0.0005478095845319331,0.940748929977417,0.4993874132633209,0.9719802141189575,0.03750675171613693,0.510937511920929,0.4557918906211853,0.9751412272453308,0.05469655990600586,0.5061939358711243,0.4886929392814636,1.0972504615783691,0.4016750752925873,0.21320044994354248,0.45004281401634216,1.1284809112548828,0.33285248279571533,0.2610907256603241,0.5810535550117493,0.8126729130744934,-0.20944437384605408,0.8947845101356506,0.3797896206378937,0.7606562376022339,-0.2047751396894455,0.814598798751831,178.48146036560993,0.48140662908554077,0.7717322409152985,119.57023582704913,133.71344503340305,1.1466276008300176,0.026724257461869665,-0.12285630883748085,0.026459466750433668,-0.8107356344937493,-174.47331920288326,0.9364012932809909,14,1762115329.7429729
0.4855300784111023,0.35689014196395874,-0.4982478618621826,0.9998407959938049,0.5495644807815552,0.48388323187828064,-0.2564115822315216,0.9998610615730286,0.4312888979911804,0.46926993131637573,-0.23869462311267853,0.9997127652168274,0.5181300640106201,0.7638288736343384,0.0022091390565037727,0.9492568969726562,0.44871044158935547,0.7584054470062256,-0.0021097026765346527,0.9466161727905273,0.4995059370994568,0.9603920578956604,0.05192073434591293,0.5403962731361389,0.4588788151741028,0.9716827273368835,0.06142253428697586,0.5395066738128662,0.4899980127811432,1.0228736400604248,0.4361205995082855,0.23895543813705444,0.4545503556728363,1.1164251565933228,0.3553544878959656,0.2961353659629822,0.5809257626533508,0.8012617230415344,-0.2082192450761795,0.9048873782157898,0.39095133543014526,0.741409957408905,-0.16567400097846985,0.830390453338623,178.58945201130504,0.4834202527999878,0.761117160320282,113.45745387735555,132.69763844324348,1.1434209118358893,0.0244524385124278,-0.1289042255967805,-0.027587832212162326,-0.07344287397095374,-172.95663083885074,1.0126090846629825,15,1762115329.824508
0.49006620049476624,0.355991393327713,-0.5001565217971802,0.9998564124107361,0.5494186282157898,0.4797723591327667,-0.24596278369426727,0.9998741149902344,0.43289104104042053,0.4607187509536743,-0.23278121650218964,0.9997382164001465,0.5181223154067993,0.7504162192344666,0.002979815937578678,0.9542562365531921,0.44991976022720337,0.7448744177818298,-0.002873052842915058,0.9518846273422241,0.49941667914390564,0.9524924159049988,0.03190543130040169,0.5631442070007324,0.4608951508998871,0.9658126831054688,0.050739534199237823,0.5669503808021545,0.48989468812942505,1.0071473121643066,0.39307987689971924,0.25524666905403137,0.4581077992916107,1.1077336072921753,0.3246709704399109,0.32338935136795044,0.5804209113121033,0.7883911728858948,-0.2079160213470459,0.9140342473983765,0.39738941192626953,0.7373991012573242,-0.1841180920600891,0.8453456163406372,178.5268683206837,0.48402103781700134,0.7476453185081482,106.81540522105438,130.9341144132761,1.109154975160578,0.01094959892931944,-0.24553086462669574,-0.2460958140682808,-2.125577179337819,-170.71365548473395,1.1588982663706102,16,1762115329.8793762
0.49258631467819214,0.35522720217704773,-0.5077092051506042,0.9998705387115479,0.5493735074996948,0.47682273387908936,-0.2518037259578705,0.9998857975006104,0.4331589341163635,0.45865583419799805,-0.2432297021150589,0.9997609257698059,0.5183842182159424,0.7436124086380005,0.004182678647339344,0.958742618560791,0.4509437084197998,0.7402369379997253,-0.004084391985088587,0.956617534160614,0.4994564950466156,0.9487840533256531,0.024745706468820572,0.5803760290145874,0.4629739820957184,0.9626559019088745,0.025398358702659607,0.587887704372406,0.4893380105495453,0.9969056844711304,0.3727448582649231,0.2671741247177124,0.46138662099838257,1.1050360202789307,0.2904239296913147,0.34557703137397766,0.5798542499542236,0.7894271612167358,-0.21573369204998016,0.9222697615623474,0.39915159344673157,0.7359240055084229,-0.23865239322185516,0.858781635761261,178.6206106619513,0.4846639633178711,0.7419246733188629,103.68747953130682,125.71655462225509,1.0903071303387462,0.008046072183035555,-0.07159262475085634,-0.03633700289437945,2.1767990716465344,-171.1153114385753,1.1278347390082701,17,1762115329.9592817
0.494431734085083,0.3519877791404724,-0.47008615732192993,0.999883234500885,0.548509955406189,0.47025689482688904,-0.2260267734527588,0.9998964667320251,0.43317604064941406,0.4487695097923279,-0.22346647083759308,0.9997819662094116,0.5183466076850891,0.7367417812347412,0.0049754721112549305,0.9627775549888611,0.45118460059165955,0.733235239982605,-0.004877481609582901,0.9608724117279053,0.4993804395198822,0.9381589889526367,0.021234219893813133,0.6040436029434204,0.46251529455184937,0.9543925523757935,0.016235284507274628,0.6151649951934814,0.4895032048225403,1.0010846853256226,0.3454951345920563,0.2892342805862427,0.4628782868385315,1.097588300704956,0.2566090226173401,0.3757086992263794,0.5769091844558716,0.7728505730628967,-0.21607288718223572,0.9297523498535156,0.4037836492061615,0.7201297283172607,-0.2331632375717163,0.8707141876220703,178.73617513386458,0.48476560413837433,0.7349885106086731,105.68608761832608,126.18586355063377,1.039847172089916,0.001385057863376154,-0.09451898022703496,-0.0907695374341433,-0.31241708571043586,-169.4464540934306,1.2772675657399148,18,1762115330.0326655
0.4941372275352478,0.3462314307689667,-0.43974214792251587,0.9998947381973267,0.5480102300643921,0.4628894329071045,-0.20706892013549805,0.9999060034751892,0.43438610434532166,0.43499112129211426,-0.2024042159318924,0.9998020529747009,0.5172964334487915,0.7237882018089294,0.004831211641430855,0.9663828611373901,0.4511886537075043,0.7198435664176941,-0.004724124446511269,0.9647086262702942,0.4991242289543152,0.919722855091095,0.016997281461954117,0.6270269751548767,0.4615296423435211,0.9412853717803955,0.009766137227416039,0.6435245275497437,0.48982077836990356,0.9855051040649414,0.3100854754447937,0.3043964207172394,0.4641166627407074,1.0925161838531494,0.19816020131111145,0.40628230571746826,0.5723254084587097,0.7554177045822144,-0.20372426509857178,0.9364147782325745,0.4054402709007263,0.7016377449035645,-0.22022418677806854,0.8817822933197021,178.53984164469952,0.4842425435781479,0.7218158841133118,106.29437092249562,132.47700168267244,0.9806561145855025,-0.007965937684953541,-0.20061218487547522,-0.1424107522043428,-1.615743799648417,-166.20496999311806,2.0706097802235557,19,1762115330.0983276
0.4939834475517273,0.3418029248714447,-0.3987586200237274,0.9999046921730042,0.5475492477416992,0.4545851945877075,-0.18967023491859436,0.9999140501022339,0.43506747484207153,0.42719772458076477,-0.180357426404953,0.9998180866241455,0.5158814191818237,0.7191654443740845,0.004028777126222849,0.9696283936500549,0.45047077536582947,0.7121059894561768,-0.003983506467193365,0.96812903881073,0.4992859363555908,0.903468668460846,0.04247520864009857,0.6557590365409851,0.4603451192378998,0.9254747033119202,0.036371275782585144,0.6722061634063721,0.49270009994506836,0.9950436353683472,0.31820136308670044,0.3478245139122009,0.46172356605529785,1.0245954990386963,0.23390038311481476,0.4429738521575928,0.5675826668739319,0.7429677248001099,-0.17400798201560974,0.9422140717506409,0.4045895040035248,0.6875842809677124,-0.16951042413711548,0.8912407755851746,178.30457456301022,0.4831760972738266,0.7156357169151306,120.14983494692386,127.331116707196,0.9496817222091894,-0.01377125492985065,-0.07980585393787695,-0.07496533431096289,1.55999863634987,-166.31569001244364,3.122156203787154,20,1762115330.1757677
0.4935544431209564,0.33743152022361755,-0.4042568802833557,0.9999116659164429,0.5463170409202576,0.44716233015060425,-0.1946125477552414,0.9999204874038696,0.43532124161720276,0.4252869784832001,-0.18875537812709808,0.9998267889022827,0.5153546929359436,0.7151333093643188,0.002825411967933178,0.9725866317749023,0.45006704330444336,0.7095661163330078,-0.002892392687499523,0.9712148308753967,0.4998703598976135,0.8864474892616272,0.05415850132703781,0.6826173663139343,0.4592129588127136,0.9171433448791504,0.06403466314077377,0.6953504085540771,0.49444347620010376,0.9937507510185242,0.37553179264068604,0.3861404061317444,0.46237069368362427,1.0164910554885864,0.3401417136192322,0.4683789610862732,0.5632129907608032,0.7305998206138611,-0.17331692576408386,0.9472241401672363,0.4025958478450775,0.6829700469970703,-0.16849130392074585,0.8993414640426636,178.31802164826806,0.4827108681201935,0.7123497128486633,125.08478020951713,127.6504531839007,1.0133238676552587,-0.006704826977194869,-0.04735749799849501,0.10184051536618419,0.4676418289116055,-168.85087756568115,7.140239383324102,21,1762115330.2451549
0.4933096468448639,0.33514201641082764,-0.40449386835098267,0.999918520450592,0.5456414222717285,0.4472277760505676,-0.19837385416030884,0.9999269247055054,0.436112642288208,0.42369407415390015,-0.18047386407852173,0.9998361468315125,0.5149492025375366,0.7138842344284058,0.00041253818199038506,0.9752662777900696,0.4500628411769867,0.7084499597549438,-0.0005358253256417811,0.9740079641342163,0.5000070929527283,0.8833906650543213,0.0438147634267807,0.7091025710105896,0.4568372666835785,0.9180625081062317,0.052480459213256836,0.7192662954330444,0.4951079785823822,0.9871276617050171,0.380938857793808,0.42574554681777954,0.46211329102516174,0.9791185855865479,0.35133594274520874,0.49167492985725403,0.5621849894523621,0.7314308285713196,-0.18393996357917786,0.9518773555755615,0.4019841253757477,0.679170548915863,-0.13698932528495789,0.9063820242881775,178.26091572669733,0.48250602185726166,0.7111670970916748,121.41409875753266,115.75684096700088,1.0069598445141938,-0.0029053400602582786,-0.016773071109503022,0.053888225199778206,0.43377974969551863,-167.8736129275542,44.18469324190301,22,1762115330.3156617
0.49322763085365295,0.3333878815174103,-0.3967517018318176,0.9999247193336487,0.5433529615402222,0.440541535615921,-0.19325098395347595,0.9999329447746277,0.4359215199947357,0.4240501821041107,-0.18241098523139954,0.9998423457145691,0.5146477818489075,0.7057653069496155,-0.0009349676547572017,0.977695107460022,0.45010536909103394,0.7022537589073181,0.000782470335252583,0.9765198230743408,0.5002388954162598,0.8749855756759644,0.03857051581144333,0.7337976694107056,0.45446595549583435,0.9025742411613464,0.04872722178697586,0.7384781837463379,0.495276540517807,0.9855005741119385,0.36001452803611755,0.4613366723060608,0.4612449109554291,0.9550321102142334,0.3685552775859833,0.49184489250183105,0.5601955652236938,0.7102661728858948,-0.1724318563938141,0.9561775922775269,0.40085166692733765,0.6753174662590027,-0.14758175611495972,0.9137206673622131,178.4693206725247,0.4823765754699707,0.7040095329284668,122.0682555325207,112.79113900417796,0.9924791662748054,-0.0019364552013895577,-0.10707369006730225,0.014494047796689854,-1.350853484048881,-171.27288651062574,7.9848928375442645,23,1762115330.3825088
0.49106812477111816,0.33205100893974304,-0.3753943145275116,0.999930739402771,0.5397974252700806,0.43495211005210876,-0.19002918899059296,0.9999389052391052,0.4357094168663025,0.4231819212436676,-0.17425687611103058,0.9998471736907959,0.5135027170181274,0.6976053714752197,-0.00223179766908288,0.9798969030380249,0.45000404119491577,0.6939861178398132,0.0021190729457885027,0.9787595272064209,0.5002581477165222,0.8657288551330566,0.042095281183719635,0.7571313381195068,0.45387110114097595,0.8829225897789001,0.04227348417043686,0.7538608908653259,0.49602794647216797,0.9824426174163818,0.30787578225135803,0.5000326633453369,0.46222996711730957,0.8449246883392334,0.3961308002471924,0.46124911308288574,0.5579590797424316,0.695783257484436,-0.1757374256849289,0.9601325392723083,0.40043455362319946,0.6722331643104553,-0.15575279295444489,0.9202991724014282,178.7113532389996,0.4817533791065216,0.6957957446575165,128.42210493117824,95.89360209804057,0.9314216838339944,-0.010080699589270908,-0.1328645943809175,-0.1317396664535309,-0.41718850392878265,-173.54844437568346,2.905121742376204,24,1762115330.4443295
0.4890056252479553,0.3323494791984558,-0.37503695487976074,0.9999364614486694,0.535974383354187,0.42832666635513306,-0.19483229517936707,0.9999442100524902,0.4354325830936432,0.42188742756843567,-0.18191677331924438,0.9998533725738525,0.5124308466911316,0.6870223879814148,-0.002988787367939949,0.9818866848945618,0.4499627649784088,0.6836636662483215,0.002881974447518587,0.9808128476142883,0.5000928044319153,0.8522326946258545,0.04726838693022728,0.7796297669410706,0.45278605818748474,0.8611253499984741,0.0751166045665741,0.7699924111366272,0.4966816008090973,0.9776661992073059,0.276672899723053,0.5417494773864746,0.4585925042629242,0.8276993632316589,0.4133962094783783,0.45082396268844604,0.5561027526855469,0.6821990609169006,-0.1798272579908371,0.9636682868003845,0.3986724615097046,0.6661238074302673,-0.17733272910118103,0.9269325733184814,179.0078705271338,0.4811968058347702,0.6853430271148682,135.50993454594553,106.51574535978553,0.9186469934665906,-0.007974385294901312,-0.14976284578229293,0.0301785274068346,-0.2421121787983774,-176.33547439802524,3.7598845158250094,25,1762115330.5141246
0.48632878065109253,0.33298057317733765,-0.34769025444984436,0.9999418258666992,0.5326728820800781,0.4256792366504669,-0.18171371519565582,0.9999489188194275,0.4339197278022766,0.4193483591079712,-0.18145665526390076,0.9998623132705688,0.5107429027557373,0.6842418909072876,-0.002930908463895321,0.9836776852607727,0.44990506768226624,0.6817517876625061,0.002832745434716344,0.982659101486206,0.4998604655265808,0.8469592332839966,0.04479629173874855,0.8000054955482483,0.45262354612350464,0.8496122360229492,0.07342799007892609,0.7846040725708008,0.4971802234649658,0.9763650894165039,0.2403421401977539,0.5804824829101562,0.45736759901046753,0.8139777183532715,0.40450161695480347,0.43568843603134155,0.5536293983459473,0.6764264106750488,-0.17723551392555237,0.9666652083396912,0.3978343605995178,0.6624819040298462,-0.17523407936096191,0.9329636693000793,179.34623772947805,0.48032398521900177,0.6829968392848969,139.76199164270213,106.675137498517,0.8747518457371547,-0.01776149490813292,-0.047743834692620064,-0.1991631435145565,2.076039581634634,-176.33189579743848,2.8776301156956463,26,1762115330.5632658
0.4849299490451813,0.33342915773391724,-0.30263853073120117,0.9999465942382812,0.5318700075149536,0.427093505859375,-0.1559818685054779,0.9999530911445618,0.4335494041442871,0.4179301857948303,-0.15593013167381287,0.9998708963394165,0.5099258422851562,0.6834021806716919,-0.0030380075331777334,0.9852933883666992,0.44983235001564026,0.680265486240387,0.0029288840014487505,0.9843440055847168,0.49921950697898865,0.8458818793296814,0.043691523373126984,0.8181469440460205,0.4521968960762024,0.8483663201332092,0.07312056422233582,0.7979833483695984,0.4974907338619232,0.9717994928359985,0.22125811874866486,0.6137996315956116,0.4548323154449463,0.8297157883644104,0.3809663653373718,0.4261762797832489,0.5526694655418396,0.67560875415802,-0.14537669718265533,0.9694033265113831,0.396951287984848,0.6567763686180115,-0.13506510853767395,0.9385263323783875,179.37461705861207,0.47987909615039825,0.6818338334560394,141.2854904889168,109.200312118038,0.8285248869908158,-0.006774934919234497,-0.017710681959285036,0.16730739000779374,0.4573559333036995,-174.67550720988913,6.230388721668871,27,1762115330.6289327
0.4816967844963074,0.3335588574409485,-0.2737981677055359,0.9999507665634155,0.5286213755607605,0.4286794364452362,-0.15238915383815765,0.9999562501907349,0.4307805597782135,0.41786643862724304,-0.15116026997566223,0.9998775720596313,0.5068252086639404,0.6771975755691528,-0.003124549752101302,0.9867504239082336,0.4485803544521332,0.6733542084693909,0.0029976163059473038,0.985849142074585,0.49821892380714417,0.8399851322174072,0.0427456870675087,0.8338420391082764,0.45033884048461914,0.8358001708984375,0.07357675582170486,0.8044461607933044,0.49747198820114136,0.9735758304595947,0.17080983519554138,0.6456058025360107,0.4531412720680237,0.7679569721221924,0.37274980545043945,0.4026999771595001,0.5501616597175598,0.6733485460281372,-0.14611001312732697,0.9714096188545227,0.39446941018104553,0.6533803343772888,-0.13019214570522308,0.9436836838722229,179.54569885174848,0.4777027815580368,0.6752758920192719,151.82873796020226,100.71114805989022,0.7656945345653919,-0.029138389493979597,-0.08780341432894519,-0.29942134841947365,-0.9384623636917753,-173.69347912830966,1.9423475266994823,28,1762115330.7036216
0.4787563383579254,0.33548703789711,-0.29913732409477234,0.999954342842102,0.5242574214935303,0.4302394986152649,-0.16074970364570618,0.9999591708183289,0.4272519648075104,0.41851142048835754,-0.16011594235897064,0.9998843669891357,0.5028296709060669,0.6726077795028687,-0.003321513533592224,0.9880586266517639,0.4461318552494049,0.669040322303772,0.0031864747870713472,0.9871867895126343,0.4970383048057556,0.8361055254936218,0.04233243688941002,0.8481077551841736,0.4498662054538727,0.8292780518531799,0.07956328243017197,0.8082005381584167,0.4974616467952728,0.9747574925422668,0.1579192876815796,0.6749883890151978,0.4529251158237457,0.7694571614265442,0.3757894039154053,0.37945544719696045,0.54735267162323,0.6684912443161011,-0.15659093856811523,0.9727760553359985,0.3921023905277252,0.6533936262130737,-0.13764172792434692,0.948132336139679,179.70383208089137,0.4744807630777359,0.6708240509033203,155.69569680347638,104.07609665318743,0.7799491007185199,-0.05103193903714641,-0.07051048459879841,-0.34676097993370036,0.27389406397200156,-173.10632889026388,0.7312501744318891,29,1762115330.766759
0.47430795431137085,0.33683156967163086,-0.20196779072284698,0.9999580383300781,0.5194355845451355,0.43132027983665466,-0.11070312559604645,0.9999611377716064,0.4238385558128357,0.41922080516815186,-0.11526906490325928,0.9998913407325745,0.4995548725128174,0.6711159944534302,-0.0034891520626842976,0.9892405867576599,0.4435555040836334,0.668546199798584,0.0033507016487419605,0.9884264469146729,0.4959036409854889,0.8329867720603943,0.03241728991270065,0.8609558939933777,0.4488769471645355,0.8238475322723389,0.08099932968616486,0.8139572739601135,0.4974552094936371,0.9726796746253967,0.07815974950790405,0.7009350657463074,0.45059117674827576,0.8055849075317383,0.2950357496738434,0.36544182896614075,0.5450498461723328,0.6678340435028076,-0.10721732676029205,0.9741843342781067,0.3904745280742645,0.6564770340919495,-0.10464266687631607,0.9526574015617371,179.98081666923733,0.4715551882982254,0.6698310971260071,174.05205223972527,111.690551435622,0.6752920457660166,-0.046307338151216106,-0.015716927373247543,0.07478314770368517,0.8672975309747982,-172.78657268988528,0.05011440637256395,30,1762115330.8299363
0.4706886410713196,0.3391256034374237,-0.22696273028850555,0.9999611377716064,0.5137916207313538,0.4320206642150879,-0.12351659685373306,0.9999617338180542,0.4201045036315918,0.42010119557380676,-0.1289367377758026,0.9998986124992371,0.49569907784461975,0.6653819680213928,-0.003836650401353836,0.990303635597229,0.440260112285614,0.6618502140045166,0.003693223465234041,0.9895516633987427,0.4937823414802551,0.8275836706161499,0.029253128916025162,0.8727375268936157,0.447063684463501,0.8166962265968323,0.09765608608722687,0.8202642202377319,0.4974663257598877,0.9688937664031982,0.09360995143651962,0.7248508334159851,0.4493529200553894,0.8199217319488525,0.3020600974559784,0.3674083352088928,0.5390210151672363,0.6625159382820129,-0.113115094602108,0.9740040302276611,0.3891223073005676,0.6584399938583374,-0.11338050663471222,0.9566991925239563,-179.75120679795182,0.4679795950651169,0.6636160910129547,166.87883801621177,122.15388808675519,0.6991414717679877,-0.04726436560637624,-0.08215373003091682,-0.012650570852743145,-0.8782020565020591,-172.74942105594943,0.3452702681488193,31,1762115330.9055872
0.4710039496421814,0.34047380089759827,-0.2558838725090027,0.9999639391899109,0.5120502710342407,0.432150661945343,-0.13605132699012756,0.9999625086784363,0.418915331363678,0.42022475600242615,-0.14182692766189575,0.9999058842658997,0.4949704706668854,0.6642482876777649,-0.00441715307533741,0.9912567734718323,0.43992382287979126,0.6628390550613403,0.004276691935956478,0.9905571341514587,0.4925646185874939,0.8260871767997742,0.02932586334645748,0.8837478756904602,0.44556793570518494,0.8111778497695923,0.11424747854471207,0.8268128633499146,0.49694281816482544,0.9672150611877441,0.13600192964076996,0.7468745708465576,0.4468681216239929,0.8260655999183655,0.30402788519859314,0.379361093044281,0.5374628305435181,0.6607243418693542,-0.12864920496940613,0.9734401106834412,0.38874608278274536,0.6572216153144836,-0.1215590387582779,0.9603057503700256,-179.5258339400855,0.4674471467733383,0.6635436713695526,154.59020750019891,131.0268448404387,0.7319847472354661,-0.007877480617147211,-0.0010714361300608822,0.5827221682617276,1.1995985496812522,-172.7029990710246,0.6916240370355023,32,1762115330.9731784
0.46987277269363403,0.34317153692245483,-0.22876830399036407,0.9999660849571228,0.5074215531349182,0.43263763189315796,-0.11733715236186981,0.9999625086784363,0.4164161682128906,0.42080625891685486,-0.13886767625808716,0.9999118447303772,0.4928695261478424,0.6606829166412354,-0.00439664488658309,0.9921162724494934,0.43877822160720825,0.6597691774368286,0.004257473628968,0.9914613962173462,0.4912184774875641,0.8245314955711365,0.019471855834126472,0.8938874006271362,0.44486203789711,0.8089601993560791,0.09986715763807297,0.8314790725708008,0.496896356344223,0.9692384600639343,0.08999715000391006,0.7669640183448792,0.4459534287452698,0.8252862095832825,0.2996716797351837,0.38327521085739136,0.5350255370140076,0.6564177870750427,-0.09795296937227249,0.9719298481941223,0.38844627141952515,0.6547261476516724,-0.1203261986374855,0.9636114835739136,-179.04190153792553,0.46582387387752533,0.660226047039032,162.11267865181588,127.31106215707624,0.6974656155111003,-0.021538865496373016,-0.04402085712568372,-0.18127003300973515,-0.5698868036039672,-172.59267124112978,1.1534064876612242,33,1762115331.0485432
0.4673784673213959,0.34314534068107605,-0.2590097486972809,0.9999669194221497,0.5033422708511353,0.4308984577655792,-0.13137754797935486,0.9999628067016602,0.41351503133773804,0.42104631662368774,-0.14999735355377197,0.9999167323112488,0.49025851488113403,0.6499351263046265,-0.004372871946543455,0.9928860068321228,0.437816858291626,0.6505678296089172,0.004241070710122585,0.9922627210617065,0.48865073919296265,0.8135733008384705,0.02156451903283596,0.902753472328186,0.4451313614845276,0.7957398295402527,0.10675963014364243,0.8335342407226562,0.49688658118247986,0.9638646245002747,0.1042766198515892,0.7856319546699524,0.44578060507774353,0.8224878907203674,0.3138819932937622,0.39170095324516296,0.5317484736442566,0.6454049348831177,-0.11756336688995361,0.9705941081047058,0.38812536001205444,0.6504517197608948,-0.1334778070449829,0.9663208723068237,-178.56737833751805,0.46403768658638,0.6502514779567719,159.90795744194406,132.55150478244408,0.7222582753154921,-0.028162697025400443,-0.15726837180802875,-0.10443751415322157,-1.785566082957302,-173.74088722871994,1.2622890687226496,34,1762115331.111967
0.4655768871307373,0.34156888723373413,-0.3174181580543518,0.9999675750732422,0.5013240575790405,0.4285723865032196,-0.15512044727802277,0.9999621510505676,0.41258734464645386,0.421267569065094,-0.1797853410243988,0.9999197125434875,0.48813948035240173,0.6426347494125366,-0.004359127022325993,0.9935777187347412,0.43695998191833496,0.6431642174720764,0.004230342339724302,0.9929901361465454,0.48584669828414917,0.8010555505752563,0.02275964803993702,0.9111342430114746,0.445309579372406,0.7857370376586914,0.11047414690256119,0.8432866930961609,0.49566641449928284,0.9480590224266052,0.12623468041419983,0.8049551844596863,0.4452473223209381,0.826633870601654,0.3252355754375458,0.43594950437545776,0.5253165364265442,0.6345795392990112,-0.16203510761260986,0.9684889316558838,0.3878822922706604,0.6460595726966858,-0.1967453956604004,0.9684745669364929,-178.52993530480657,0.46254973113536835,0.6428994834423065,154.2743449316237,137.4033408567198,0.7700080846994195,-0.02356057631687235,-0.11641291257847627,0.07287087533367641,0.646913296015874,-175.294015235093,1.1463811526457515,35,1762115331.1751215
0.4642692506313324,0.3397446274757385,-0.3797086775302887,0.9999673366546631,0.49898582696914673,0.42364609241485596,-0.18632076680660248,0.9999576210975647,0.41216549277305603,0.42091408371925354,-0.2066597044467926,0.9999210238456726,0.48595866560935974,0.6316134333610535,-0.004311705473810434,0.9941973090171814,0.4367446303367615,0.6317325830459595,0.004187305923551321,0.9936487674713135,0.48469600081443787,0.7886995077133179,0.008117538876831532,0.9188061952590942,0.4454028010368347,0.7770013809204102,0.10610051453113556,0.8537498116493225,0.4934677481651306,0.9315145015716553,0.13179263472557068,0.8226346373558044,0.4438930153846741,0.8346810936927795,0.34352684020996094,0.48416897654533386,0.5148131847381592,0.6255570650100708,-0.20586052536964417,0.9584144353866577,0.3876102566719055,0.6375271081924438,-0.2417421042919159,0.9695748090744019,-178.41992823205294,0.4613516479730606,0.6316730082035065,143.50752944925114,138.60001980060136,0.8224329063420744,-0.01782161450944788,-0.16699501361856664,0.08536766748257849,-0.7524141346566107,-178.1976465076966,1.5903134795235596,36,1762115331.242348
0.4632198214530945,0.3382304012775421,-0.34859269857406616,0.9999672770500183,0.497945636510849,0.42252418398857117,-0.17803041636943817,0.9999526739120483,0.41240912675857544,0.4196391999721527,-0.18913228809833527,0.9999231696128845,0.4853161871433258,0.626811146736145,-0.004196093883365393,0.9947604537010193,0.4365788996219635,0.6278543472290039,0.0040747663006186485,0.9942514896392822,0.4848904609680176,0.786291778087616,0.009532968513667583,0.9259882569313049,0.4455327093601227,0.779265820980072,0.10076967626810074,0.8644172549247742,0.49331578612327576,0.9279162883758545,0.13661035895347595,0.8388686180114746,0.444044828414917,0.8356227278709412,0.3426531255245209,0.5261368751525879,0.511178731918335,0.6208733320236206,-0.18476934731006622,0.9444605708122253,0.3875883221626282,0.6358539462089539,-0.21800187230110168,0.9706125855445862,-178.39748842503235,0.46094754338264465,0.6273327469825745,142.93076578989366,135.57926764308695,0.8009198276644047,-0.006391263442887525,-0.06864498333308194,0.1807808835724459,1.5554907518459162,-178.06825446360764,1.663004002416726,37,1762115331.3055756
0.46312636137008667,0.3359532356262207,-0.3345068693161011,0.9999680519104004,0.498126745223999,0.4153992831707001,-0.15138058364391327,0.9999527335166931,0.41289788484573364,0.4147223234176636,-0.17006923258304596,0.9999244809150696,0.485079288482666,0.620891809463501,-0.003139657434076071,0.9952672123908997,0.4368247985839844,0.6230455040931702,0.0030262861400842667,0.9947949647903442,0.4852306842803955,0.7773668766021729,0.012477612122893333,0.9322147369384766,0.4461941719055176,0.77107834815979,0.07807496190071106,0.8744468688964844,0.49176526069641113,0.9035564064979553,0.19253046810626984,0.8528243899345398,0.44397908449172974,0.8362357020378113,0.3130876123905182,0.5662938952445984,0.5085629820823669,0.6103178858757019,-0.17434433102607727,0.9422210454940796,0.38762083649635315,0.6275404095649719,-0.1982092708349228,0.9715822339057922,-178.49400735573445,0.4609520435333252,0.6219686567783356,130.70316169667583,132.2537137614053,0.793761572470441,6.763705686529565e-05,-0.08062202800084568,0.09707697617281852,-0.18001442813336102,-179.54491798982122,2.5175250917702727,38,1762115331.3721094
0.46219295263290405,0.3326019048690796,-0.3268238306045532,0.9999672770500183,0.4974132478237152,0.4097684323787689,-0.14003954827785492,0.9999495148658752,0.4132186472415924,0.4082082211971283,-0.14330147206783295,0.9999217987060547,0.4844435155391693,0.6134761571884155,-0.001706751761958003,0.9956926107406616,0.43698811531066895,0.6159745454788208,0.001597228809259832,0.995259702205658,0.48556041717529297,0.7651318311691284,0.015564730390906334,0.9371287226676941,0.44677144289016724,0.7580738663673401,0.045496124774217606,0.8837447762489319,0.4896114468574524,0.8691067099571228,0.22807292640209198,0.8640886545181274,0.44416680932044983,0.8411650061607361,0.24340490996837616,0.6046876907348633,0.5065396428108215,0.5977888107299805,-0.1700582355260849,0.9394068717956543,0.3875773549079895,0.6122683882713318,-0.16826145350933075,0.9709998369216919,-178.49653397856554,0.46071581542491913,0.6147253513336182,122.56969564000694,129.77462804830452,0.7678154938694891,-0.003222992973781797,-0.09882449092446816,-0.04489591666145086,-0.24834644151454502,-178.93837271254603,7.456341322486796,39,1762115331.445404
0.46260517835617065,0.32956695556640625,-0.3229430317878723,0.9999690055847168,0.4976373612880707,0.4028724730014801,-0.136796772480011,0.9999513030052185,0.41347891092300415,0.40133216977119446,-0.1328464150428772,0.9999216198921204,0.48457178473472595,0.6012359261512756,-0.0015515063423663378,0.9960635900497437,0.4370605945587158,0.6064041256904602,0.001462722895666957,0.9956778883934021,0.4858866333961487,0.7548717260360718,0.015010746195912361,0.9410384297370911,0.44698962569236755,0.7459754943847656,0.03051437996327877,0.8917924165725708,0.4863211512565613,0.836039662361145,0.24159741401672363,0.8700500726699829,0.4446316361427307,0.8429024815559387,0.2198682278394699,0.6380436420440674,0.508450984954834,0.5924999713897705,-0.1547905057668686,0.9432769417762756,0.38788902759552,0.6022036671638489,-0.1414981186389923,0.9715927243232727,-178.50684364656172,0.4608161896467209,0.6038200259208679,115.86057456902589,128.69291382686404,0.7527067169037013,0.0012554459815291392,-0.13640003101339243,0.05601476244640939,-0.4699818335986433,-178.9514656984544,5.461574502091898,40,1762115331.525355
0.4631078839302063,0.32796406745910645,-0.30031779408454895,0.9999707341194153,0.49763235449790955,0.399941086769104,-0.11548116058111191,0.9999527931213379,0.4142685830593109,0.39786386489868164,-0.11578726768493652,0.9999219179153442,0.485062837600708,0.5961416959762573,-0.0006376909441314638,0.9964087009429932,0.4376332759857178,0.6013537645339966,0.0005874388152733445,0.9960775375366211,0.48637667298316956,0.7544233798980713,-0.0028985110111534595,0.9435395002365112,0.4472366273403168,0.7413802146911621,0.022435305640101433,0.8980157375335693,0.4835833013057709,0.7986013889312744,0.26263052225112915,0.8606979846954346,0.4460287094116211,0.8429042100906372,0.1991143822669983,0.6668475270271301,0.5112187266349792,0.5878098607063293,-0.12210448831319809,0.9476203918457031,0.3888660669326782,0.596036970615387,-0.12889905273914337,0.9728116989135742,-178.4528837202807,0.4613480567932129,0.598747730255127,98.62189904105293,128.61395051284092,0.7245734578800436,0.0074236441808845895,-0.07079760133909704,0.08609388448074835,0.9156592929561493,-178.5726242748783,2.6965763388118145,41,1762115331.5970001
0.46321845054626465,0.32685813307762146,-0.30263546109199524,0.9999721646308899,0.4976796507835388,0.40001174807548523,-0.11587150394916534,0.9999535083770752,0.4146359860897064,0.39807310700416565,-0.11883355677127838,0.9999207258224487,0.4852476716041565,0.5956515073776245,-0.00023044785484671593,0.9967229962348938,0.43784642219543457,0.6004366278648376,0.00018967306823469698,0.9964388608932495,0.4864664673805237,0.7529076337814331,-0.0012610587291419506,0.9465097784996033,0.4472438395023346,0.7417917251586914,0.02202155627310276,0.9047142863273621,0.48244547843933105,0.79206383228302,0.27886560559272766,0.8582325577735901,0.4467542767524719,0.8428757786750793,0.2070365846157074,0.6945495009422302,0.5121012926101685,0.5857598781585693,-0.1176268458366394,0.9508556723594666,0.3889954388141632,0.5952590703964233,-0.13104966282844543,0.9730015993118286,-178.4487334245344,0.46154704689979553,0.5980440676212311,97.57423328929794,127.32322035555917,0.733734564906999,0.003073230993559885,-0.010867463979173647,-0.06718838876808869,0.9255694101873715,-178.66268209300233,2.3885503511706463,42,1762115331.6617496
0.46342891454696655,0.3261769711971283,-0.32615992426872253,0.9999732375144958,0.49810442328453064,0.3995314836502075,-0.12336687743663788,0.9999542832374573,0.41605767607688904,0.39817488193511963,-0.1285162717103958,0.9999224543571472,0.48552069067955017,0.5911157131195068,0.0002459595852997154,0.9970139861106873,0.4380386471748352,0.5952303409576416,-0.0002799187204800546,0.9967736005783081,0.4865036606788635,0.7472519874572754,-0.03570937365293503,0.9416453838348389,0.44727668166160583,0.7388207912445068,0.007102227304130793,0.905693769454956,0.4794893264770508,0.757222592830658,0.2859441637992859,0.8069095611572266,0.44735461473464966,0.8408799767494202,0.18622641265392303,0.7121285200119019,0.5127435326576233,0.583747923374176,-0.12425484508275986,0.9527267813682556,0.3893265128135681,0.5945586562156677,-0.14069131016731262,0.9728243947029114,-178.6148681529708,0.4617796689271927,0.5931730270385742,78.80270596213454,122.54114388894818,0.7346630489401929,0.0026861867607867324,-0.05624800398652072,-0.0044693664892665845,-0.5240286447893747,-179.0527294102442,1.354380976043835,43,1762115331.748349
0.4635171890258789,0.3248021900653839,-0.3230646848678589,0.9999752044677734,0.498485267162323,0.3977239727973938,-0.12739680707454681,0.9999567270278931,0.4193727970123291,0.394607812166214,-0.13323025405406952,0.9999269843101501,0.4856835901737213,0.583217203617096,0.00039396394276991487,0.99728924036026,0.4388774335384369,0.5880124568939209,-0.0004304990288801491,0.997085452079773,0.48661646246910095,0.7384958863258362,-0.03865649551153183,0.9358237385749817,0.4476039409637451,0.7343865036964417,0.005128914024680853,0.9065768718719482,0.4767100214958191,0.7326201796531677,0.2792128324508667,0.7531735897064209,0.4476909637451172,0.8406363725662231,0.16481700539588928,0.7292667031288147,0.5130571722984314,0.5827661156654358,-0.1272793710231781,0.9557847380638123,0.3909819424152374,0.5847743153572083,-0.1444668024778366,0.9736502170562744,-178.9865046498878,0.4622805118560791,0.5856148302555084,74.8219988565869,125.74055062220614,0.7144206337373268,0.006978912310426737,-0.10531843324861713,0.059816268645893816,-0.6837637173326956,-177.74434293372767,0.6824838741748662,44,1762115331.8201141
0.4639049172401428,0.32380110025405884,-0.3239677846431732,0.9999770522117615,0.4989096224308014,0.39717772603034973,-0.13114461302757263,0.9999585151672363,0.42246508598327637,0.39359816908836365,-0.13747595250606537,0.9999327063560486,0.48603782057762146,0.5813813805580139,0.00046661734813824296,0.9975435137748718,0.44030818343162537,0.5855410099029541,-0.0005133849335834384,0.9973713159561157,0.48652902245521545,0.7308719158172607,-0.03221609443426132,0.9205580353736877,0.4488043189048767,0.7323610186576843,0.01237398199737072,0.9032501578330994,0.47850877046585083,0.6923418641090393,0.2955368161201477,0.6885523796081543,0.4482085108757019,0.8406660556793213,0.16780748963356018,0.7396721243858337,0.5144045948982239,0.5861368775367737,-0.12785297632217407,0.9556078910827637,0.3919275403022766,0.5860151648521423,-0.14580616354942322,0.9732390642166138,-179.2428012029361,0.4631730020046234,0.583461195230484,70.96440755887757,129.79014939969477,0.7104377949679275,0.012459808411774888,-0.03006630363871174,0.07651727636324859,1.05057419294407,-177.3190523016888,0.57684624897885,45,1762115331.8917437
0.4654476046562195,0.3239442706108093,-0.3476783037185669,0.9999788999557495,0.5008164048194885,0.3963775932788849,-0.1548628807067871,0.9999603629112244,0.4251440167427063,0.39352619647979736,-0.16203394532203674,0.9999377131462097,0.48658743500709534,0.5795443058013916,0.0009638083283789456,0.997765839099884,0.4417644441127777,0.5827920436859131,-0.001034818938933313,0.9976285696029663,0.4865038990974426,0.7239813804626465,0.012824955396354198,0.9146705269813538,0.44951438903808594,0.728564441204071,-0.0030276707839220762,0.9068388342857361,0.47945937514305115,0.7241537570953369,0.3291540741920471,0.6533759832382202,0.4484732151031494,0.8414485454559326,0.12878639996051788,0.7568930387496948,0.5173888802528381,0.5872505307197571,-0.15826156735420227,0.9572624564170837,0.3922925293445587,0.5883335471153259,-0.17108586430549622,0.9725281000137329,-179.63209838072132,0.4641759395599365,0.5811681747436523,94.72526704241109,129.69942669110972,0.7369364767822365,0.01365698655931433,-0.031224027660541522,0.016301957966811487,-0.01576471169293146,-177.84206959895076,0.2956907627365549,46,1762115331.9651814
0.46632057428359985,0.3235509395599365,-0.3445279896259308,0.9999807476997375,0.5015848875045776,0.3955369293689728,-0.15730704367160797,0.9999623894691467,0.42618289589881897,0.39344534277915955,-0.16537036001682281,0.9999421834945679,0.48687314987182617,0.5775927901268005,0.0009412457002326846,0.9979677796363831,0.4424377381801605,0.5813177824020386,-0.001007400918751955,0.9978600144386292,0.48653650283813477,0.7195793986320496,0.021506784483790398,0.909447431564331,0.45008301734924316,0.7256782650947571,-0.000873445242177695,0.9087986946105957,0.4808395504951477,0.733752429485321,0.32389411330223083,0.6273639798164368,0.4487147927284241,0.8414025902748108,0.12711820006370544,0.7715743184089661,0.5192047357559204,0.5872324109077454,-0.16036178171634674,0.9596297740936279,0.3930261731147766,0.5909874439239502,-0.17395995557308197,0.9727630615234375,-179.7609999807519,0.46465544402599335,0.5794552862644196,100.92533548918851,132.0629825492689,0.7350251478779379,0.007444651529509313,-0.026593824957801535,-0.09645096710315416,0.07188722540241473,-178.41107166288913,0.2183480980443741,47,1762115332.0295906
0.4678267538547516,0.32379773259162903,-0.3494665324687958,0.999982476234436,0.5041005611419678,0.39451760053634644,-0.15868914127349854,0.9999651312828064,0.42992672324180603,0.39278846979141235,-0.16978013515472412,0.9999469518661499,0.48792576789855957,0.5755261182785034,0.0038136106450110674,0.9981584548950195,0.4447976052761078,0.5790164470672607,-0.003937909379601479,0.9980718493461609,0.4865337014198303,0.7137419581413269,0.08179768919944763,0.9120004177093506,0.45020437240600586,0.7223374843597412,-0.022712290287017822,0.9159323573112488,0.4888041019439697,0.7350913286209106,0.3869342803955078,0.63288813829422,0.4490109384059906,0.8400137424468994,0.08738890290260315,0.7914496064186096,0.5229384899139404,0.587664783000946,-0.17036935687065125,0.9622104167938232,0.395033061504364,0.5899468064308167,-0.18527081608772278,0.9720355272293091,179.7965662557716,0.4663616865873337,0.5772712826728821,123.42706358235907,129.38500428895475,0.7477982624437538,0.02346585785720141,-0.03003647839986884,0.22033874837302822,-0.04734661891196548,-178.6645702054052,1.208481616392037,48,1762115332.1023023
0.4696935713291168,0.3239688277244568,-0.3436644673347473,0.9999840259552002,0.5072687864303589,0.3950955271720886,-0.15788529813289642,0.9999674558639526,0.4338839650154114,0.3933497667312622,-0.17131307721138,0.9999515414237976,0.4906309247016907,0.5746049880981445,0.006185988895595074,0.998332679271698,0.44853582978248596,0.5782440900802612,-0.0063743069767951965,0.9982637166976929,0.486555814743042,0.7066582441329956,0.13994067907333374,0.9152695536613464,0.45056313276290894,0.719483494758606,-0.031238814815878868,0.9234558343887329,0.49090576171875,0.7289551496505737,0.4331686496734619,0.6510125398635864,0.44906702637672424,0.8361143469810486,0.05634431913495064,0.8107544779777527,0.5259109139442444,0.5871500372886658,-0.17144732177257538,0.9643020629882812,0.39867138862609863,0.5911511778831482,-0.18713530898094177,0.9708865284919739,179.68774166912846,0.4695833772420883,0.5764245390892029,139.6622433263497,133.08908103894817,0.7460040252695135,0.044208578841126875,-0.011619157296202632,0.284635092026613,0.25272556533389035,-178.63724076670013,0.6954159027220501,49,1762115332.175177
0.47162383794784546,0.32490983605384827,-0.3423326909542084,0.99998539686203,0.5101597309112549,0.3954947292804718,-0.15657559037208557,0.9999697804450989,0.4372187554836273,0.39356815814971924,-0.16763699054718018,0.9999553561210632,0.4937281012535095,0.5727308988571167,0.007912895642220974,0.9984893202781677,0.4519825577735901,0.5746657252311707,-0.008111750707030296,0.9984363913536072,0.48674148321151733,0.6999585628509521,0.15332093834877014,0.9188212752342224,0.45172610878944397,0.716564416885376,-0.04277610033750534,0.9304108619689941,0.49185657501220703,0.7273385524749756,0.4276849329471588,0.6717089414596558,0.44911736249923706,0.8313126564025879,0.026202872395515442,0.8283808827400208,0.5274482369422913,0.5860252976417542,-0.17025211453437805,0.9665303826332092,0.4032617509365082,0.5895501375198364,-0.1854095309972763,0.9654993414878845,179.73332463757785,0.4728553295135498,0.5736983120441437,144.3802294986464,135.24940891053285,0.728402926324664,0.057021138464734604,-0.047510647138256985,0.22328771197480582,-0.6254900567590649,-178.48701315613343,0.6649113372988164,50,1762115332.2325585
0.47380462288856506,0.3258650600910187,-0.34777751564979553,0.9999867081642151,0.5125078558921814,0.3956497609615326,-0.16410799324512482,0.9999720454216003,0.4408254027366638,0.3937494456768036,-0.17407122254371643,0.9999590516090393,0.4960382580757141,0.5691715478897095,0.008613561280071735,0.9986323118209839,0.45513540506362915,0.5698760151863098,-0.008816110901534557,0.9985920786857605,0.48673009872436523,0.697443962097168,0.13860109448432922,0.9221976399421692,0.453542560338974,0.7141419053077698,-0.056121546775102615,0.9366607666015625,0.4915887713432312,0.7185424566268921,0.42408299446105957,0.6864684820175171,0.449431836605072,0.82823246717453,0.01283672172576189,0.8443049192428589,0.5290853977203369,0.584277868270874,-0.17800922691822052,0.9686520099639893,0.4087058901786804,0.5875727534294128,-0.19412967562675476,0.9623487591743469,179.646118360627,0.47558683156967163,0.5695237815380096,139.4329136935024,130.6918549043812,0.7217422781590594,0.033877869051209715,-0.05177524853775231,-0.2870379133894727,-0.05289236647064221,-178.4814338110209,2.879656911024878,51,1762115332.3131864
0.4750887453556061,0.3258906304836273,-0.3449704051017761,0.9999878406524658,0.5134057998657227,0.3957747220993042,-0.1618538796901703,0.9999736547470093,0.4419562816619873,0.3945005238056183,-0.1744961142539978,0.999961793422699,0.4969515800476074,0.5689474940299988,0.008358855731785297,0.9987574219703674,0.45609650015830994,0.5689755082130432,-0.008553664200007915,0.9987317323684692,0.48699086904525757,0.7000942826271057,0.1212063804268837,0.9202513694763184,0.4547483026981354,0.711720883846283,-0.06376515328884125,0.9411353468894958,0.4917517304420471,0.7071133255958557,0.4042320251464844,0.6814364790916443,0.4498116970062256,0.8266477584838867,0.011266307905316353,0.8569385409355164,0.5292036533355713,0.5850628018379211,-0.17190596461296082,0.9695899486541748,0.4086684584617615,0.587325394153595,-0.19125357270240784,0.9558699727058411,179.6186353883825,0.4765240401029587,0.568961501121521,131.96308001456558,125.70752359891007,0.7070994113108429,0.014686748090804478,-0.00881134831796512,-0.3007390021696514,0.6732759648627855,-178.97832136190297,13.018709378139212,52,1762115332.3769996
0.47744375467300415,0.3261873126029968,-0.31881770491600037,0.9999885559082031,0.5152572393417358,0.3959669768810272,-0.15153121948242188,0.9999745488166809,0.44475460052490234,0.3945738971233368,-0.15890295803546906,0.9999620318412781,0.49820294976234436,0.5668877363204956,0.008262203074991703,0.998863697052002,0.45774978399276733,0.5650044083595276,-0.008466402068734169,0.998856782913208,0.4869268834590912,0.6958652138710022,0.12242095172405243,0.9198625683784485,0.45571717619895935,0.707400918006897,-0.05581005662679672,0.9459795355796814,0.4917612075805664,0.7129006385803223,0.38623085618019104,0.6900944113731384,0.45090165734291077,0.8212081789970398,0.008835045620799065,0.8694526553153992,0.5293410420417786,0.584776759147644,-0.15335962176322937,0.9698777198791504,0.4171770215034485,0.5680991411209106,-0.16883119940757751,0.9306469559669495,179.3187115218225,0.47797636687755585,0.5659460723400116,134.97613371120113,132.00777997443424,0.6789839149377079,0.01636606905371531,-0.0339804488410894,0.018924035088434956,-0.2836271040280231,-178.86802527206902,195.09994360994102,53,1762115332.4657397
0.4797487258911133,0.32621943950653076,-0.3566065728664398,0.9999884366989136,0.5169049501419067,0.3961920738220215,-0.18099597096443176,0.9999754428863525,0.4468691349029541,0.39313533902168274,-0.16630952060222626,0.9999608993530273,0.4987238347530365,0.5623481869697571,0.006526780314743519,0.9989579916000366,0.4582236409187317,0.5604267120361328,-0.006665120366960764,0.9989681243896484,0.4869634211063385,0.6889360547065735,0.11662526428699493,0.921005129814148,0.4571003019809723,0.7027871608734131,-0.056927431374788284,0.9500714540481567,0.4916246831417084,0.7148074507713318,0.37938806414604187,0.696161687374115,0.4519476890563965,0.8149296045303345,0.029506251215934753,0.880615234375,0.5299117565155029,0.5820231437683105,-0.18957120180130005,0.97064608335495,0.4253443777561188,0.5534541010856628,-0.16112400591373444,0.9060848355293274,178.8271578313823,0.4784737378358841,0.561387449502945,136.37627341377683,122.9216789024498,0.712220270092725,0.006421019421958201,-0.058851457416356306,-0.12838979793369254,-0.3210827380075603,-177.50089405068462,13.837229287415177,54,1762115332.5431995
0.4815715253353119,0.32534927129745483,-0.3232446610927582,0.9999877214431763,0.5176387429237366,0.3957149088382721,-0.18022331595420837,0.9999739527702332,0.44834914803504944,0.38895106315612793,-0.14445574581623077,0.9999550580978394,0.49896660447120667,0.5632100105285645,-0.0003830312052741647,0.9990045428276062,0.4584633708000183,0.5617639422416687,0.00034024447086267173,0.9990515112876892,0.48702722787857056,0.6827487349510193,0.0223698727786541,0.9258949756622314,0.45800432562828064,0.6984536647796631,-0.006176145281642675,0.9532753229141235,0.4914662837982178,0.7173100709915161,0.25321146845817566,0.7177132368087769,0.4542759954929352,0.8042504787445068,0.11204211413860321,0.8904819488525391,0.5306994318962097,0.5790043473243713,-0.16211339831352234,0.9719452857971191,0.43192848563194275,0.5548192858695984,-0.13212428987026215,0.8970319628715515,178.55945450835733,0.4787149876356125,0.5624869763851166,109.0790103216918,129.08742278960787,0.6675191247641834,0.0031890066529888022,0.01453430654173797,-0.042722979394768455,0.9700637669357823,-174.4246198156527,12.007304739150193,55,1762115332.61885
0.48305144906044006,0.323943167924881,-0.28989940881729126,0.9999877214431763,0.5185123085975647,0.39405709505081177,-0.14495328068733215,0.9999731183052063,0.4494417607784271,0.38360482454299927,-0.11780373752117157,0.9999555349349976,0.49893060326576233,0.5624197721481323,-0.005312970373779535,0.9990590810775757,0.4591018557548523,0.5604005455970764,0.005290060769766569,0.9991301894187927,0.4871734082698822,0.675640344619751,0.02709462307393551,0.9307749271392822,0.4585692286491394,0.6897656917572021,0.0190427266061306,0.9563913345336914,0.4909803867340088,0.7270170450210571,0.2516518831253052,0.738926351070404,0.4568839967250824,0.7915701270103455,0.1476549208164215,0.8994949460029602,0.5307584404945374,0.5761857628822327,-0.14150556921958923,0.9729788899421692,0.4355107843875885,0.5524700880050659,-0.0925912857055664,0.8989510536193848,178.3534808682675,0.4790162295103073,0.5614101588726044,118.59121831887921,134.42934097355763,0.6551908896929977,0.004559380198541432,-0.016297934837128908,0.02074098766822282,-0.4666546142094856,-171.39486474782444,4.671748802496995,56,1762115332.6849208
0.4831458628177643,0.32334986329078674,-0.293564110994339,0.9999874234199524,0.5187984704971313,0.3930831551551819,-0.14240622520446777,0.9999723434448242,0.44995418190956116,0.38193756341934204,-0.11673889309167862,0.9999549984931946,0.4987785816192627,0.5610552430152893,-0.006608544383198023,0.9990989565849304,0.45925450325012207,0.5588362216949463,0.006602783687412739,0.9991986155509949,0.48721036314964294,0.6735696792602539,0.022006548941135406,0.9346904754638672,0.4588542878627777,0.687927782535553,0.010443268343806267,0.9589716792106628,0.49075135588645935,0.7291423082351685,0.24523603916168213,0.7566839456558228,0.45800280570983887,0.7915372252464294,0.13144303858280182,0.9073749780654907,0.5306121706962585,0.5735101103782654,-0.1437622606754303,0.9736922383308411,0.4367963671684265,0.5498812198638916,-0.09308171272277832,0.8973139524459839,178.2196567780573,0.4790165424346924,0.5599457323551178,117.99327203083062,132.27452525321604,0.6505906508781776,4.696473619236756e-06,-0.021978601971624354,-0.06835821360877413,-0.08525734845108614,-170.8038521284828,3.9827328198221092,57,1762115332.7515504
0.4838935434818268,0.3229013681411743,-0.2929072678089142,0.9999874234199524,0.5185214281082153,0.39070871472358704,-0.14027279615402222,0.999972403049469,0.4504726827144623,0.3794928789138794,-0.11884347349405289,0.9999538064002991,0.49875083565711975,0.5568125247955322,-0.0068666390143334866,0.9991288185119629,0.45963844656944275,0.5550526976585388,0.006857679225504398,0.9992424845695496,0.48761409521102905,0.6699592471122742,0.021129000931978226,0.9388207793235779,0.4594840407371521,0.6823573708534241,0.03266388922929764,0.9608831405639648,0.48974472284317017,0.7362827658653259,0.23909540474414825,0.7743023633956909,0.45946040749549866,0.7785871624946594,0.18338730931282043,0.9138163924217224,0.5308552980422974,0.567759096622467,-0.1415550410747528,0.9745944142341614,0.43789857625961304,0.5445556044578552,-0.0975436121225357,0.8997573256492615,178.22217860891297,0.47919464111328125,0.5559326112270355,120.60474170053378,134.01317527332176,0.6656362402167344,0.0025883217141827557,-0.05832299621626866,0.03754802317707492,-0.5281958606183165,-170.64062100254722,5.028381604022625,58,1762115332.820359
0.48414331674575806,0.3215809762477875,-0.29308757185935974,0.9999871253967285,0.5184422731399536,0.38873961567878723,-0.1379195600748062,0.9999719858169556,0.45129504799842834,0.3764907121658325,-0.12467062473297119,0.9999528527259827,0.49879178404808044,0.5539003014564514,-0.005692278500646353,0.999171257019043,0.4601566195487976,0.5514965653419495,0.0056607541628181934,0.9992802143096924,0.489025354385376,0.6665260195732117,0.034374359995126724,0.9431045055389404,0.45999279618263245,0.6767712235450745,0.05160846188664436,0.9630337953567505,0.4891490936279297,0.7394475936889648,0.25007617473602295,0.7930864691734314,0.45984601974487305,0.7628664374351501,0.23536638915538788,0.9201103448867798,0.531135618686676,0.5601902604103088,-0.13620398938655853,0.9747170805931091,0.43830054998397827,0.5420152544975281,-0.11516790091991425,0.9035738706588745,178.18338308575662,0.479474201798439,0.5526984333992004,128.10693106833173,135.24396512007138,0.6868185656022671,0.004139848819720518,-0.04789302635945742,0.022975647140798403,0.15445125403477922,-169.66185588623793,430.9155819120127,59,1762115332.8878882
0.48395437002182007,0.3205508887767792,-0.2818305492401123,0.9999868869781494,0.5180952548980713,0.38715797662734985,-0.12337292730808258,0.9999724626541138,0.45132380723953247,0.375625878572464,-0.12451674789190292,0.9999525547027588,0.49875855445861816,0.5514855980873108,-0.0028123906813561916,0.9992339015007019,0.4604538381099701,0.5492250323295593,0.0027284743264317513,0.9993264079093933,0.49016818404197693,0.6634445786476135,0.03219850733876228,0.9472137093544006,0.46034154295921326,0.6711281538009644,0.03625274449586868,0.964923083782196,0.4889349937438965,0.7400562763214111,0.24768435955047607,0.8104170560836792,0.46033430099487305,0.7397567629814148,0.2400781214237213,0.9242696166038513,0.5309798121452332,0.5544760227203369,-0.11843258142471313,0.9741284847259521,0.43758755922317505,0.5398686528205872,-0.12094378471374512,0.9067516922950745,178.26997622566515,0.47960619628429413,0.5503553152084351,126.84792708804996,123.9837480546681,0.6725465695658315,0.0018510562179440027,-0.03285927793343721,-0.032097430052899986,0.21082936398978983,-170.2011112096017,8.215071257993296,60,1762115332.9591959
0.48374706506729126,0.31942421197891235,-0.28358206152915955,0.9999865293502808,0.5179855227470398,0.38547393679618835,-0.12304715067148209,0.9999730587005615,0.4512634873390198,0.37533557415008545,-0.12529949843883514,0.9999516606330872,0.49869304895401,0.5490323901176453,-0.0009928904473781586,0.9992995262145996,0.4604121744632721,0.5469366908073425,0.0008672400144860148,0.9993743896484375,0.4909019470214844,0.6604260206222534,0.03384527191519737,0.9510294198989868,0.4607153534889221,0.6666676998138428,0.040763117372989655,0.9662799835205078,0.48892727494239807,0.7399266362190247,0.236934095621109,0.8262395262718201,0.4598624110221863,0.7233273983001709,0.25825902819633484,0.926371157169342,0.530460774898529,0.5446346998214722,-0.12334723770618439,0.9735732674598694,0.43513602018356323,0.5427978038787842,-0.1432693898677826,0.9102137684822083,178.26644125741237,0.47955261170864105,0.5479845404624939,128.68375672061913,123.02795302076414,0.6724205133222487,-0.0008432541543633478,-0.037308602880758795,-0.04240004491781399,-0.07001850253014036,-171.3600400358348,3.5848651837595753,61,1762115333.0227408
0.48370224237442017,0.3183586001396179,-0.2876315116882324,0.9999862313270569,0.5178765654563904,0.38505205512046814,-0.12606123089790344,0.9999733567237854,0.4512142241001129,0.3750979006290436,-0.131934255361557,0.9999508261680603,0.49865230917930603,0.5489298105239868,-0.0002661491453181952,0.999358057975769,0.4604039192199707,0.5467128157615662,0.00013506351388059556,0.9994164705276489,0.4909055233001709,0.6605083346366882,0.03420000523328781,0.9544245600700378,0.46082252264022827,0.6645259261131287,0.04758794978260994,0.9674268364906311,0.4885975420475006,0.7401747703552246,0.23759111762046814,0.8405219316482544,0.4598538875579834,0.7192767858505249,0.27239862084388733,0.9281072616577148,0.530413031578064,0.543296217918396,-0.12771527469158173,0.9722206592559814,0.43444520235061646,0.5440366864204407,-0.15245606005191803,0.912187397480011,178.28679819621536,0.47952811419963837,0.5478213131427765,128.50231508068774,125.62316059118339,0.6809964382807392,-0.0003345924647497476,-0.002229395291282686,0.00694741528344486,0.4791196740674395,-171.50722958947878,3.0606085409765464,62,1762115333.0959568
0.4834918975830078,0.31831803917884827,-0.30030056834220886,0.9999856352806091,0.5173794627189636,0.38467487692832947,-0.1313670575618744,0.9999734163284302,0.4510999619960785,0.37504878640174866,-0.15048667788505554,0.9999492168426514,0.4985281527042389,0.5475572943687439,0.0005127956392243505,0.999413013458252,0.46028876304626465,0.5454474687576294,-0.0006522756302729249,0.9994552731513977,0.4910103380680084,0.6601607203483582,0.0243483018130064,0.9573545455932617,0.460712194442749,0.664866030216217,0.03689136356115341,0.96821129322052,0.48861145973205566,0.7401188611984253,0.23406381905078888,0.8527950048446655,0.4597960114479065,0.7054266333580017,0.27664852142333984,0.9240860342979431,0.5300644636154175,0.5432826280593872,-0.14654415845870972,0.9693718552589417,0.4337139129638672,0.5454513430595398,-0.17221130430698395,0.9125159382820129,178.33934193044604,0.47940845787525177,0.5465023815631866,122.78746490766962,117.05233657748344,0.6873312825599502,-0.0017286959217415266,-0.01905483604298705,-0.02014085735076621,-0.24308009591704538,-171.73643676846186,2.9129726589112908,63,1762115333.1651745
0.48337048292160034,0.31847408413887024,-0.2994611859321594,0.9999840259552002,0.516197144985199,0.3847602903842926,-0.13240236043930054,0.9999728202819824,0.4507904052734375,0.37543976306915283,-0.15308153629302979,0.9999459981918335,0.4983181059360504,0.5466400384902954,0.0006569543620571494,0.9994629621505737,0.4603193700313568,0.5443880558013916,-0.0008051506010815501,0.9994908571243286,0.49094557762145996,0.6575292944908142,0.03462677448987961,0.9597059488296509,0.46085888147354126,0.6610344052314758,0.05839328095316887,0.967759370803833,0.4886170029640198,0.7391269207000732,0.23802034556865692,0.8640287518501282,0.4596465528011322,0.6970053911209106,0.2942845821380615,0.9214476943016052,0.5300294160842896,0.5340197086334229,-0.14670968055725098,0.96763014793396,0.4319540858268738,0.5457573533058167,-0.16956764459609985,0.9131520986557007,178.5541659069201,0.4793187379837036,0.5455140471458435,128.84375624036346,125.57450958482882,0.6925878849050352,-0.0014108103548465705,-0.015541173824207546,0.004998626744783331,0.05525097005970626,-171.8898947277314,2.3568450826414615,64,1762115333.228769
0.4826791286468506,0.31887543201446533,-0.29324454069137573,0.999982476234436,0.5136464834213257,0.38484254479408264,-0.1332852840423584,0.9999719858169556,0.4503703713417053,0.37574535608291626,-0.15299373865127563,0.9999448657035828,0.4980700612068176,0.5461019277572632,0.0007121764356270432,0.9995086193084717,0.4603976607322693,0.5446276068687439,-0.0008622106397524476,0.9995245337486267,0.4909006953239441,0.6534560918807983,0.05091695114970207,0.9614816308021545,0.46084508299827576,0.6549195647239685,0.08677087724208832,0.9658123850822449,0.48863139748573303,0.7383401393890381,0.2327105551958084,0.8742372989654541,0.4591748118400574,0.690571665763855,0.3026667833328247,0.9206994771957397,0.5291069746017456,0.534254789352417,-0.1429290473461151,0.9658086895942688,0.42906612157821655,0.5438727736473083,-0.16738678514957428,0.9159506559371948,179.03704373618345,0.47923386096954346,0.5453647673130035,140.02125836063982,137.83975627142092,0.6864451859531118,-0.0010352659266647862,-0.0018208030290252507,0.004580608239962342,0.1673507548069092,-171.81866330492647,1.407848709224904,65,1762115333.3107548
0.4815908372402191,0.32047080993652344,-0.29023727774620056,0.9999822974205017,0.5102859735488892,0.3847343325614929,-0.13671919703483582,0.999972939491272,0.4494457244873047,0.3760101795196533,-0.15049108862876892,0.9999440908432007,0.4964413642883301,0.5438701510429382,-0.001408350421115756,0.999552309513092,0.4603075385093689,0.5417095422744751,0.001253536087460816,0.9995570778846741,0.49013763666152954,0.6498277187347412,0.05452049896121025,0.963472843170166,0.46068668365478516,0.6464298963546753,0.10966534912586212,0.9634537100791931,0.48862630128860474,0.7383280396461487,0.21602706611156464,0.8844442367553711,0.45796141028404236,0.6892366409301758,0.31093502044677734,0.9221925735473633,0.5263882875442505,0.5288337469100952,-0.14528527855873108,0.9668132662773132,0.4256131649017334,0.5386515855789185,-0.16304413974285126,0.9207457900047302,179.47389696354583,0.4783744513988495,0.5427898466587067,146.46655640987865,147.98434202338927,0.6792398536952545,-0.013871464909816477,-0.04156100038867232,-0.2071851301660865,-0.641434272995575,-171.8397311271502,0.7037203523328521,66,1762115333.37271
0.48072847723960876,0.32109537720680237,-0.29184219241142273,0.9999821782112122,0.5092920064926147,0.3847740590572357,-0.13872848451137543,0.9999735355377197,0.44885945320129395,0.3761869966983795,-0.15027102828025818,0.999943733215332,0.49584922194480896,0.5415627956390381,-0.0018373951315879822,0.9995905160903931,0.4602237343788147,0.5393354892730713,0.0016880023758858442,0.9995841383934021,0.4897751212120056,0.6495221257209778,0.04888047277927399,0.9656428098678589,0.46010690927505493,0.6484590768814087,0.08847024291753769,0.9628375172615051,0.4886159300804138,0.7383294105529785,0.20330628752708435,0.8936658501625061,0.45718488097190857,0.6887311935424805,0.30010804533958435,0.9218035936355591,0.5257316827774048,0.5280375480651855,-0.1486428678035736,0.967197597026825,0.42443838715553284,0.536555290222168,-0.16408087313175201,0.9250299334526062,179.62777762451654,0.47803647816181183,0.5404491424560547,144.98734191388823,139.26055318322327,0.6704568251887675,-0.0057351257423980066,-0.03971981049633454,0.1380669328049292,0.031243466615117895,-171.91279056443534,0.5090354323360827,67,1762115333.4316404
0.4798503816127777,0.3220221996307373,-0.30131614208221436,0.9999796152114868,0.507350742816925,0.38501226902008057,-0.14681890606880188,0.9999718070030212,0.44742196798324585,0.37637630105018616,-0.1558026522397995,0.9999437928199768,0.49413323402404785,0.5409204959869385,-0.001966750482097268,0.9996233582496643,0.4595556855201721,0.5383874177932739,0.00183227623347193,0.9996065497398376,0.48961663246154785,0.6469932794570923,0.038715705275535583,0.9676854610443115,0.4599691331386566,0.6458294987678528,0.101030632853508,0.9622111320495605,0.4886631369590759,0.7390742897987366,0.19183726608753204,0.9023615717887878,0.45674434304237366,0.6892983913421631,0.32477954030036926,0.9231473803520203,0.522973358631134,0.5287074446678162,-0.15728028118610382,0.9615610241889954,0.4231263995170593,0.535448431968689,-0.17342785000801086,0.927605152130127,179.80467868495592,0.47684445977211,0.5396539568901062,141.96166045381634,143.6953251802551,0.6833911175899701,-0.015572536737910285,-0.010388309900391829,-0.12851600735107405,0.38318693281452226,-171.7999067197901,0.2592624906474667,68,1762115333.5081866
0.47876062989234924,0.32250988483428955,-0.3012484312057495,0.9999767541885376,0.5040155053138733,0.38504528999328613,-0.15006548166275024,0.9999673366546631,0.4451562464237213,0.37673449516296387,-0.1556140035390854,0.9999430179595947,0.49247750639915466,0.537378191947937,-0.005017341114580631,0.9996488690376282,0.45826831459999084,0.5352410078048706,0.004906448535621166,0.9996204972267151,0.48899251222610474,0.6435844898223877,0.02579682134091854,0.970015823841095,0.4594201445579529,0.6406633853912354,0.1020566001534462,0.9619176983833313,0.48875123262405396,0.7402560114860535,0.16398833692073822,0.9109350442886353,0.4564916491508484,0.6926769614219666,0.30078670382499695,0.9267943501472473,0.5187850594520569,0.5313402414321899,-0.15946577489376068,0.9505288004875183,0.4225803315639496,0.5329471230506897,-0.17385926842689514,0.9305374026298523,-179.709860621851,0.47537291049957275,0.5363095998764038,141.11885176613208,147.30144523287512,0.6633301006426688,-0.022562564886165905,-0.05127743496761175,-0.10717477599592456,-0.6269335010964512,-171.96309398513847,0.49627393399827535,69,1762115333.5734074
0.47723817825317383,0.32264676690101624,-0.3045123517513275,0.9999762177467346,0.5020925998687744,0.385864794254303,-0.1572699099779129,0.9999651312828064,0.44290924072265625,0.3770415782928467,-0.15536506474018097,0.9999424815177917,0.4908967614173889,0.534871518611908,-0.007773889694362879,0.9996709227561951,0.4567355513572693,0.5327436923980713,0.007687407545745373,0.9996312856674194,0.4884185194969177,0.6426353454589844,0.017093537375330925,0.972269594669342,0.4590319097042084,0.6357451677322388,0.10085973888635635,0.9625594615936279,0.48893022537231445,0.7409378886222839,0.14573034644126892,0.9189194440841675,0.45649415254592896,0.694749653339386,0.2918216586112976,0.9309948086738586,0.517120897769928,0.5367087721824646,-0.1673891246318817,0.9429339170455933,0.4225643277168274,0.5321415662765503,-0.17027834057807922,0.9328160285949707,-179.50539271790498,0.4738161563873291,0.5338076055049896,140.35268795216743,149.25407195691778,0.6557681437332287,-0.021571289817439394,-0.03466908825414445,0.013735683514902433,0.23013490539516065,-171.52064125965862,1.2970442145272394,70,1762115333.6455753
0.4755561351776123,0.32261037826538086,-0.27758222818374634,0.9999678730964661,0.5004987120628357,0.3857564628124237,-0.13657179474830627,0.999951183795929,0.4409103989601135,0.3770356774330139,-0.14035837352275848,0.9999383687973022,0.48918280005455017,0.5340391397476196,-0.007079935632646084,0.9996857643127441,0.45518723130226135,0.5313655138015747,0.006988458335399628,0.9996350407600403,0.4873042702674866,0.6422991752624512,0.01609819196164608,0.9743645787239075,0.4586119055747986,0.6344833970069885,0.09658665955066681,0.9631490707397461,0.48893100023269653,0.7394485473632812,0.1506974846124649,0.9261592626571655,0.4565446376800537,0.6920903325080872,0.2896498441696167,0.9346998333930969,0.5101380944252014,0.5294098854064941,-0.1419191062450409,0.9125587940216064,0.42267102003097534,0.5306562185287476,-0.15746352076530457,0.9306081533432007,-179.4394057826816,0.47218501567840576,0.5327023267745972,137.87510732778367,147.53750802861222,0.6343050679859963,-0.026505421959808925,-0.017960362936187853,-0.08017778829472329,0.2715104911183945,-171.6738371547149,6.690771877958804,71,1762115333.7071152
0.47494617104530334,0.32256466150283813,-0.280509889125824,0.9999628663063049,0.49999743700027466,0.3857809603214264,-0.13801871240139008,0.9999411702156067,0.44034847617149353,0.37712961435317993,-0.14092238247394562,0.9999338984489441,0.4887430667877197,0.5338214635848999,-0.006932745222002268,0.999697744846344,0.45487865805625916,0.531231164932251,0.006835293956100941,0.999636173248291,0.4864726960659027,0.6420320868492126,0.017731262370944023,0.9761970639228821,0.458368718624115,0.634721040725708,0.09158143401145935,0.9637477993965149,0.48890623450279236,0.7373186945915222,0.16266831755638123,0.9325747489929199,0.4566112160682678,0.691740870475769,0.28838881850242615,0.9379955530166626,0.509899914264679,0.5297954082489014,-0.14406223595142365,0.8904308080673218,0.4227340817451477,0.5311963558197021,-0.15729716420173645,0.9280332326889038,-179.37882586279224,0.47181086242198944,0.5325263142585754,136.1169818545701,145.41404874980074,0.6400909006880903,-0.004683731973162695,-0.0022033630199130893,0.27316866911128357,0.1972495576167295,-171.74749920370883,4.831324954623539,72,1762115333.7869987
0.47390294075012207,0.32181018590927124,-0.27031761407852173,0.9999558925628662,0.4990518093109131,0.384989470243454,-0.1264195293188095,0.9999271035194397,0.4385972023010254,0.37727856636047363,-0.13617919385433197,0.999927818775177,0.488497793674469,0.5321732759475708,-0.006486640311777592,0.9997087121009827,0.45465460419654846,0.52992844581604,0.006395249627530575,0.9996380805969238,0.48586320877075195,0.6405659317970276,0.01715318113565445,0.9778586030006409,0.4583655893802643,0.63313227891922,0.0893365889787674,0.9642502665519714,0.48890233039855957,0.7348568439483643,0.15661588311195374,0.9383845329284668,0.45661264657974243,0.6922413110733032,0.2818724811077118,0.9407690763473511,0.5068385004997253,0.5224136114120483,-0.1303170770406723,0.8618319630622864,0.42265790700912476,0.5318716764450073,-0.15197327733039856,0.9235291481018066,-178.94846570594845,0.47157619893550873,0.5310508608818054,136.30042624483943,145.78989472779296,0.6270019326455628,-0.003635755816101125,-0.022859918585666054,0.01623680558622004,-0.32004208735292566,-172.7312483710813,4.272222258671016,73,1762115333.851542
0.4729846119880676,0.3204333484172821,-0.26465341448783875,0.999951958656311,0.4984930157661438,0.38322046399116516,-0.1218336969614029,0.9999228715896606,0.43828120827674866,0.37691551446914673,-0.1301458328962326,0.999921977519989,0.4878086447715759,0.5290941596031189,-0.005606291349977255,0.9997209906578064,0.45413169264793396,0.5273674130439758,0.005523932632058859,0.9996410012245178,0.4856649935245514,0.6367405652999878,0.01955689676105976,0.9790700078010559,0.4583593010902405,0.6293829679489136,0.07787121832370758,0.9642484188079834,0.48888808488845825,0.7317302227020264,0.15517771244049072,0.9433419108390808,0.456673800945282,0.6924220323562622,0.2556397020816803,0.9429165720939636,0.5053931474685669,0.518115222454071,-0.1224316731095314,0.8522034883499146,0.42264875769615173,0.5305262804031372,-0.14568738639354706,0.9209743142127991,-179.00121178955587,0.47097016870975494,0.5282307863235474,138.1047026595418,144.78549553253623,0.6118353587482942,-0.009905210038188762,-0.0460924713584288,-0.10247056707006104,-0.3797225041891119,-174.02218102599804,3.3555097697596676,74,1762115333.912725
0.4724925458431244,0.3196573555469513,-0.2677610218524933,0.9999533295631409,0.4976488947868347,0.3807453215122223,-0.12341906875371933,0.9999247193336487,0.43813395500183105,0.37639620900154114,-0.13278432190418243,0.9999204277992249,0.48720765113830566,0.5268130302429199,-0.0038527753204107285,0.9997348785400391,0.45345431566238403,0.5253618955612183,0.003765114350244403,0.9996500015258789,0.4854942262172699,0.6341899037361145,0.027006972581148148,0.9801634550094604,0.45836082100868225,0.6270719766616821,0.06964979320764542,0.9650147557258606,0.4888823628425598,0.7271981835365295,0.164541095495224,0.9477297067642212,0.4568960666656494,0.6928995251655579,0.23602549731731415,0.9457513093948364,0.505681037902832,0.517512321472168,-0.12612873315811157,0.8578484058380127,0.4227108061313629,0.5306488871574402,-0.14912095665931702,0.9227474331855774,-179.05255697729493,0.47033098340034485,0.5260874629020691,140.04930219520816,144.4157040490335,0.6094843423247559,-0.008387155558614476,-0.028123905045550106,0.019919354965137734,0.23577694701788332,-175.820483910984,2.534102997096375,75,1762115333.988935
0.47206538915634155,0.3190460801124573,-0.27270638942718506,0.9999549388885498,0.4975942075252533,0.37930208444595337,-0.12603747844696045,0.9999256730079651,0.43828487396240234,0.3758455812931061,-0.13316312432289124,0.9999194741249084,0.4871147572994232,0.5246278047561646,-0.0032593444921076298,0.999742865562439,0.4532979130744934,0.5237253904342651,0.0031555225141346455,0.999655544757843,0.4850945472717285,0.6313769221305847,0.034277766942977905,0.9811963438987732,0.4584144949913025,0.62547767162323,0.06354162096977234,0.9662331938743591,0.48888668417930603,0.7206864953041077,0.17403466999530792,0.9516783356666565,0.45742449164390564,0.6937017440795898,0.2249089926481247,0.9488052725791931,0.5074167847633362,0.5172490477561951,-0.13059774041175842,0.8635120987892151,0.42275482416152954,0.5308278799057007,-0.15312811732292175,0.9241530299186707,-179.11415445657005,0.4702063351869583,0.5241765975952148,141.88108973873335,143.50453009244058,0.611238383376117,-0.0018631816594322206,-0.02856269734356847,0.09751723017382531,-0.00655885663946663,-176.66461801718813,1.616752122879945,76,1762115334.0558357
0.47198575735092163,0.31844452023506165,-0.2704695165157318,0.9999576807022095,0.4975101351737976,0.3788137137889862,-0.12677928805351257,0.9999286532402039,0.43842363357543945,0.37534335255622864,-0.132808655500412,0.9999184012413025,0.48684161901474,0.52309650182724,-0.0032199365086853504,0.9997483491897583,0.45298463106155396,0.5222128629684448,0.003113657468929887,0.9996570944786072,0.48466652631759644,0.6313866376876831,0.03409670293331146,0.9822806715965271,0.4584161341190338,0.6262522339820862,0.053658802062273026,0.9676620364189148,0.4888482689857483,0.7198300957679749,0.17165346443653107,0.9554234743118286,0.4577013850212097,0.6971731185913086,0.20636995136737823,0.9520061016082764,0.5082919001579285,0.5170872807502747,-0.13047856092453003,0.8720245361328125,0.4227229058742523,0.5300052762031555,-0.15114913880825043,0.9260210990905762,-179.23404531899942,0.469913125038147,0.5226546823978424,141.66770538711643,140.7228820776474,0.6027181666157385,-0.003828770279231514,-0.019873335554151113,-0.025666871761405266,0.11346663919951053,-176.63867583161328,1.1220779883685728,77,1762115334.1324165
0.47176089882850647,0.31807899475097656,-0.28173762559890747,0.9999604821205139,0.4975476861000061,0.37812259793281555,-0.1354593187570572,0.9999314546585083,0.4384588301181793,0.37463057041168213,-0.1387891173362732,0.9999203681945801,0.4868963658809662,0.5214585661888123,-0.0032696828711777925,0.999749481678009,0.453007310628891,0.5215077996253967,0.0031606603879481554,0.9996609687805176,0.48447713255882263,0.6298841238021851,0.034353259950876236,0.9833347797393799,0.45841750502586365,0.6260303854942322,0.05157502740621567,0.9694864749908447,0.4888257086277008,0.7114247679710388,0.19268587231636047,0.9588065147399902,0.45819321274757385,0.6989592909812927,0.20872192084789276,0.9554210901260376,0.5088231563568115,0.5178960561752319,-0.13981106877326965,0.8786913752555847,0.4227484166622162,0.5291467905044556,-0.15642759203910828,0.9285232424736023,-179.23064347740447,0.4699518382549286,0.5214831829071045,136.30783241705657,139.6651969124962,0.6185542671803937,0.000579091713148547,-0.017523876945462844,0.0659350104355542,0.03514438023458123,-176.61787330823535,0.9444721908271959,78,1762115334.199268
0.47184911370277405,0.3181309103965759,-0.2835291922092438,0.9999637603759766,0.49765825271606445,0.37801411747932434,-0.13896188139915466,0.9999348521232605,0.43862050771713257,0.3745945692062378,-0.13885171711444855,0.9999226927757263,0.4869705140590668,0.5206084847450256,-0.0034108280669897795,0.9997459650039673,0.453103244304657,0.5210972428321838,0.003302589524537325,0.9996644854545593,0.4844295084476471,0.6288808584213257,0.034393712878227234,0.9839727282524109,0.45842379331588745,0.6251659393310547,0.05271875113248825,0.9710025787353516,0.48881155252456665,0.6957242488861084,0.21299493312835693,0.9611550569534302,0.45841678977012634,0.6991109251976013,0.2150191068649292,0.9583708643913269,0.510144054889679,0.5189946293830872,-0.15044067800045013,0.8862509727478027,0.42275533080101013,0.5284225940704346,-0.1559901237487793,0.9306408762931824,-179.2479173232099,0.4700368791818619,0.5208528637886047,129.70176910811202,139.81876791848876,0.6256227145529358,0.0012367376304566417,-0.009166637772615375,0.009564047368499742,0.12153809400378224,-176.68505257095228,0.8670237123717773,79,1762115334.2680304
0.47189608216285706,0.31781908869743347,-0.2757783532142639,0.999966561794281,0.497822105884552,0.3778195381164551,-0.13665524125099182,0.9999386072158813,0.4390699863433838,0.3739921450614929,-0.1316731572151184,0.999923825263977,0.4870709776878357,0.5205121636390686,-0.0034100934863090515,0.9997459053993225,0.45317307114601135,0.5208432674407959,0.003302163677290082,0.9996689558029175,0.48441800475120544,0.6271495223045349,0.034032367169857025,0.9843225479125977,0.45843538641929626,0.6242638826370239,0.05210600048303604,0.9721725583076477,0.4888199269771576,0.6814298629760742,0.22535216808319092,0.9628177881240845,0.4584091305732727,0.6988769769668579,0.22074656188488007,0.9607664942741394,0.5103216171264648,0.5196617841720581,-0.1474892944097519,0.8939924240112305,0.42276692390441895,0.5260258316993713,-0.14701956510543823,0.9321231245994568,-179.33673446900835,0.4701220244169235,0.5206777155399323,125.12742447677377,139.05527113631285,0.6224667860592745,0.0010745901738000096,-0.002210488782437052,-0.0020464100369648143,0.08779128211840095,-176.27274654405966,0.7656948508638828,80,1762115334.3472655
0.4721517562866211,0.3179464638233185,-0.265083372592926,0.9999691843986511,0.49798426032066345,0.3762674927711487,-0.12455432116985321,0.9999420642852783,0.4401927888393402,0.3733811378479004,-0.126001238822937,0.9999251961708069,0.4872209131717682,0.5190095901489258,-0.003319584997370839,0.9997402429580688,0.4536694586277008,0.5193715691566467,0.0032135657966136932,0.9996733665466309,0.48443013429641724,0.6247877478599548,0.03421466797590256,0.9847133755683899,0.45848149061203003,0.6231816411018372,0.045739851891994476,0.9732561111450195,0.48958539962768555,0.6763299703598022,0.21680691838264465,0.9643825888633728,0.4584041237831116,0.6988282203674316,0.19940361380577087,0.9630678296089172,0.5107566118240356,0.518244743347168,-0.13510654866695404,0.9023274779319763,0.4228043556213379,0.5237395763397217,-0.14124223589897156,0.9347837567329407,-179.46158695609859,0.4704451858997345,0.5191905796527863,125.22326387293758,138.42261611746605,0.6004491375220407,0.004683030099918462,-0.02155053276026479,0.05229098666329803,-0.2802623855234967,-177.14077786865334,0.5341293016406147,81,1762115334.4162724
0.4723164439201355,0.3179750442504883,-0.26172226667404175,0.9999716281890869,0.49808359146118164,0.3754497468471527,-0.12067635357379913,0.9999457001686096,0.440940797328949,0.3731097877025604,-0.12319371849298477,0.9999260902404785,0.4872458875179291,0.5184851884841919,-0.0031948816031217575,0.9997416138648987,0.45393070578575134,0.5186327695846558,0.003089621663093567,0.999679446220398,0.48451757431030273,0.624830424785614,0.02554650604724884,0.9852344989776611,0.4584950804710388,0.6230927109718323,0.043172236531972885,0.9743040204048157,0.49001947045326233,0.6758286356925964,0.21443136036396027,0.9655730724334717,0.4583987295627594,0.6986669898033142,0.19879749417304993,0.9652060270309448,0.5110255479812622,0.5176637172698975,-0.12951645255088806,0.9101079702377319,0.4229704439640045,0.5232481360435486,-0.1394234448671341,0.9369338154792786,-179.57266903777054,0.4705882966518402,0.5185589790344238,120.16199807524548,136.8385313183683,0.5964102770693054,0.0021292936172627977,-0.009397359356653577,-0.03799613035834773,0.18082271371673078,-177.65508630862698,0.39800027926665965,82,1762115334.4834828
0.4731086790561676,0.317976176738739,-0.265584260225296,0.9999739527702332,0.4991653561592102,0.37544891238212585,-0.12159992754459381,0.9999487996101379,0.4425114691257477,0.37233391404151917,-0.1253349930047989,0.9999280571937561,0.4878840446472168,0.5174610614776611,-0.003218905534595251,0.9997408390045166,0.45480412244796753,0.518145740032196,0.0031150877475738525,0.9996910691261292,0.48499709367752075,0.6223987340927124,0.023031597957015038,0.9857509136199951,0.45880287885665894,0.6229599714279175,0.03909378871321678,0.9755285978317261,0.4913698136806488,0.6696755886077881,0.22302314639091492,0.9661381244659424,0.45848527550697327,0.698532223701477,0.18431246280670166,0.9672900438308716,0.5123220682144165,0.5178643465042114,-0.13739624619483948,0.9168099164962769,0.4231386184692383,0.5230725407600403,-0.1421767771244049,0.9375637173652649,-179.798677720015,0.47134408354759216,0.5178034007549286,117.26532396409277,136.3895792405936,0.5951893168234517,0.013474453795800392,-0.013470734506503443,0.20226579408943698,-0.0726216683010962,-176.85287734149705,0.1669675306074342,83,1762115334.5395732
0.47463297843933105,0.31798484921455383,-0.26954349875450134,0.9999759793281555,0.5015139579772949,0.37503543496131897,-0.1305442899465561,0.9999508261680603,0.44452762603759766,0.37229564785957336,-0.12721329927444458,0.9999310374259949,0.48894041776657104,0.5171612501144409,-0.0024665582459419966,0.9997347593307495,0.4558703899383545,0.5180292129516602,0.0023683467879891396,0.9997016787528992,0.4861535429954529,0.6184003353118896,0.045622240751981735,0.9861559271812439,0.45962080359458923,0.6220171451568604,0.04205576330423355,0.9771022200584412,0.4926376938819885,0.6710192561149597,0.23375344276428223,0.9676730036735535,0.4587257504463196,0.6984587907791138,0.18634256720542908,0.9694909453392029,0.5130784511566162,0.517419695854187,-0.1526002585887909,0.9212443828582764,0.423210084438324,0.5223096013069153,-0.147848978638649,0.9381580948829651,179.7550267136755,0.47240540385246277,0.5175952315330505,130.926079137643,138.74600346228303,0.6037530411015156,0.01397267927655327,-0.0027406257650995336,0.006559325038839497,0.14126589999091416,-177.24745480962227,0.2201314245579171,84,1762115334.61553
0.47612127661705017,0.3179457485675812,-0.28228312730789185,0.9999774694442749,0.5041708946228027,0.3748507499694824,-0.14493122696876526,0.9999517798423767,0.4471758306026459,0.3719170391559601,-0.13415034115314484,0.999934196472168,0.49008315801620483,0.5161467790603638,-0.0023771896958351135,0.9997268915176392,0.4571359157562256,0.5164094567298889,0.0022851601243019104,0.9997166991233826,0.4874292314052582,0.6141228675842285,0.057744186371564865,0.986335277557373,0.460378497838974,0.6197869777679443,0.022233225405216217,0.978610098361969,0.4931688904762268,0.6743605136871338,0.23615312576293945,0.9691886901855469,0.45889097452163696,0.6984502673149109,0.15005755424499512,0.9715614318847656,0.5133609771728516,0.5174519419670105,-0.16518454253673553,0.9236043095588684,0.42341262102127075,0.5188848376274109,-0.15168026089668274,0.9371480345726013,179.17253280228542,0.4736095368862152,0.5162781178951263,140.07511844704857,132.47544620028032,0.60146214422072,0.01797830002634183,-0.01966515616434455,0.05980589321349399,-0.2526915853926534,-177.05341090779265,0.9702679209271992,85,1762115334.682507
0.4786392152309418,0.31762123107910156,-0.26726391911506653,0.9999784827232361,0.506780743598938,0.37458521127700806,-0.14054134488105774,0.9999536275863647,0.4508029818534851,0.37083595991134644,-0.11962176859378815,0.99993497133255,0.49205008149147034,0.5154228210449219,-0.002246234333142638,0.9997237920761108,0.4594033360481262,0.5148934125900269,0.002162620658054948,0.9997317790985107,0.48864060640335083,0.6133574843406677,0.056199997663497925,0.9863437414169312,0.46157804131507874,0.6182451248168945,0.011173313483595848,0.9798844456672668,0.4933452010154724,0.6732704639434814,0.23760005831718445,0.9700927734375,0.4589154124259949,0.6984419822692871,0.1310383379459381,0.9733537435531616,0.5137315392494202,0.5160976648330688,-0.1584828943014145,0.9290433526039124,0.42395463585853577,0.5107978582382202,-0.13383294641971588,0.9368323087692261,178.76731252312493,0.4757267087697983,0.5151581168174744,138.9887890205224,128.71817714179582,0.5826925568062691,0.028926886830866857,-0.015302557470609122,0.14959037284985335,0.05960611874771334,-176.1681940526791,2.999222464315958,86,1762115334.7556975
0.4797001779079437,0.31756865978240967,-0.27066919207572937,0.999979555606842,0.5077194571495056,0.37447890639305115,-0.1387721449136734,0.9999555349349976,0.4516147971153259,0.37072375416755676,-0.12267820537090302,0.9999367594718933,0.49294185638427734,0.514901876449585,-0.0021400428377091885,0.999713659286499,0.46037381887435913,0.5142180919647217,0.002069840906187892,0.9997443556785583,0.48930758237838745,0.612956702709198,0.054887235164642334,0.9866098761558533,0.46200013160705566,0.6172550320625305,-0.0006779861869290471,0.9812147617340088,0.49345701932907104,0.6733523607254028,0.23276224732398987,0.9712328314781189,0.45898205041885376,0.6983807682991028,0.11380726099014282,0.9751174449920654,0.5141212940216064,0.514656662940979,-0.16039201617240906,0.9337917566299438,0.42449456453323364,0.5113450288772583,-0.13857340812683105,0.9367533922195435,178.78560578509442,0.47665783762931824,0.5145599842071533,138.82167921041432,123.75459210179658,0.5768453587227643,0.013345717888434779,-0.008572937027570088,-0.2233223500181749,0.0964545508506144,-176.17083584836504,5.310405792631513,87,1762115334.8254673
0.4810108542442322,0.31744974851608276,-0.2781344950199127,0.9999801516532898,0.5094937682151794,0.3743555247783661,-0.14272485673427582,0.9999568462371826,0.45330119132995605,0.3695456087589264,-0.12433058023452759,0.9999385476112366,0.49405592679977417,0.5137504935264587,-0.002118471311405301,0.9997099041938782,0.4616456925868988,0.5131480693817139,0.0020528503227978945,0.9997545480728149,0.4901042580604553,0.6109287142753601,0.05205341428518295,0.9867569804191589,0.4626036286354065,0.615765392780304,0.011640580371022224,0.9822914600372314,0.4933244585990906,0.6734762191772461,0.22976532578468323,0.9721128344535828,0.4592006802558899,0.6967794895172119,0.13829238712787628,0.9766072630882263,0.5147836804389954,0.5119439959526062,-0.1676090657711029,0.9377173781394958,0.4256436228752136,0.5089755654335022,-0.14059336483478546,0.9378986358642578,178.56417998176804,0.4778508096933365,0.5134492814540863,138.421696176554,127.91165767446837,0.5905969007402486,0.01359516667617627,-0.012657621675374747,0.002842730310962093,-0.0465492615304638,-175.10757856202153,38.394712082281636,88,1762115334.913217
0.48274174332618713,0.3172723352909088,-0.278922975063324,0.9999811053276062,0.5110323429107666,0.37360242009162903,-0.1414155513048172,0.9999590516090393,0.45551377534866333,0.36835378408432007,-0.1253056824207306,0.9999403953552246,0.4950544238090515,0.5123856067657471,-0.0010916984174400568,0.9997076392173767,0.4630851149559021,0.511113166809082,0.0010430895490571856,0.9997668862342834,0.4907480776309967,0.610011875629425,0.050198715180158615,0.9868874549865723,0.4629520773887634,0.6150598526000977,0.0010691528441384435,0.9833758473396301,0.4932266175746918,0.6740684509277344,0.2282133847475052,0.9726641178131104,0.45919671654701233,0.6965698599815369,0.11261186748743057,0.978087306022644,0.5157772898674011,0.5110792517662048,-0.17076335847377777,0.9422524571418762,0.4285241961479187,0.5092421174049377,-0.14150838553905487,0.9375690221786499,178.28971349034188,0.4790697693824768,0.5117493867874146,137.40777205674772,126.15594215796723,0.5808645162317676,0.01673783052933801,-0.023341665111619638,0.0431526780200542,-0.14670518639551786,-174.5994003674005,6.573695743677151,89,1762115334.9860437
0.4848581850528717,0.31715741753578186,-0.2786867618560791,0.9999822974205017,0.5129275321960449,0.37267547845840454,-0.14057686924934387,0.9999617338180542,0.45750755071640015,0.3671875,-0.12485966831445694,0.9999426603317261,0.49654847383499146,0.5101762413978577,-0.0017956660594791174,0.9997020363807678,0.46479660272598267,0.5092121362686157,0.001749123097397387,0.9997702836990356,0.49140867590904236,0.6085665225982666,0.03124094381928444,0.9873464703559875,0.46389666199684143,0.6144182085990906,0.011631375178694725,0.9842050671577454,0.49318280816078186,0.6744171380996704,0.20585760474205017,0.9736927151679993,0.4592001438140869,0.6953529119491577,0.1345444917678833,0.9793569445610046,0.5172207951545715,0.5110581517219543,-0.16552352905273438,0.9466944932937622,0.43289127945899963,0.5094220042228699,-0.14107421040534973,0.9387197494506836,178.13743034956934,0.48067253828048706,0.5096941888332367,129.1263220523931,128.7218710554305,0.5803438387900993,0.023627513004358218,-0.03029707929143821,0.10156552356146197,-0.1025345195981645,-174.34470732283913,3.1083470396521604,90,1762115335.0538785
0.486489474773407,0.31703150272369385,-0.2847510576248169,0.9999836683273315,0.5145463943481445,0.3726116120815277,-0.14144140481948853,0.9999637603759766,0.45872053503990173,0.36686569452285767,-0.1334383636713028,0.9999464750289917,0.49779897928237915,0.5076162219047546,-0.0018065676558762789,0.9997004270553589,0.4658729135990143,0.5073093175888062,0.0017581302672624588,0.9997788071632385,0.4924395978450775,0.606410026550293,0.03485390916466713,0.9878637790679932,0.46417444944381714,0.6132662296295166,0.01402013935148716,0.9850997924804688,0.4933902323246002,0.6751607060432434,0.20346751809120178,0.9750688076019287,0.45914071798324585,0.6946166753768921,0.1332472264766693,0.9806766510009766,0.5182952880859375,0.5112863183021545,-0.16344711184501648,0.9498551487922668,0.4374415874481201,0.5100332498550415,-0.1527845412492752,0.9410807490348816,178.0049503686237,0.4818359464406967,0.5074627697467804,132.44978424402115,130.9099731240348,0.5837214148682884,0.016976546164898743,-0.032561048160118566,-0.09705144716446469,-0.03303601722040478,-174.1234828920432,2.3487903839653588,91,1762115335.1224089
0.4866635799407959,0.3170030117034912,-0.28873518109321594,0.999984860420227,0.5149919986724854,0.37243059277534485,-0.1416522115468979,0.9999656081199646,0.45910316705703735,0.3669670820236206,-0.140199214220047,0.9999500513076782,0.49855417013168335,0.5072739124298096,0.0001605085126357153,0.9996993541717529,0.46681150794029236,0.5067145228385925,-0.00022412577527575195,0.9997869729995728,0.4935835301876068,0.6061232686042786,0.03668320178985596,0.9882272481918335,0.46442103385925293,0.6129617691040039,0.0025529067497700453,0.9859105348587036,0.4936451315879822,0.6753137111663818,0.2068064659833908,0.9761683344841003,0.4590929448604584,0.694365918636322,0.12362351268529892,0.9818408489227295,0.5186792612075806,0.5104193687438965,-0.16336119174957275,0.9525232315063477,0.4383220076560974,0.5120247006416321,-0.16000869870185852,0.9432787299156189,178.1791288136255,0.48268283903598785,0.506994217634201,132.34811174124627,125.43053318066174,0.5843634559135158,0.015927883127889404,-0.008812266549483663,-0.01972266895104956,0.4466538260308252,-174.4166909039557,1.6569247804941747,92,1762115335.1755793
0.4877316355705261,0.3167981803417206,-0.2789112627506256,0.9999859929084778,0.515550434589386,0.372466504573822,-0.1333508938550949,0.9999675154685974,0.45959609746932983,0.3667793571949005,-0.13752055168151855,0.9999523162841797,0.4991552233695984,0.5078839063644409,0.0008174137328751385,0.9997051954269409,0.4671657681465149,0.5068745613098145,-0.0008809718419797719,0.9997889995574951,0.4946215748786926,0.6061183214187622,0.03312252089381218,0.9886608719825745,0.4643876552581787,0.6129369735717773,0.010845989920198917,0.9866371154785156,0.4937427043914795,0.6754127144813538,0.20095384120941162,0.9773585200309753,0.4589899480342865,0.6927534341812134,0.15362419188022614,0.982828676700592,0.5196164846420288,0.5123662352561951,-0.14374545216560364,0.9543890357017517,0.4428756833076477,0.5121274590492249,-0.1587405651807785,0.941179096698761,178.16526227148222,0.48316049575805664,0.5073792338371277,130.60427236654814,125.53760873356765,0.5857867004626863,0.005722929854429946,0.004612979615621929,-0.12226820863903455,0.160851378263006,-174.19643945798805,1.4056592031969606,93,1762115335.259043
0.48920607566833496,0.3165799081325531,-0.26348695158958435,0.999987006187439,0.5163475275039673,0.37249627709388733,-0.12130899727344513,0.9999693632125854,0.4602360129356384,0.3661690652370453,-0.12686097621917725,0.9999542832374573,0.5002316236495972,0.5083373188972473,0.0006322077824734151,0.9997146129608154,0.4677250385284424,0.5071980357170105,-0.000698567891959101,0.9997886419296265,0.49560093879699707,0.6062924861907959,0.025883827358484268,0.9891313910484314,0.46439990401268005,0.6131569147109985,0.025178169831633568,0.9872462153434753,0.49396610260009766,0.6765262484550476,0.19396987557411194,0.9785181879997253,0.4589706063270569,0.690284788608551,0.17484384775161743,0.9836567640304565,0.5213679671287537,0.513123631477356,-0.12931819260120392,0.9558438062667847,0.4470480978488922,0.5123780369758606,-0.14503997564315796,0.9397103190422058,178.2153218974026,0.4839783310890198,0.5077676773071289,127.11275056666011,131.0103347826461,0.5790787044401559,0.013664538128453231,0.00649018256563878,0.13268980313412565,0.031364640673009044,-173.56642485885214,1.220876706412814,94,1762115335.318894
