nose_x,nose_y,nose_z,nose_visibility,left_shoulder_x,left_shoulder_y,left_shoulder_z,left_shoulder_visibility,right_shoulder_x,right_shoulder_y,right_shoulder_z,right_shoulder_visibility,left_hip_x,left_hip_y,left_hip_z,left_hip_visibility,right_hip_x,right_hip_y,right_hip_z,right_hip_visibility,left_knee_x,left_knee_y,left_knee_z,left_knee_visibility,right_knee_x,right_knee_y,right_knee_z,right_knee_visibility,left_ankle_x,left_ankle_y,left_ankle_z,left_ankle_visibility,right_ankle_x,right_ankle_y,right_ankle_z,right_ankle_visibility,left_wrist_x,left_wrist_y,left_wrist_z,left_wrist_visibility,right_wrist_x,right_wrist_y,right_wrist_z,right_wrist_visibility,trunk_lateral_inclination,center_mass_x,center_mass_y,left_knee_angle,right_knee_angle,person_height,center_mass_velocity_x,center_mass_velocity_y,center_mass_acceleration_x,center_mass_acceleration_y,body_orientation,torso_leg_ratio,frame,timestamp
0.48328399658203125,0.22980494797229767,-0.2275938242673874,0.9999916553497314,0.5214048027992249,0.30352914333343506,-0.09385272115468979,0.9999659061431885,0.45656055212020874,0.3101959824562073,-0.08626346290111542,0.9999043941497803,0.5110840201377869,0.47572654485702515,-0.002612010110169649,0.9999409914016724,0.47748082876205444,0.4778558611869812,0.0025195428170263767,0.9998217225074768,0.5128777027130127,0.5972640514373779,-0.006732718553394079,0.9917512536048889,0.48533064126968384,0.5948910713195801,0.024338657036423683,0.9878569841384888,0.5184025764465332,0.6938155889511108,0.1522388905286789,0.9921762347221375,0.4973289370536804,0.6691100597381592,0.20432841777801514,0.9758569598197937,0.5391893982887268,0.4711311459541321,-0.10538333654403687,0.7618228197097778,0.4461360573768616,0.47971752285957336,-0.10295744985342026,0.7704356908798218,-178.21363403979728,0.49428242444992065,0.4767912030220032,119.34024020402777,123.09351354053881,0.6077298970030223,0.0,0.0,0.0,0.0,174.12986817599275,0.604815489505714,0,1762115351.253424
0.4834138751029968,0.2298496514558792,-0.25764673948287964,0.9999909400939941,0.5218610763549805,0.3042311370372772,-0.101005420088768,0.9999648928642273,0.45642852783203125,0.3108727037906647,-0.10762055963277817,0.9999022483825684,0.5114587545394897,0.4827757477760315,-0.002586046466603875,0.9999420046806335,0.4774957597255707,0.4851306080818176,0.0025026157964020967,0.9998135566711426,0.5140645503997803,0.6010898351669312,-0.025115391239523888,0.9922624230384827,0.48441633582115173,0.6021049618721008,0.06163082644343376,0.9878364205360413,0.5192246437072754,0.7151714563369751,0.11055260896682739,0.9926068782806396,0.4970991611480713,0.6680037975311279,0.3329155445098877,0.9712621569633484,0.5379117727279663,0.4724076986312866,-0.1320534199476242,0.7568734884262085,0.44638675451278687,0.4829410910606384,-0.14157864451408386,0.7695060968399048,-178.2685262003214,0.4944772571325302,0.48395317792892456,119.29762870854748,130.5298042043517,0.6660483389485209,0.0028354383164761196,0.10422962821602678,0.041264691010041654,1.5168742615325688,174.20418547608364,0.5976440854978728,1,1762115351.3221374
0.4834776818752289,0.22986117005348206,-0.2619543969631195,0.9999904632568359,0.5221272110939026,0.30437150597572327,-0.10359366238117218,0.9999653100967407,0.4562772214412689,0.3116695284843445,-0.11271073669195175,0.9999016523361206,0.5119432210922241,0.4848259687423706,-0.0025428282096982002,0.9999434947967529,0.4775264263153076,0.4876340329647064,0.0024687964469194412,0.9998098015785217,0.5147422552108765,0.603033185005188,-0.023207224905490875,0.9927286505699158,0.48420411348342896,0.6044307947158813,0.06874106079339981,0.9877004623413086,0.5197256803512573,0.7178701758384705,0.10969360917806625,0.9929789304733276,0.4970483183860779,0.6675528883934021,0.3312678933143616,0.9679386019706726,0.5375260710716248,0.4731815457344055,-0.139643594622612,0.7652790546417236,0.44653457403182983,0.48530831933021545,-0.14858801662921906,0.7767054438591003,-178.22179344418996,0.49473482370376587,0.4862300008535385,120.93310215840715,133.1479251065346,0.6690251146161073,0.002940313923802577,0.02599162661194184,0.0011972330376953221,-0.8931449620319855,173.6758321297222,0.6206082148454899,2,1762115351.4097357
0.48372989892959595,0.23008452355861664,-0.26275748014450073,0.9999896883964539,0.5232211947441101,0.30626219511032104,-0.10312429815530777,0.9999654293060303,0.4561005234718323,0.31325796246528625,-0.11108841001987457,0.9998989105224609,0.512409508228302,0.4929056763648987,-0.002064924454316497,0.9999448657035828,0.4775265157222748,0.49447891116142273,0.0020132416393607855,0.9998000264167786,0.5147197842597961,0.6141147017478943,-0.026032909750938416,0.9931154847145081,0.48418354988098145,0.6135222911834717,0.059397317469120026,0.9872420430183411,0.5197603106498718,0.7404556274414062,0.1123562604188919,0.9933047890663147,0.4969273507595062,0.6675738096237183,0.3418245017528534,0.9575464129447937,0.5370258092880249,0.4798774719238281,-0.14217564463615417,0.7667310833930969,0.446509450674057,0.49039214849472046,-0.14802861213684082,0.7784732580184937,-178.34725463038413,0.4949680119752884,0.4936922937631607,121.22232611472691,126.63282490603132,0.6820312327873572,0.003045860945713645,0.09747105371334612,0.0013786351683826225,0.9336507106838997,174.0497331461238,0.5967677066964032,3,1762115351.4862947
0.48445257544517517,0.2309134304523468,-0.26473790407180786,0.99998939037323,0.5247079133987427,0.3077784776687622,-0.1067485362291336,0.9999663829803467,0.45602288842201233,0.31457266211509705,-0.10925604403018951,0.9998986721038818,0.5124866366386414,0.49777716398239136,-0.003794244956225157,0.9999452829360962,0.4774923324584961,0.49878865480422974,0.0037539643235504627,0.999781608581543,0.5146788358688354,0.6209738254547119,-0.023647889494895935,0.9934297204017639,0.484130859375,0.6151268482208252,0.08008425682783127,0.9857800602912903,0.5197187066078186,0.7507109642028809,0.10364456474781036,0.9936069846153259,0.49684056639671326,0.6678737998008728,0.3486013412475586,0.947255551815033,0.5370817184448242,0.4837796092033386,-0.15047749876976013,0.7713041305541992,0.44637173414230347,0.4953349530696869,-0.1473214328289032,0.7851426005363464,-178.58430696087672,0.4949894845485687,0.49828290939331055,126.40025778828677,134.434498039531,0.6858268958908236,0.0002977646778768903,0.06365902989466446,-0.03810842740103805,-0.4688784268793824,174.35079435217017,0.5209771999455012,4,1762115351.5584073
0.4860963225364685,0.2313913106918335,-0.29149481654167175,0.9999887943267822,0.5268704295158386,0.31121885776519775,-0.13587243854999542,0.9999666213989258,0.4560512602329254,0.3177745044231415,-0.12184028327465057,0.9998916387557983,0.5124958753585815,0.5048853158950806,-0.0106228431686759,0.9999462366104126,0.4775025248527527,0.504648745059967,0.010578425601124763,0.9997544288635254,0.5146864056587219,0.6269802451133728,-0.02182340808212757,0.9938563704490662,0.4844602048397064,0.6126012206077576,0.13052651286125183,0.981579065322876,0.5197058320045471,0.7676029801368713,0.10224498808383942,0.9940904974937439,0.49690622091293335,0.6662861108779907,0.40051397681236267,0.935829222202301,0.537115216255188,0.4901474416255951,-0.18464705348014832,0.771283745765686,0.44672495126724243,0.5048153400421143,-0.15637721121311188,0.7913525700569153,-178.93462404194224,0.4949992001056671,0.5047670304775238,133.34461433644805,149.2874085430831,0.7286753181574376,0.00011135248869396511,0.07431617275348062,-0.00213651785257395,0.12214424429589452,174.71126950987977,0.4051371856735859,5,1762115351.6456578
0.4889480173587799,0.234206885099411,-0.303448885679245,0.9999883770942688,0.5294424295425415,0.3162466585636139,-0.1382380723953247,0.999965250492096,0.4565333425998688,0.322036474943161,-0.13444878160953522,0.9998918771743774,0.5126025676727295,0.5135340094566345,-0.009324794635176659,0.9999476075172424,0.4776415228843689,0.5117046236991882,0.009286733344197273,0.9997482895851135,0.5155307054519653,0.6437841653823853,0.0036435495130717754,0.9942626357078552,0.48725277185440063,0.6126912236213684,0.11714665591716766,0.9799450039863586,0.5193701386451721,0.7798620462417603,0.13089868426322937,0.9945404529571533,0.49694275856018066,0.6653095483779907,0.3792516589164734,0.9298720955848694,0.5380160808563232,0.4967120289802551,-0.18709111213684082,0.7580291628837585,0.4467996060848236,0.5124804973602295,-0.1673842817544937,0.7975988388061523,-179.36802367936502,0.4951220452785492,0.5126193165779114,142.6105845568288,148.2341919468754,0.7421806035400419,0.0016230646863334961,0.1037465940054496,0.019973163180319338,0.38884293389242086,175.45958723776235,0.3154375850096638,6,1762115351.721345
0.489945650100708,0.23575562238693237,-0.2857618033885956,0.9999880790710449,0.5303470492362976,0.31763988733291626,-0.12999463081359863,0.9999620914459229,0.45683401823043823,0.3224693536758423,-0.13074998557567596,0.9998915791511536,0.5129521489143372,0.5135667324066162,-0.008667835965752602,0.9999454617500305,0.477916419506073,0.5131428241729736,0.008649908006191254,0.9997303485870361,0.515993058681488,0.6458059549331665,0.0062675029039382935,0.9944517612457275,0.49015480279922485,0.6186820864677429,0.10369931161403656,0.9762849807739258,0.5187445282936096,0.776793897151947,0.12635500729084015,0.9947120547294617,0.4974291920661926,0.6646835207939148,0.35728955268859863,0.911762535572052,0.538352370262146,0.49795421957969666,-0.1712605059146881,0.7577683925628662,0.4472960829734802,0.5158886313438416,-0.16805368661880493,0.8077060580253601,-179.4535135483313,0.4954342842102051,0.5133547782897949,143.93085840209733,142.21008550113888,0.7168560963064737,0.004091491322617429,0.00963728384647828,0.03234556981511863,-1.2331819861505975,176.24133323258638,0.36772565291716425,7,1762115351.7976592
0.49167299270629883,0.23833778500556946,-0.3092164397239685,0.9999874234199524,0.5316612124443054,0.32394301891326904,-0.14127272367477417,0.9999535083770752,0.4570278525352478,0.3272506594657898,-0.1429385244846344,0.9998929500579834,0.5137764811515808,0.523352861404419,-0.008071869611740112,0.999943733215332,0.4785570204257965,0.5213534235954285,0.008037143386900425,0.9997187852859497,0.5168159008026123,0.6560261249542236,0.007041999604552984,0.9946544170379639,0.4910961985588074,0.6316565871238708,0.11787362396717072,0.9733224511146545,0.5173824429512024,0.7931320071220398,0.13365451991558075,0.9949459433555603,0.4990013539791107,0.6650869250297546,0.3960433006286621,0.895302414894104,0.5389274954795837,0.5078175663948059,-0.18898262083530426,0.7317978739738464,0.44735828042030334,0.5235297083854675,-0.17571647465229034,0.8144987225532532,-179.46938201587582,0.49616675078868866,0.5223531424999237,143.76054963276025,141.67602569771415,0.755434142234913,0.010179210430403233,0.12505177098174347,0.08460204964932384,1.6039344125422994,177.4623959938199,0.4300881130337553,8,1762115351.8743854
0.49402156472206116,0.23974651098251343,-0.2940158545970917,0.9999863505363464,0.5336562991142273,0.32874730229377747,-0.13169580698013306,0.9999338388442993,0.4579688012599945,0.32940295338630676,-0.14050284028053284,0.9998963475227356,0.5147899389266968,0.5329694747924805,-0.004143079277127981,0.9999364614486694,0.4788082242012024,0.5290040373802185,0.004066844936460257,0.9997004270553589,0.5171529054641724,0.664821982383728,0.015674898400902748,0.9944249391555786,0.49755018949508667,0.6426405310630798,0.09979914873838425,0.9678084254264832,0.5161377191543579,0.8046787977218628,0.13631640374660492,0.994345486164093,0.49996417760849,0.6673241257667542,0.3548949658870697,0.8670455813407898,0.5406394600868225,0.5171363353729248,-0.18353579938411713,0.7056664228439331,0.44742146134376526,0.530722439289093,-0.1724429726600647,0.8226966261863708,-179.7200575570819,0.4967990815639496,0.5309867560863495,147.73673735352753,135.27219864471238,0.7332511203952652,0.005902906063182447,0.08059612465557688,-0.03991996588631168,-0.41500036770017906,179.50368156061668,1.408523852997878,9,1762115351.9767382
0.4960795044898987,0.24011166393756866,-0.29066604375839233,0.9999845027923584,0.5368927121162415,0.328989714384079,-0.13846541941165924,0.9999246597290039,0.4593249261379242,0.32976147532463074,-0.14635495841503143,0.9998923540115356,0.5162373781204224,0.538146436214447,-0.00428631529211998,0.9999292492866516,0.47906678915023804,0.5322049856185913,0.004203776363283396,0.99966961145401,0.5176090002059937,0.6693535447120667,0.039907846599817276,0.9943732023239136,0.49564218521118164,0.6402752995491028,0.11548326164484024,0.955918550491333,0.5156553983688354,0.8065900206565857,0.14904548227787018,0.9936202764511108,0.49984845519065857,0.6676045060157776,0.3512924313545227,0.8322961330413818,0.5478271245956421,0.5229441523551941,-0.19003604352474213,0.7121153473854065,0.4487246870994568,0.5331742763519287,-0.18536227941513062,0.82938551902771,179.87284276817655,0.4976520836353302,0.5351757109165192,160.07869290850476,142.1912085112584,0.7345974607213304,0.01041809229013124,0.05116156160003727,0.055145970212412986,-0.3594973619887833,179.42995426375515,0.4051465341439674,10,1762115352.0586152
0.4982905387878418,0.2397381067276001,-0.29167410731315613,0.9999831318855286,0.5391924381256104,0.32982906699180603,-0.13828468322753906,0.9998854994773865,0.45962563157081604,0.32989323139190674,-0.14683666825294495,0.9998883605003357,0.5181229114532471,0.5409464240074158,-0.005246583838015795,0.9999138712882996,0.47945815324783325,0.5373558402061462,0.005152893252670765,0.9996078610420227,0.517951488494873,0.6760551929473877,0.036593642085790634,0.9942395091056824,0.49456724524497986,0.6506975889205933,0.11111320555210114,0.9458479881286621,0.515494704246521,0.8088414669036865,0.1481020450592041,0.9931071400642395,0.5016627311706543,0.6619710922241211,0.35961049795150757,0.788613498210907,0.5497332811355591,0.5252172350883484,-0.18120719492435455,0.6874531507492065,0.4487345218658447,0.5377326011657715,-0.17615260183811188,0.8340324759483337,179.83067761257476,0.49879053235054016,0.539151132106781,157.16768394616523,135.59502947617483,0.7371541076343903,0.01557038138467157,0.05437120115302343,0.07046703565498931,0.0438977279166277,179.95379544959746,0.2665555946832165,11,1762115352.1317315
0.49900633096694946,0.2396528422832489,-0.2893388867378235,0.9999819993972778,0.539892852306366,0.32992902398109436,-0.1355423629283905,0.9998756647109985,0.4597845673561096,0.329473614692688,-0.14439965784549713,0.9998816847801208,0.5189933776855469,0.541833221912384,-0.005178774241358042,0.999907910823822,0.4800594747066498,0.5390087962150574,0.005081480834633112,0.9995729923248291,0.518092155456543,0.6768785715103149,0.04781473055481911,0.9941620826721191,0.4944051206111908,0.6523657441139221,0.11070158332586288,0.9368223547935486,0.5155733227729797,0.810376763343811,0.157057985663414,0.9925480484962463,0.5014550685882568,0.657849133014679,0.3698287606239319,0.7487838864326477,0.550956666469574,0.5253205895423889,-0.17566058039665222,0.69176185131073,0.44901037216186523,0.5373534560203552,-0.17554743587970734,0.8388096690177917,179.9150885176953,0.4995264261960983,0.5404210090637207,162.11924216335652,134.12997582986816,0.7417205826008789,0.009509814644787193,0.016410375701706278,-0.07831953845863092,-0.49056044697769124,-179.67428151652462,0.1377788187240916,12,1762115352.209114
0.49945855140686035,0.23880869150161743,-0.2861742675304413,0.9999817609786987,0.5410906672477722,0.32892081141471863,-0.12544620037078857,0.9998794198036194,0.4598970413208008,0.3289116621017456,-0.14081956446170807,0.9998822808265686,0.5203758478164673,0.5427965521812439,-0.000745433266274631,0.9999067187309265,0.4803439974784851,0.5402020215988159,0.0007116826600395143,0.9995589852333069,0.5185155868530273,0.6809017062187195,0.037051428109407425,0.9932738542556763,0.49302321672439575,0.6708461046218872,0.05404362827539444,0.9364038705825806,0.5156093835830688,0.8094449639320374,0.1683102250099182,0.9909814596176147,0.49863606691360474,0.6586054563522339,0.35559600591659546,0.7079049348831177,0.5532326102256775,0.524931013584137,-0.14578068256378174,0.6919424533843994,0.44907134771347046,0.5363913774490356,-0.15534384548664093,0.8368270993232727,179.96390250063467,0.5003599226474762,0.5414992868900299,149.70622268844022,109.8961366445286,0.7387433707876012,0.011587232272477179,0.01499017255208713,0.028880171642229925,-0.0197436038768211,-179.99354361859574,0.09889191231123108,13,1762115352.2810464
0.5004979968070984,0.23538082838058472,-0.26158905029296875,0.9999818801879883,0.5422900319099426,0.32807469367980957,-0.10345892608165741,0.9998888969421387,0.4600079655647278,0.3285219967365265,-0.10481254011392593,0.9998733997344971,0.5228716731071472,0.547728419303894,0.0006100517930462956,0.9999102354049683,0.48033612966537476,0.5468482971191406,-0.0006435437826439738,0.9995584487915039,0.5198103189468384,0.6886771321296692,0.02061467058956623,0.991620659828186,0.484936386346817,0.6938672661781311,-0.00745487492531538,0.9388055801391602,0.5156519412994385,0.8097443580627441,0.19246378540992737,0.9868415594100952,0.4979003071784973,0.6555060744285583,0.3045910894870758,0.6587771773338318,0.5590186715126038,0.5270480513572693,-0.13587094843387604,0.7089172601699829,0.4490436613559723,0.5412919521331787,-0.11812098324298859,0.8235918283462524,-179.88098103641332,0.501603901386261,0.5472883582115173,133.25118640930816,80.4269905473105,0.7123975204989481,0.016052650200595632,0.07470379839523493,0.0576230041275288,0.770561359276681,179.6885308549764,0.1032984203217275,14,1762115352.35854
0.5000195503234863,0.22905796766281128,-0.26596799492836,0.9999806880950928,0.5435205698013306,0.3275422155857086,-0.10985907167196274,0.9998962879180908,0.45983514189720154,0.32825011014938354,-0.11082009226083755,0.999859631061554,0.5241765975952148,0.5541688799858093,0.00253015523776412,0.9999147653579712,0.48013201355934143,0.5524689555168152,-0.0025739013217389584,0.9995744228363037,0.5215017199516296,0.6981410384178162,0.019837621599435806,0.9900785088539124,0.4827636182308197,0.7019103765487671,-0.015033086761832237,0.9424112439155579,0.5159181952476501,0.8096503615379333,0.24252112209796906,0.9828487038612366,0.49350041151046753,0.6614034175872803,0.30894359946250916,0.6262320280075073,0.558201253414154,0.5354045629501343,-0.14174260199069977,0.7154879570007324,0.44861140847206116,0.5469681620597839,-0.126036137342453,0.7968810796737671,-179.87890078829994,0.5021543055772781,0.5533189177513123,123.46578568690083,78.1498234391137,0.7416009964993886,0.008211346183259053,0.08996845021928343,-0.11698250642957812,0.2277296258637559,179.515346883046,0.18483992483371925,15,1762115352.4255698
0.49960774183273315,0.22636131942272186,-0.27604103088378906,0.9999762773513794,0.5441943407058716,0.3273710012435913,-0.11255134642124176,0.9999006390571594,0.4591673016548157,0.32811591029167175,-0.11736191809177399,0.9998335838317871,0.5248765349388123,0.5598266124725342,0.004754429217427969,0.9999158382415771,0.4794038236141205,0.5567856431007385,-0.00482007535174489,0.9995821118354797,0.5227192044258118,0.7063766121864319,0.020429834723472595,0.9885623455047607,0.4818602204322815,0.7059084177017212,0.010501930490136147,0.9447578191757202,0.5161165595054626,0.8085017800331116,0.2712796926498413,0.9787175059318542,0.48793500661849976,0.7087951302528381,0.31742656230926514,0.6262126564979553,0.559923529624939,0.5444338917732239,-0.1279575079679489,0.7279829382896423,0.44702205061912537,0.5550929307937622,-0.13536719977855682,0.7779477834701538,-179.8858477604432,0.5021401792764664,0.5583061277866364,118.26735252560132,96.42171359683198,0.7801826309728274,-0.00020823741525527974,0.07351703329338455,-0.12411404439440013,-0.2425122177125353,179.49805317029563,1.7338889274939981,16,1762115352.4934072
0.499494731426239,0.22424907982349396,-0.2910304665565491,0.9999709725379944,0.5451576113700867,0.32699480652809143,-0.11186256259679794,0.9999014139175415,0.458657830953598,0.32805293798446655,-0.12159937620162964,0.9998109340667725,0.5254708528518677,0.5610063672065735,0.005305008497089148,0.9999139308929443,0.4791877865791321,0.5585008263587952,-0.0053649903275072575,0.9995806217193604,0.5235440731048584,0.7067045569419861,0.015499308705329895,0.9881142377853394,0.4821847081184387,0.7094119787216187,0.010998399928212166,0.9478815793991089,0.5168591737747192,0.8084313869476318,0.2810172140598297,0.9761009812355042,0.48364949226379395,0.7406929731369019,0.32495734095573425,0.6343210339546204,0.5607702732086182,0.5448249578475952,-0.10897600650787354,0.73024982213974,0.44698309898376465,0.5577841997146606,-0.13838714361190796,0.7584809064865112,-179.8959832067793,0.5023293197154999,0.5597535967826843,114.97478536260986,101.88090705939973,0.8097543859283841,0.0028987181969986515,0.022183541181758058,0.04761641041190569,-0.786724026124824,179.29914917077215,0.16146658537367184,17,1762115352.558657
0.49929600954055786,0.22408460080623627,-0.3141479790210724,0.9999697804450989,0.545592188835144,0.3267883360385895,-0.12493713945150375,0.9999070167541504,0.45747262239456177,0.327936053276062,-0.12865814566612244,0.9998021125793457,0.5254107713699341,0.5624800324440002,0.004429141990840435,0.9999148845672607,0.4787609577178955,0.5603122115135193,-0.00449903029948473,0.9995952248573303,0.5232755541801453,0.711027204990387,-0.0029033380560576916,0.9877222180366516,0.4805659353733063,0.7182237505912781,-2.928471440100111e-05,0.9510788917541504,0.5169862508773804,0.8062019944190979,0.3121306300163269,0.9696099758148193,0.48509931564331055,0.7497453689575195,0.3216836750507355,0.6433125734329224,0.5623325109481812,0.5520561933517456,-0.13030126690864563,0.7455388307571411,0.444679319858551,0.5601267218589783,-0.15842518210411072,0.7543019652366638,-179.86450339907165,0.5020858645439148,0.5613961219787598,103.99600056911902,97.22528034567286,0.8396587069757647,-0.003285800707277753,0.02216839517455087,-0.08346956220949368,-0.00020441858297684965,179.25379074851506,0.6296736759774343,18,1762115352.63275
0.49839168787002563,0.22231675684452057,-0.3144926130771637,0.9999703168869019,0.5454968214035034,0.32661309838294983,-0.12511380016803741,0.999912440776825,0.45618852972984314,0.3282584846019745,-0.12831929326057434,0.9998023509979248,0.5263491868972778,0.5656862258911133,0.003994738683104515,0.9999151229858398,0.4786946177482605,0.5675597190856934,-0.004069150425493717,0.9996169805526733,0.5247815847396851,0.7155417799949646,0.0019016420701518655,0.9872053265571594,0.48122650384902954,0.7265304327011108,0.008884644135832787,0.9537109732627869,0.5169710516929626,0.8078324794769287,0.33654433488845825,0.9656906723976135,0.4863395094871521,0.8045337200164795,0.3233095109462738,0.6723721027374268,0.563513457775116,0.5561882853507996,-0.1263705939054489,0.7633330821990967,0.44286173582077026,0.5679272413253784,-0.1571311205625534,0.7565514445304871,-179.59775843797007,0.5025219023227692,0.5666229724884033,104.62708183643183,108.6012107882266,0.8695901884122298,0.006083171181958788,0.0729198889055198,0.1307067014948274,0.7080350352135506,178.94452105243445,1.2440894289470024,19,1762115352.7044294
0.49673622846603394,0.22255685925483704,-0.2838323712348938,0.9999724626541138,0.5455253720283508,0.3259051740169525,-0.11599645763635635,0.9999175667762756,0.4543825685977936,0.3285960853099823,-0.1064942255616188,0.9998130202293396,0.5264800786972046,0.5695790648460388,2.7066078473581e-05,0.9999047517776489,0.47860223054885864,0.5731715559959412,-0.00012839437113143504,0.9996329545974731,0.5248599648475647,0.7237237691879272,-0.016530048102140427,0.9856441020965576,0.4809414744377136,0.7328920960426331,0.034223172813653946,0.9547096490859985,0.5168389678001404,0.8076322674751282,0.30384668707847595,0.9544281363487244,0.4859062731266022,0.8408829569816589,0.2733454704284668,0.7002139091491699,0.5647910833358765,0.5631110072135925,-0.10685749351978302,0.7833689451217651,0.4415832459926605,0.5756008625030518,-0.12624233961105347,0.7706590294837952,-179.39281357330506,0.5025411546230316,0.57137531042099,98.55714767883939,126.44885069764946,0.8305056427356651,0.00028118351272203053,0.06940880078278704,-0.08473913513533514,-0.05128011086301757,178.30888364031927,1.6919663191488525,20,1762115352.7728982
0.4953431487083435,0.22293312847614288,-0.28627464175224304,0.99997478723526,0.5452880859375,0.3257753252983093,-0.11485184729099274,0.9999228119850159,0.452089786529541,0.3301487863063812,-0.1115787997841835,0.9998286962509155,0.5269910097122192,0.5720875263214111,9.5862719717843e-07,0.9998853802680969,0.47859692573547363,0.579262375831604,-9.803865395952016e-05,0.999657928943634,0.5251515507698059,0.7306247353553772,0.0063076503574848175,0.9830146431922913,0.4806135296821594,0.7496013045310974,0.024106532335281372,0.9564045071601868,0.5166543126106262,0.8094733953475952,0.33295243978500366,0.9336138367652893,0.48648887872695923,0.9016768336296082,0.19270622730255127,0.7259281873703003,0.565089225769043,0.5687397122383118,-0.11376795917749405,0.8032850027084351,0.43962806463241577,0.5855045914649963,-0.13450613617897034,0.7883639931678772,-179.05059665151907,0.5027939677238464,0.5756749510765076,105.85990539004196,140.1352615830003,0.8377289846383614,0.0034471968921181385,0.05862713544968385,0.0431697227979214,-0.1470118562224152,177.31328609841825,3.1289672020275834,21,1762115352.846237
0.49403101205825806,0.22328868508338928,-0.30619576573371887,0.9999768733978271,0.5456024408340454,0.32566455006599426,-0.11936075985431671,0.9999278783798218,0.45128339529037476,0.33109021186828613,-0.11502736806869507,0.9998422265052795,0.527193009853363,0.5752057433128357,8.049735333770514e-05,0.9998683929443359,0.47853192687034607,0.5816266536712646,-0.0001636203087400645,0.9996806979179382,0.5249201655387878,0.734391450881958,0.02847512997686863,0.9785762429237366,0.480571985244751,0.7466388940811157,0.016201207414269447,0.9579516649246216,0.5164417624473572,0.8111540079116821,0.3594931364059448,0.9121913909912109,0.4843461513519287,0.8868065476417542,0.17857478559017181,0.7484362125396729,0.5651854872703552,0.5692532658576965,-0.13041195273399353,0.8212843537330627,0.4391494691371918,0.5850389003753662,-0.1537279486656189,0.8034262657165527,-178.98737637491988,0.5028624683618546,0.5784161984920502,113.18110421569948,136.46824191743679,0.8499527603049972,0.0010631753256364713,0.04254597764949675,-0.03700159559051333,-0.24959023270409994,176.70771364293523,1.8781673402475423,22,1762115352.9106672
0.49270573258399963,0.22342079877853394,-0.31179502606391907,0.9999788999557495,0.5455146431922913,0.3255818486213684,-0.1191793829202652,0.9999331831932068,0.4486733078956604,0.33453604578971863,-0.12745001912117004,0.9998562335968018,0.5270974040031433,0.5806505084037781,0.005382969044148922,0.9998487234115601,0.47824397683143616,0.5883340835571289,-0.005400863476097584,0.9997041821479797,0.5247598886489868,0.7376824021339417,0.04677584767341614,0.9758763909339905,0.48065847158432007,0.7674623131752014,-0.004282413516193628,0.9604496955871582,0.5161675214767456,0.8106585741043091,0.3847978711128235,0.8893254995346069,0.4841168522834778,0.939076840877533,0.13432902097702026,0.7699394822120667,0.5654547810554504,0.5752547979354858,-0.13048776984214783,0.838142454624176,0.4382132887840271,0.5952755212783813,-0.17721393704414368,0.8192700147628784,-178.7443820740231,0.5026706904172897,0.5844922959804535,116.96016615738975,141.43250254817906,0.8665384465642436,-0.002790904643440789,0.08842418627889789,-0.0560876262716138,0.6676560528745468,174.7173062260996,2.1716236608254955,23,1762115352.9793825
0.4907605051994324,0.22349506616592407,-0.2769330143928528,0.9999808073043823,0.5453962087631226,0.32665392756462097,-0.1054173931479454,0.9999372363090515,0.44609156250953674,0.33893829584121704,-0.12705156207084656,0.9998699426651001,0.5272935628890991,0.5879843235015869,0.012022985145449638,0.9998234510421753,0.478243887424469,0.5968314409255981,-0.01206168346107006,0.9997286200523376,0.523682713508606,0.7333338260650635,0.09887976944446564,0.9636431932449341,0.4807835519313812,0.7735519409179688,-0.010408725589513779,0.9618971347808838,0.5157862901687622,0.8063750267028809,0.398179829120636,0.850028932094574,0.4841606020927429,0.9480590224266052,0.08583506941795349,0.7863856554031372,0.5659132599830627,0.583450198173523,-0.12738941609859467,0.852516770362854,0.43725571036338806,0.6095856428146362,-0.17590603232383728,0.8340448141098022,-178.45001070399385,0.5027687251567841,0.5924078822135925,134.58725421982422,151.65853006810923,0.8347074229927969,0.0014332983596042972,0.11572833081197147,0.061759160743734415,0.39919507892321104,172.94811599189043,3.107392043588329,24,1762115353.0477805
0.48875364661216736,0.2257545292377472,-0.281212717294693,0.9999825358390808,0.5452759265899658,0.3294413387775421,-0.10645757615566254,0.9999411106109619,0.4437924027442932,0.3451257348060608,-0.13532423973083496,0.9998824596405029,0.5272582769393921,0.5963429808616638,0.01272631622850895,0.9998025894165039,0.47788113355636597,0.6054716110229492,-0.012779799290001392,0.9997503161430359,0.5219449996948242,0.74152010679245,0.09684348106384277,0.9500904083251953,0.48087629675865173,0.7855461239814758,-0.005006815306842327,0.9625734090805054,0.5152971744537354,0.8067903518676758,0.4026392996311188,0.808669924736023,0.4863715171813965,0.962688684463501,0.10365112870931625,0.7995357513427734,0.5659130811691284,0.597233772277832,-0.12874352931976318,0.8652908802032471,0.43644610047340393,0.623336672782898,-0.19045445322990417,0.8481765985488892,-178.25410252826782,0.502569705247879,0.6009072959423065,132.15040774136392,150.945807035731,0.8484960564699027,-0.003029637641183473,0.1293847630730815,-0.06793832321886757,0.20788895668862276,171.2143821764545,13.919118391128373,25,1762115353.1134715
0.4862593710422516,0.22878336906433105,-0.3263009190559387,0.9999841451644897,0.5452224016189575,0.3335040211677551,-0.14589056372642517,0.9999446272850037,0.4417441785335541,0.35053005814552307,-0.1654578149318695,0.9998936653137207,0.5271701216697693,0.6033428311347961,0.011125687509775162,0.999779224395752,0.4770997166633606,0.6137131452560425,-0.011180995032191277,0.999768853187561,0.5192989706993103,0.749920666217804,0.0876666009426117,0.9319411516189575,0.48084139823913574,0.7966712713241577,0.0006787825259380043,0.9618512392044067,0.5152634382247925,0.8073093891143799,0.4101812243461609,0.7539771199226379,0.4899236559867859,0.9731943607330322,0.1165558323264122,0.8080489635467529,0.5658283233642578,0.6088593006134033,-0.1759415864944458,0.8766123056411743,0.4361119270324707,0.6376556158065796,-0.23700949549674988,0.86063551902771,-178.1406849550069,0.5021349191665649,0.6085279881954193,127.65083741925535,150.41123137012121,0.8862942213166918,-0.006142860992559007,0.10766870235693185,-0.04398507474868649,-0.30681465672060515,170.65641980644358,3.4272528696898212,26,1762115353.1842506
0.48446711897850037,0.23065395653247833,-0.3231004774570465,0.9999856352806091,0.5451797246932983,0.33468469977378845,-0.14898371696472168,0.9999484419822693,0.4409177899360657,0.35258910059928894,-0.16362859308719635,0.9999038577079773,0.5271050333976746,0.6032834053039551,0.01057547889649868,0.9997589588165283,0.4763336181640625,0.6162999272346497,-0.010624309070408344,0.9997855424880981,0.5194259881973267,0.7476232051849365,0.08586157113313675,0.9178167581558228,0.4807620644569397,0.7983304262161255,-0.0008543267613276839,0.962348461151123,0.5151420831680298,0.8024115562438965,0.4030565321445465,0.7080386877059937,0.4924691617488861,0.9797899723052979,0.10650935024023056,0.8173907995223999,0.565673828125,0.6096329092979431,-0.1847437471151352,0.8874335289001465,0.43557459115982056,0.6394391655921936,-0.23466730117797852,0.8720603585243225,-178.1341256585094,0.5017193257808685,0.6097916662693024,127.337865401622,152.42349661967341,0.8777888180670552,-0.0054775461850039755,0.016655354129547405,0.008768889764313658,-1.199561483713125,170.25591231454177,2.3354461836096885,27,1762115353.2601228
0.4815981388092041,0.23465730249881744,-0.3308766782283783,0.9999869465827942,0.5442365407943726,0.3394091725349426,-0.1544094979763031,0.9999516010284424,0.4390890598297119,0.3574325144290924,-0.1599849909543991,0.9999128580093384,0.5266276597976685,0.613237738609314,0.006653499789535999,0.9997376799583435,0.4742366671562195,0.6257109642028809,-0.006676542107015848,0.9997954368591309,0.5165795087814331,0.7638329267501831,0.04848023131489754,0.9021647572517395,0.48081812262535095,0.8075003027915955,0.013516940176486969,0.9590769410133362,0.5147450566291809,0.8056026101112366,0.3766447603702545,0.6609652042388916,0.499519020318985,0.9693620204925537,0.1467456817626953,0.8191133141517639,0.5654838681221008,0.619816780090332,-0.18290799856185913,0.8969848155975342,0.4346046447753906,0.6516921520233154,-0.23376110196113586,0.882668137550354,-178.1469625434779,0.500432163476944,0.6194743514060974,112.74772758429295,146.80954726136918,0.8820283063526614,-0.016794782457210052,0.12633883852744093,-0.1476663204236346,1.4311406215011242,170.27344868993163,1.039735776884556,28,1762115353.3367634
0.47756296396255493,0.23661629855632782,-0.37245744466781616,0.9999881386756897,0.5432679057121277,0.3442513048648834,-0.19491270184516907,0.9999502897262573,0.4364693760871887,0.36259397864341736,-0.18792761862277985,0.9999205470085144,0.5257764458656311,0.6232947707176208,-0.0030046915635466576,0.9996395707130432,0.4736648201942444,0.6345351934432983,0.0029826525133103132,0.9997749924659729,0.5114443302154541,0.7828993797302246,0.02033415623009205,0.8899866938591003,0.4812985062599182,0.817875325679779,0.06220637634396553,0.94605952501297,0.5162414312362671,0.8393450379371643,0.3244987726211548,0.6154311299324036,0.50092613697052,0.9714121222496033,0.24315690994262695,0.8080188632011414,0.5653656721115112,0.6368795037269592,-0.21029627323150635,0.9038838744163513,0.4326203465461731,0.6651089787483215,-0.2427373230457306,0.8917111158370972,-177.95189543181604,0.49972063302993774,0.6289149820804596,108.67007437712786,148.182563424977,0.9375050170761474,-0.009875757796367872,0.13103217490866734,0.09603329277766784,0.06514163034469288,170.25451796137614,0.8066565956188945,29,1762115353.4088116
0.4717043340206146,0.23665986955165863,-0.3894633650779724,0.9999890327453613,0.5423561334609985,0.3456113636493683,-0.194783553481102,0.9999474287033081,0.43260079622268677,0.3660290539264679,-0.19171014428138733,0.9999271035194397,0.5246981382369995,0.636107325553894,-0.002905590459704399,0.9995542764663696,0.47171276807785034,0.6442327499389648,0.0029001054354012012,0.9997519850730896,0.5118966102600098,0.8144960403442383,0.009348908439278603,0.8703261613845825,0.48085856437683105,0.8380023241043091,0.051950085908174515,0.9356870651245117,0.5158856511116028,0.863926351070404,0.33191365003585815,0.5709325671195984,0.4962224066257477,0.9862204790115356,0.25015896558761597,0.7942163944244385,0.5652676820755005,0.6512942314147949,-0.20055413246154785,0.9061039090156555,0.43024882674217224,0.683395504951477,-0.24026532471179962,0.8980531692504883,-177.83956316164713,0.4982054531574249,0.6401700377464294,102.55688021765849,141.0405943612378,0.9685932665222903,-0.021090319882918672,0.15666306595116966,-0.15609942162177676,0.3567653588706419,169.46177865973823,1.1084529170108828,30,1762115353.480654
0.46772488951683044,0.23316608369350433,-0.3604922890663147,0.9999891519546509,0.5403023362159729,0.3443988263607025,-0.16254743933677673,0.999942421913147,0.4279177784919739,0.3670162558555603,-0.1613779515028,0.9999321103096008,0.5234236717224121,0.6437952518463135,-0.0022064370568841696,0.9995167255401611,0.4689679741859436,0.6505751609802246,0.002192618791013956,0.9997345209121704,0.5104754567146301,0.8454105854034424,-0.016454964876174927,0.8560383915901184,0.4803157448768616,0.853481650352478,0.04748596251010895,0.9096255302429199,0.5058804750442505,0.9106273055076599,0.3331254720687866,0.5257365703582764,0.4903913140296936,0.992189347743988,0.26527541875839233,0.7639990448951721,0.5652087926864624,0.6504738926887512,-0.13279257714748383,0.9098919630050659,0.42664608359336853,0.6914429068565369,-0.20272812247276306,0.9043498039245605,-177.62566050764116,0.49619582295417786,0.647185206413269,96.55857391964078,135.11839539999204,0.9757003908395023,-0.029021684490321515,0.10130819658584621,-0.11453926241844446,-0.7993966009904132,168.621200736685,4.408781670656876,31,1762115353.5498998
0.4659087061882019,0.2315955013036728,-0.30476224422454834,0.9999892711639404,0.5387823581695557,0.3435504138469696,-0.13790255784988403,0.9999409317970276,0.4265926480293274,0.3670200705528259,-0.13234423100948334,0.9999364614486694,0.5226466059684753,0.6467798948287964,-0.004909548908472061,0.9994975924491882,0.46767657995224,0.6541442275047302,0.0048970868811011314,0.9997148513793945,0.506556510925293,0.8481479287147522,-0.03414524346590042,0.8460605144500732,0.4799790382385254,0.8556578755378723,0.051086604595184326,0.8716588616371155,0.5056578516960144,0.9421119689941406,0.28546378016471863,0.4871755838394165,0.4890592098236084,0.9867387413978577,0.2608080804347992,0.7240067720413208,0.5651267766952515,0.6482735276222229,-0.10650725662708282,0.9151073098182678,0.4256834089756012,0.6900768280029297,-0.16139547526836395,0.9108498096466064,-177.58013621983883,0.49516159296035767,0.6504620611667633,98.10909082399827,134.95223620636548,0.9338067178704381,-0.017267167155611992,0.05470929977987509,0.19624959328655445,-0.7780000050508193,168.18433925814574,3.0485907074041263,32,1762115353.6097956
0.4621208608150482,0.22488966584205627,-0.3056846857070923,0.999986469745636,0.5381139516830444,0.34343865513801575,-0.12423060834407806,0.99993896484375,0.4223804473876953,0.3677383065223694,-0.12638041377067566,0.9999310970306396,0.5225879549980164,0.6508699655532837,-0.00013079270138405263,0.9994612336158752,0.46420279145240784,0.6603127121925354,0.00013547275739256293,0.999659538269043,0.50799959897995,0.8533182144165039,-0.015958335250616074,0.8189651370048523,0.4758750796318054,0.8684361577033997,0.0495828352868557,0.8448653221130371,0.5052892565727234,0.9470339417457581,0.3580353558063507,0.45284631848335266,0.48208314180374146,0.9934607744216919,0.28759825229644775,0.6886107921600342,0.5659552812576294,0.6539703607559204,-0.11975719034671783,0.9203125834465027,0.4219452440738678,0.6970409750938416,-0.16316379606723785,0.9123302102088928,-177.49051363092292,0.4933953732252121,0.6555913388729095,99.60124559345188,131.08420586489692,0.9754837684959616,-0.022706009011218047,0.06594050757064918,-0.0699201745550662,0.14438515221502762,168.14229984112748,7.513843721103603,33,1762115353.687582
0.4585880637168884,0.21271932125091553,-0.31513696908950806,0.9999822974205017,0.5381964445114136,0.34030595421791077,-0.12703195214271545,0.9999372959136963,0.41759711503982544,0.36707061529159546,-0.11221323162317276,0.9999217987060547,0.5229868292808533,0.6568998098373413,-0.0020762933418154716,0.9993958473205566,0.46166497468948364,0.6680243015289307,0.002121549565345049,0.9995318651199341,0.5232646465301514,0.8647589683532715,-0.037268877029418945,0.8110148310661316,0.4707249701023102,0.8810953497886658,0.04099956527352333,0.8251364827156067,0.5192862749099731,0.9708235859870911,0.3860277831554413,0.4246644973754883,0.47782811522483826,1.011224627494812,0.33534014225006104,0.646825909614563,0.5674008727073669,0.6602506637573242,-0.12952229380607605,0.9243306517601013,0.4177057147026062,0.7076178193092346,-0.1555267721414566,0.9114920496940613,-177.32449163053238,0.49232590198516846,0.662462055683136,94.45633937648063,124.21099757350028,1.0315472855987569,-0.014706931033917476,0.0944832871592269,0.11000004838118618,0.39250862969292266,167.48712497464783,9.229400337891493,34,1762115353.7603009
0.4557677209377289,0.20159906148910522,-0.3259243965148926,0.9999774694442749,0.5382870435714722,0.3343457877635956,-0.12236110121011734,0.9999352693557739,0.4112047255039215,0.3659469485282898,-0.11583514511585236,0.9999154806137085,0.5230096578598022,0.6625834107398987,-0.0002919138642027974,0.9993280172348022,0.457888662815094,0.6748393774032593,0.00036765431286767125,0.9994475245475769,0.5287184119224548,0.888001024723053,-0.04488668590784073,0.8004221320152283,0.46868234872817993,0.8974372744560242,0.020765792578458786,0.8067748546600342,0.5264180302619934,0.9751228094100952,0.39286115765571594,0.3977467119693756,0.4776071608066559,1.035276174545288,0.3145175278186798,0.6161728501319885,0.5701454877853394,0.6635404229164124,-0.13432873785495758,0.928176999092102,0.4123908579349518,0.7172271609306335,-0.16615504026412964,0.911039412021637,-177.17795843963125,0.4904491603374481,0.668711394071579,90.05829649759144,120.40928605302315,1.0534643206526288,-0.026257655511968618,0.08743503655965629,-0.16160719011417493,-0.09861268674372681,166.03566931031287,4.73958822748989,35,1762115353.831775
0.4530046582221985,0.18801243603229523,-0.2872481346130371,0.999971866607666,0.5383588671684265,0.3290136158466339,-0.0861513614654541,0.9999317526817322,0.4076620042324066,0.36524805426597595,-0.09713130444288254,0.9999021887779236,0.523382306098938,0.6744215488433838,0.004274907521903515,0.9993454217910767,0.4563256800174713,0.6897878646850586,-0.004204480908811092,0.9994120597839355,0.5369709134101868,0.9251127243041992,-0.05602205544710159,0.782555878162384,0.4684664309024811,0.9290302991867065,-0.015549303963780403,0.7838415503501892,0.5399730205535889,1.0813478231430054,0.33483314514160156,0.36395135521888733,0.4791489243507385,1.095624327659607,0.28847190737724304,0.5616373419761658,0.5732811093330383,0.6675736904144287,-0.07744134962558746,0.9326738119125366,0.4087561070919037,0.7224071025848389,-0.13580836355686188,0.9163840413093567,-177.12140944370807,0.48985399305820465,0.6821047067642212,98.27374294622821,116.0564197671379,1.082928157114413,-0.00854670311799205,0.19233024284525763,0.254332281574045,1.5063129608925079,164.50448183323525,2.4613207998562263,36,1762115353.901412
0.45329707860946655,0.18689537048339844,-0.28320398926734924,0.9999663233757019,0.5384327173233032,0.32660701870918274,-0.09316301345825195,0.9999323487281799,0.4071020483970642,0.36478322744369507,-0.08640912920236588,0.9998853206634521,0.5251811742782593,0.6782285571098328,0.0026054391637444496,0.999357283115387,0.4572630822658539,0.695585310459137,-0.002505576005205512,0.9993685483932495,0.5384413599967957,0.9218244552612305,-0.05488688498735428,0.7577046751976013,0.4672037661075592,0.9276121258735657,-0.0017966085579246283,0.7491105198860168,0.5426400303840637,1.0735200643539429,0.32989975810050964,0.33208131790161133,0.4801005423069,1.0881556272506714,0.2970508933067322,0.5114869475364685,0.5743709802627563,0.6694046854972839,-0.10386641323566437,0.9381616711616516,0.40834149718284607,0.7213877439498901,-0.12662458419799805,0.9216338992118835,-176.9041230337052,0.4912221282720566,0.6869069337844849,98.25530754762156,118.47492801699588,1.0763511748264478,0.01738453731614584,0.061020646197191636,0.32950150863524935,-1.6685167955507514,163.7915025798994,2.158772108851277,37,1762115353.9801104
0.45262089371681213,0.1818603277206421,-0.2842808961868286,0.9999646544456482,0.5387299060821533,0.3232120871543884,-0.09365911781787872,0.9999323487281799,0.4040842056274414,0.36397263407707214,-0.09630779176950455,0.9998789429664612,0.5264163613319397,0.6848015189170837,0.0025870962999761105,0.9993853569030762,0.45667409896850586,0.7028204798698425,-0.0024826114531606436,0.9993617534637451,0.5420756936073303,0.9364656209945679,-0.04536636173725128,0.7507551312446594,0.46672654151916504,0.933826208114624,0.0013697015820071101,0.7347233295440674,0.5476552248001099,1.085972785949707,0.3326101005077362,0.30823129415512085,0.48173198103904724,1.088667631149292,0.31516891717910767,0.46837693452835083,0.5771154165267944,0.6768520474433899,-0.0769558921456337,0.9427443742752075,0.4057145118713379,0.7310976386070251,-0.1401640623807907,0.9265574812889099,-176.70901805903068,0.4915452301502228,0.6938109993934631,100.82032397210241,117.28377152050312,1.0925117201078618,0.004829520143974626,0.10319755528233639,-0.1876643635904792,0.6304334508774219,163.15765232152606,1.9563999557292515,38,1762115354.0470119
0.45336055755615234,0.17681843042373657,-0.2783440053462982,0.9999557733535767,0.5393155217170715,0.32076215744018555,-0.07894550263881683,0.9999243021011353,0.400529682636261,0.36357590556144714,-0.10376235097646713,0.9998709559440613,0.5265986323356628,0.6896271109580994,0.011328480206429958,0.999406099319458,0.45529717206954956,0.7074758410453796,-0.011279798112809658,0.99936443567276,0.5427854061126709,0.9459631443023682,-0.0366620197892189,0.7372943162918091,0.46748390793800354,0.9410402178764343,-0.013821229338645935,0.7181954979896545,0.5464369058609009,1.0891218185424805,0.36708569526672363,0.28449052572250366,0.48255571722984314,1.0990663766860962,0.32058846950531006,0.4284361004829407,0.5801678895950317,0.6829957365989685,-0.03829040005803108,0.9461483359336853,0.4019411504268646,0.7456403374671936,-0.14821462333202362,0.9311434626579285,-176.62366582756707,0.4909479022026062,0.6985514760017395,98.93216158778178,114.74571698522698,1.110063753109464,-0.009461564606582451,0.0750882758360241,-0.22636814869465266,-0.4452458060718119,162.8556401541001,2.2456558640446147,39,1762115354.110144
0.4535900056362152,0.17242401838302612,-0.2814536690711975,0.9999464750289917,0.5409758687019348,0.32009750604629517,-0.09044159948825836,0.9999134540557861,0.3987633287906647,0.36327043175697327,-0.11194074153900146,0.9998568892478943,0.5279713869094849,0.6958746314048767,0.012077594175934792,0.999370276927948,0.4542011320590973,0.7151450514793396,-0.012027868069708347,0.9993077516555786,0.5429585576057434,0.9439862370491028,-0.03323943912982941,0.7311758995056152,0.46775078773498535,0.9427688717842102,-0.014858545735478401,0.7062166333198547,0.5444865226745605,1.083052635192871,0.4197389483451843,0.2654349207878113,0.4828362464904785,1.1109204292297363,0.3484051823616028,0.3954610824584961,0.5841792821884155,0.6924507021903992,-0.07293255627155304,0.9484812617301941,0.39911603927612305,0.7580941319465637,-0.15947924554347992,0.933904767036438,-176.66255199387942,0.4910862594842911,0.7055098414421082,96.7149338647005,114.20322796000355,1.14076681040709,0.002197587363860824,0.11052266840359301,0.18518725383703483,0.5628194801480095,163.11274340489157,2.553851284485309,40,1762115354.1731026
0.454441636800766,0.16507884860038757,-0.28696462512016296,0.9999371767044067,0.5438234806060791,0.3205801546573639,-0.09153232723474503,0.9998958706855774,0.39706215262413025,0.3631334602832794,-0.12122610956430435,0.9998486042022705,0.5305663347244263,0.7085696458816528,0.014498013071715832,0.9993233680725098,0.45390796661376953,0.7257490158081055,-0.01440400816500187,0.9992559552192688,0.5431210994720459,0.9521745443344116,-0.027269791811704636,0.7269461154937744,0.46771612763404846,0.9524828791618347,-0.01067966129630804,0.7025545239448547,0.5454019904136658,1.1205734014511108,0.4113990366458893,0.24716991186141968,0.48274096846580505,1.147428274154663,0.32762783765792847,0.36564016342163086,0.587469220161438,0.7028981447219849,-0.05348772928118706,0.9501572847366333,0.39606529474258423,0.772546112537384,-0.1635272055864334,0.9370383620262146,-176.6764878180173,0.4922371506690979,0.7171593308448792,101.27138082447529,120.9602048946331,1.1718912003841357,0.016525521644614093,0.16727375430067956,0.20573325367761783,0.8148826845911358,163.830534499814,2.518450636901856,41,1762115354.2427459
0.45471644401550293,0.16274012625217438,-0.2900262176990509,0.9999329447746277,0.5456104874610901,0.32009783387184143,-0.09427964687347412,0.9998869895935059,0.3969845175743103,0.36296775937080383,-0.12813977897167206,0.9998458623886108,0.5314993262290955,0.7105352878570557,0.015343491919338703,0.9992436170578003,0.45334458351135254,0.7276948690414429,-0.015218937769532204,0.9991841316223145,0.542831301689148,0.9508259296417236,-0.00012566172517836094,0.7232131958007812,0.4670102596282959,0.9481539130210876,-0.0022457484155893326,0.7016065120697021,0.5444919466972351,1.1264283657073975,0.39667266607284546,0.23401395976543427,0.4815944731235504,1.153271198272705,0.3246361017227173,0.34328609704971313,0.5880336165428162,0.7055132985115051,-0.06427524238824844,0.953127384185791,0.39477962255477905,0.7713645696640015,-0.17331938445568085,0.9406787753105164,-176.7978329787254,0.492421954870224,0.7191150784492493,110.17560309503182,125.53251388809744,1.1753852714111936,0.0025153492688815477,0.026619461445102837,-0.19069088596182646,-1.9144298156832433,163.91023368389887,2.600435320856509,42,1762115354.3162165
0.45515841245651245,0.16212648153305054,-0.29026833176612854,0.9999309778213501,0.5488313436508179,0.3204202353954315,-0.084874227643013,0.9998772144317627,0.3963248133659363,0.3628413677215576,-0.12762734293937683,0.9998466968536377,0.5329641699790955,0.7216992974281311,0.017884133383631706,0.999136209487915,0.4530039429664612,0.7388631105422974,-0.017770003527402878,0.99909508228302,0.5420992374420166,0.970088005065918,-0.004221832379698753,0.7166322469711304,0.4671339988708496,0.9705057144165039,-0.010308409109711647,0.6947975158691406,0.5444146990776062,1.1629942655563354,0.38689351081848145,0.2197285294532776,0.48131126165390015,1.1963446140289307,0.27446919679641724,0.3213280737400055,0.5898714661598206,0.7164195775985718,-0.05146867781877518,0.9553850293159485,0.39240914583206177,0.7815093994140625,-0.17262272536754608,0.9442239999771118,-176.99446132883887,0.4929840564727783,0.7302812039852142,111.16425242869646,130.31143711586728,1.1934412432437467,0.007475529442353486,0.14850108916573393,0.06596667356518361,1.6209341734077216,164.45558937555236,2.4742429696298696,43,1762115354.3914087
0.45550537109375,0.1593567579984665,-0.32117006182670593,0.9999353289604187,0.5532789826393127,0.32245102524757385,-0.09006814658641815,0.9998750686645508,0.39681410789489746,0.36281487345695496,-0.12740255892276764,0.9998526573181152,0.534652590751648,0.7400022745132446,0.014496011659502983,0.9990314245223999,0.45172959566116333,0.7538197636604309,-0.0143048707395792,0.9990295171737671,0.541483461856842,0.9863335490226746,-0.002183584263548255,0.7144126296043396,0.46069446206092834,0.9964563250541687,-0.0020467406138777733,0.6996267437934875,0.5433498024940491,1.182724118232727,0.3909337520599365,0.21695493161678314,0.47525230050086975,1.2264240980148315,0.28629153966903687,0.3175845742225647,0.592714786529541,0.729270339012146,-0.05708354711532593,0.9565873146057129,0.390158474445343,0.7970014214515686,-0.18399649858474731,0.9460304975509644,-177.43021227303214,0.49319109320640564,0.7469110190868378,112.66944808248013,131.50354732564324,1.2372091600054538,0.0030771506833781595,0.2471660270516405,-0.06537233256538867,1.4664396782244198,165.5345757211373,2.2092231984177793,44,1762115354.4586906
0.4571298062801361,0.15974828600883484,-0.333332359790802,0.9999397993087769,0.55865478515625,0.3294745683670044,-0.09064558893442154,0.9998690485954285,0.3971461057662964,0.3632712960243225,-0.129141166806221,0.9998610019683838,0.5363794565200806,0.7526174783706665,0.013406413607299328,0.9988915324211121,0.45079946517944336,0.7658251523971558,-0.01318504847586155,0.9989597201347351,0.5419604182243347,1.006195306777954,-0.0022836350835859776,0.7157962918281555,0.45823875069618225,1.0214897394180298,-0.001479809870943427,0.7082030773162842,0.5449151396751404,1.2274633646011353,0.3778298497200012,0.21746253967285156,0.47231537103652954,1.271024465560913,0.27294352650642395,0.3182724118232727,0.594630777835846,0.7471673488616943,-0.06286918371915817,0.9559988975524902,0.3877173066139221,0.8128541111946106,-0.1823790967464447,0.948102593421936,-177.82369979555583,0.49358946084976196,0.7592213153839111,116.66510377426596,134.92517349407478,1.2741908260953316,0.00481568746127131,0.14881364114536047,0.021016390015316685,-1.1889378053009785,168.18103162499392,1.8421535340337714,45,1762115354.5414135
0.4596218168735504,0.15948382019996643,-0.3542867600917816,0.9999444484710693,0.5650347471237183,0.3378921151161194,-0.11729466915130615,0.9998649954795837,0.3975856900215149,0.3652779459953308,-0.1374303251504898,0.9998694658279419,0.5373457670211792,0.771260142326355,0.005027081351727247,0.9987128973007202,0.44957980513572693,0.7841768264770508,-0.0048051560297608376,0.9988552927970886,0.5426087975502014,1.0283631086349487,-0.0031505587976425886,0.7188278436660767,0.4542021155357361,1.0443825721740723,0.004218732938170433,0.7189317941665649,0.5446971654891968,1.2719064950942993,0.34842950105667114,0.22945983707904816,0.4703797698020935,1.3096314668655396,0.26783931255340576,0.33106619119644165,0.5973433256149292,0.7687872052192688,-0.09973432123661041,0.9544702172279358,0.3865050971508026,0.8323420882225037,-0.19293436408042908,0.9493443965911865,-178.36646911372782,0.49346278607845306,0.7777184844017029,122.88727188326926,137.15916592485328,1.3118322769222763,-0.001932445997897746,0.2821775786253878,-0.10294396715074254,2.0344904086600804,170.71166479515225,1.3304743523111788,46,1762115354.606965
0.4614598751068115,0.1592126339673996,-0.3429577052593231,0.9999487996101379,0.5675522089004517,0.33988165855407715,-0.11851783096790314,0.9998649954795837,0.39761245250701904,0.365648090839386,-0.13575296103954315,0.9998770356178284,0.5381277799606323,0.7826989889144897,-0.0010941990185528994,0.9986110925674438,0.44837889075279236,0.794803261756897,0.0012939556036144495,0.998785138130188,0.5430799126625061,1.0474555492401123,-0.0043121385388076305,0.7126007080078125,0.44828423857688904,1.0651345252990723,0.005766558926552534,0.7234970331192017,0.5441912412643433,1.30795156955719,0.27970045804977417,0.23563791811466217,0.4673040807247162,1.3348650932312012,0.2274407595396042,0.33732494711875916,0.5980226397514343,0.7723315954208374,-0.09713149070739746,0.9543241858482361,0.3860607147216797,0.8277591466903687,-0.17407096922397614,0.9509923458099365,-178.59793402864884,0.49325333535671234,0.7887511253356934,131.82511721866328,141.42411640803792,1.3070984188515857,-0.0029445677166779513,0.15510263251392678,-0.014228936112991928,-1.7864860087786842,171.37842449831845,1.060042135007961,47,1762115354.6780963
0.4655705988407135,0.1577981561422348,-0.344042032957077,0.999952495098114,0.5732871890068054,0.34702521562576294,-0.11690118163824081,0.9998603463172913,0.39773768186569214,0.3685709238052368,-0.13763706386089325,0.9998837113380432,0.5405484437942505,0.7963437438011169,-0.0002874898782465607,0.9984058737754822,0.44838279485702515,0.8067740797996521,0.000472392188385129,0.998664915561676,0.54298996925354,1.0932437181472778,0.0039298865012824535,0.7124112248420715,0.4497048854827881,1.0794103145599365,0.006900693289935589,0.7307814359664917,0.5437096357345581,1.3260531425476074,0.3127059042453766,0.23604296147823334,0.4657704830169678,1.3528226613998413,0.23436543345451355,0.3375571668148041,0.6005315780639648,0.7893006801605225,-0.09805432707071304,0.9550247192382812,0.38553544878959656,0.8363484740257263,-0.1828090101480484,0.9531404972076416,-178.84417457752036,0.4944656193256378,0.8015589118003845,127.82833982895316,141.53700550898077,1.3338699161974368,0.017884307621961942,0.1889478034539763,0.3072795017704571,0.49930335146330923,173.00291341207824,1.0666638567527849,48,1762115354.745881
0.47104015946388245,0.15598072111606598,-0.3524845540523529,0.9999550580978394,0.5820071697235107,0.3547808825969696,-0.1162809357047081,0.9998495578765869,0.3980444669723511,0.37352073192596436,-0.14689628779888153,0.9998889565467834,0.5424347519874573,0.813079833984375,0.0008783858502283692,0.9982436299324036,0.4482281804084778,0.8227577209472656,-0.0006556673324666917,0.9985918998718262,0.5426969528198242,1.1270034313201904,0.023362165316939354,0.7132081985473633,0.4512326121330261,1.0994476079940796,0.01783597096800804,0.7344199419021606,0.5435532331466675,1.354376196861267,0.3622792959213257,0.2289505898952484,0.46575409173965454,1.3903616666793823,0.240448996424675,0.325459361076355,0.6031394600868225,0.812171995639801,-0.09893415123224258,0.9562816023826599,0.3865475058555603,0.8581644892692566,-0.19548560678958893,0.9555491805076599,-179.3301039356626,0.49533146619796753,0.8179187774658203,127.95317283322599,146.37043136886751,1.3813935968389282,0.011090895486834309,0.2095584866938267,-0.08701887873887398,0.26400849969044143,174.18347725553048,0.6899519723308158,49,1762115354.8239493
0.47604838013648987,0.14654427766799927,-0.36289235949516296,0.999955415725708,0.5901276469230652,0.35926932096481323,-0.12532977759838104,0.9998313784599304,0.3982771933078766,0.3763580322265625,-0.15326929092407227,0.9998890161514282,0.5448533892631531,0.8319255113601685,0.0010646492009982467,0.9981420040130615,0.4482755661010742,0.8391267657279968,-0.0008625801419839263,0.9985550045967102,0.5424832105636597,1.1544733047485352,0.03780326992273331,0.7172373533248901,0.4515589773654938,1.1200004816055298,0.036598753184080124,0.742274820804596,0.5435133576393127,1.3863699436187744,0.40557342767715454,0.22324243187904358,0.46321916580200195,1.4230234622955322,0.2928697466850281,0.31567034125328064,0.6077944040298462,0.8362966179847717,-0.09919071197509766,0.9579420685768127,0.3864375650882721,0.8724167943000793,-0.19368211925029755,0.9573516845703125,-179.7106453430503,0.49656447768211365,0.8355261385440826,128.72849918893164,147.36601148177454,1.4459599112582817,0.024774844906464824,0.3537839229682148,0.27495098702509735,2.897915275898398,174.90992153194145,0.37220219468348253,50,1762115354.873718
0.48262062668800354,0.13956208527088165,-0.3726920187473297,0.999954879283905,0.5969547033309937,0.36643463373184204,-0.12345783412456512,0.9998254179954529,0.3984162211418152,0.37800300121307373,-0.16306188702583313,0.9998874068260193,0.5470700860023499,0.8548495173454285,0.008145172148942947,0.9982022047042847,0.448357492685318,0.8585243821144104,-0.007718503475189209,0.9985646605491638,0.5446857213973999,1.1960997581481934,0.032322581857442856,0.7022770643234253,0.44805794954299927,1.1317732334136963,0.08440164476633072,0.7139033079147339,0.5460059642791748,1.4478315114974976,0.4388493597507477,0.20403635501861572,0.45538797974586487,1.467567801475525,0.42464590072631836,0.2870493531227112,0.6095729470252991,0.8589103817939758,-0.12120922654867172,0.9591474533081055,0.38679200410842896,0.8767736554145813,-0.27078837156295776,0.9594777226448059,-179.99664988553096,0.4977137893438339,0.8566869497299194,125.81667948485949,153.23707347061213,1.5443239814789604,0.013710437772683576,0.2524328210058078,-0.1319901907827895,-1.209043658852814,176.66528103796307,0.006547899529382773,51,1762115354.9575455
0.48454993963241577,0.13796958327293396,-0.38469597697257996,0.9999518394470215,0.5978322625160217,0.36647161841392517,-0.12285792827606201,0.9998214244842529,0.39857226610183716,0.3782321810722351,-0.16074129939079285,0.9998798966407776,0.550079345703125,0.8651721477508545,0.008047634735703468,0.9980608224868774,0.44843238592147827,0.8697748184204102,-0.00756829371675849,0.9983513355255127,0.548578143119812,1.2125470638275146,0.03565488010644913,0.669389009475708,0.44886890053749084,1.2127881050109863,0.09865080565214157,0.6710901856422424,0.5500738620758057,1.483479619026184,0.4128071665763855,0.18515710532665253,0.4555397927761078,1.4975775480270386,0.4140564799308777,0.2599400281906128,0.6124273538589478,0.8586285710334778,-0.12700583040714264,0.9605156779289246,0.3869817852973938,0.8875555396080017,-0.24646523594856262,0.9607301950454712,-179.87807675862962,0.49925586581230164,0.8674734830856323,130.23402610743642,149.2753114782747,1.570591337239915,0.019548865078885327,0.13674061536601584,0.07401359790881712,-1.466627216598567,176.6222532443767,0.25796343546558487,52,1762115355.0364287
0.48658448457717896,0.12816345691680908,-0.4052327275276184,0.9999510049819946,0.6014418601989746,0.3685793876647949,-0.12660571932792664,0.9998091459274292,0.39809122681617737,0.3790757954120636,-0.16563467681407928,0.9998710751533508,0.5537368059158325,0.8870518803596497,0.007012414280325174,0.9980309009552002,0.44852524995803833,0.8905362486839294,-0.0064519792795181274,0.9982544779777527,0.5505512952804565,1.2392035722732544,0.0431523323059082,0.6522113084793091,0.4492564797401428,1.2445454597473145,0.14121806621551514,0.6419147253036499,0.5529081225395203,1.514143705368042,0.42681699991226196,0.16875295341014862,0.45561328530311584,1.524114966392517,0.49358677864074707,0.23598039150238037,0.616604208946228,0.8740360736846924,-0.12007077038288116,0.959861695766449,0.38708773255348206,0.8974206447601318,-0.2719195485115051,0.9607529640197754,-179.8481862020951,0.5011310279369354,0.8887940645217896,131.47907975349617,151.06333503403044,1.6383148662982403,0.033649650026526104,0.3825963068813855,0.2530375759803086,4.411862775938601,177.0451697439654,0.3131119580690577,53,1762115355.0921547
0.49086126685142517,0.11653217673301697,-0.4696972966194153,0.999947726726532,0.6084005236625671,0.37171414494514465,-0.16446922719478607,0.9997841715812683,0.3978206515312195,0.3787197172641754,-0.17732606828212738,0.9998565316200256,0.5589028596878052,0.898037314414978,-0.0058942208997905254,0.9975142478942871,0.44861093163490295,0.8993745446205139,0.006648222915828228,0.997467041015625,0.5543117523193359,1.2564513683319092,0.042154595255851746,0.6332013010978699,0.44970065355300903,1.2554270029067993,0.20424485206604004,0.6045094132423401,0.5580503344535828,1.5349438190460205,0.4600563049316406,0.1545024812221527,0.4568474292755127,1.5345804691314697,0.6201924085617065,0.2142375260591507,0.6195563077926636,0.8881140947341919,-0.12180037796497345,0.9467628002166748,0.38721418380737305,0.9112613201141357,-0.25023943185806274,0.9517272710800171,-179.92926173108486,0.5037568956613541,0.898705929517746,131.30233105110153,152.88781239760877,1.741089073219597,0.03441035370498236,0.12988878960474148,0.009968545786576632,-3.311573912323584,178.09458643683814,0.11872633800863339,54,1762115355.1684651
0.49563226103782654,0.10141917318105698,-0.5193297863006592,0.999932587146759,0.6151269674301147,0.3720426857471466,-0.1859816014766693,0.9997102618217468,0.3958449363708496,0.3784423768520355,-0.21724340319633484,0.9998370409011841,0.5626439452171326,0.9104712009429932,-0.004621279425919056,0.9967849254608154,0.4486387372016907,0.9093049168586731,0.005252187140285969,0.9966176152229309,0.5603839159011841,1.2784960269927979,0.06330545991659164,0.6123977303504944,0.44998177886009216,1.2802691459655762,0.1949773132801056,0.5692198276519775,0.5643736720085144,1.5681649446487427,0.5105705857276917,0.14148518443107605,0.4564593434333801,1.5781426429748535,0.6270495057106018,0.19463099539279938,0.6259233355522156,0.9013395309448242,-0.11048994958400726,0.9116855263710022,0.3869200348854065,0.9288934469223022,-0.2406952828168869,0.9314867854118347,-179.9833475623141,0.5056413412094116,0.9098880589008331,133.38001387506412,151.66523258395375,1.8303741862092544,0.02831166540103734,0.1679988609336046,-0.09162590175369598,0.5725607667383154,178.32831155055905,0.029684697540522092,55,1762115355.235026
0.4984408915042877,0.09481874853372574,-0.6285335421562195,0.9999173283576965,0.621179461479187,0.3723677694797516,-0.2467764914035797,0.9996095895767212,0.3956220746040344,0.37833040952682495,-0.2574058473110199,0.9998171329498291,0.566304087638855,0.9239584803581238,-0.014398105442523956,0.9954360127449036,0.4490295350551605,0.9187911152839661,0.015038234181702137,0.9949437975883484,0.5664559602737427,1.3102362155914307,0.052284419536590576,0.5856624245643616,0.45024776458740234,1.3060743808746338,0.22000105679035187,0.5296144485473633,0.5697212219238281,1.6125978231430054,0.5662137269973755,0.1293276697397232,0.45530247688293457,1.6210122108459473,0.7219936847686768,0.17715683579444885,0.6347596049308777,0.9152498245239258,-0.1143522635102272,0.8571413159370422,0.3841254711151123,0.9403243064880371,-0.2140953540802002,0.9048988819122314,179.9229842203794,0.5076668113470078,0.9213747978210449,130.26327745225635,149.9907315777636,1.983997418933851,0.028563581375957395,0.16198826919326748,0.003552569013963633,-0.08476255616216354,178.4857309809357,0.17639004865893998,56,1762115355.3059368
0.4986096918582916,0.08980399370193481,-0.648002028465271,0.9999054670333862,0.6222203969955444,0.37259772419929504,-0.25978487730026245,0.9994812607765198,0.39494651556015015,0.3765903413295746,-0.2586479187011719,0.9998047351837158,0.5687121748924255,0.9323005676269531,-0.02003912255167961,0.9935462474822998,0.44907036423683167,0.92431640625,0.02066880092024803,0.9928985834121704,0.5686532258987427,1.3285973072052002,0.047336287796497345,0.5600631237030029,0.45015937089920044,1.327721357345581,0.22649438679218292,0.49539732933044434,0.5712159872055054,1.6413072347640991,0.5656910538673401,0.11898847669363022,0.4532430171966553,1.6559678316116333,0.7288163900375366,0.1623615324497223,0.6368598937988281,0.9255821108818054,-0.11355458199977875,0.798696756362915,0.38369253277778625,0.9433066248893738,-0.13658209145069122,0.8757456541061401,-179.96814892538757,0.5088912695646286,0.9283084869384766,130.74953661882597,150.19400662024188,2.026779455700633,0.015983237945854767,0.0905076232179036,-0.16421517663101126,-0.9330593373512862,178.9935641491412,0.1089911735659708,57,1762115355.3825457
0.5002129077911377,0.08544362336397171,-0.6386794447898865,0.9998995065689087,0.6240228414535522,0.3724745512008667,-0.25048354268074036,0.9992459416389465,0.39422887563705444,0.37514352798461914,-0.2813316881656647,0.9998030662536621,0.5696009397506714,0.9347495436668396,-0.0184643492102623,0.9920521378517151,0.4492586553096771,0.9307196736335754,0.019008943811058998,0.9919295907020569,0.5670126676559448,1.3184690475463867,0.13162660598754883,0.5521996021270752,0.45057791471481323,1.3233239650726318,0.2659476399421692,0.47833386063575745,0.5716338753700256,1.630316138267517,0.6292188763618469,0.11343223601579666,0.4538138806819916,1.6483591794967651,0.7543993592262268,0.15212105214595795,0.634074866771698,0.9107317328453064,0.057108838111162186,0.7347247004508972,0.3822973072528839,0.9556112289428711,-0.028784165158867836,0.8468855619430542,-179.96884304402923,0.5094297975301743,0.9327346086502075,143.4297126942928,155.80955321123847,2.0457133262414344,0.009229144279054184,0.07585365754001168,-0.11574980114911826,-0.2511356366879467,179.33455942160242,0.07734629547522995,58,1762115355.4408965
0.5021171569824219,0.07616361230611801,-0.6658937335014343,0.9998832941055298,0.6270627379417419,0.3716117739677429,-0.27362269163131714,0.9989562034606934,0.3925571143627167,0.3747398853302002,-0.2897786498069763,0.9997810125350952,0.5704098343849182,0.9462482929229736,-0.02335318922996521,0.9899286031723022,0.4478829503059387,0.9398464560508728,0.023860808461904526,0.9899874925613403,0.5662146210670471,1.3401769399642944,0.12610021233558655,0.5413945317268372,0.4498988091945648,1.3347231149673462,0.3010547459125519,0.45477429032325745,0.5710586309432983,1.6646920442581177,0.6382354497909546,0.10681188851594925,0.45105791091918945,1.6699751615524292,0.8210053443908691,0.14152038097381592,0.6366458535194397,0.9167950749397278,-0.010757130570709705,0.6775052547454834,0.3801334500312805,0.9695988297462463,-0.06080305576324463,0.8148899078369141,179.93328729981732,0.5091463923454285,0.9430473744869232,143.12266727340707,157.88015598835273,2.1164502288466114,-0.003919167757442277,0.14261369069010651,-0.18182603343848275,0.9232144769769153,179.23576694189944,0.22098966710429324,59,1762115355.513209
0.5031383633613586,0.06920365989208221,-0.7462784647941589,0.9998655319213867,0.6290704011917114,0.371259868144989,-0.30663031339645386,0.9985744953155518,0.3918675184249878,0.37387052178382874,-0.31644368171691895,0.9997553825378418,0.5744524002075195,0.9547568559646606,-0.02634068764746189,0.9856480360031128,0.44791698455810547,0.9504407048225403,0.026952341198921204,0.9865837693214417,0.5744300484657288,1.363866925239563,0.1548290252685547,0.5233761072158813,0.45369428396224976,1.3685574531555176,0.3146115839481354,0.4296107292175293,0.5790544748306274,1.6990188360214233,0.692839503288269,0.10105213522911072,0.45290541648864746,1.7184417247772217,0.8485122919082642,0.13221265375614166,0.6373856663703918,0.9103109836578369,0.006153981201350689,0.6208120584487915,0.3773444592952728,0.9786875247955322,-0.016280416399240494,0.7747510075569153,-179.9292998957417,0.5111846923828125,0.9525987803936005,145.80374170122352,157.75401427187523,2.2336882018691027,0.024372669426294003,0.11420951501260078,0.3382954336922383,-0.3396387045170795,179.36942842196632,0.3730145098678109,60,1762115355.5968397
0.5023758411407471,0.06902910023927689,-0.8187251091003418,0.9998509883880615,0.6321542859077454,0.37071114778518677,-0.3716351091861725,0.9983108043670654,0.3914681077003479,0.3724011778831482,-0.3388051688671112,0.9997252225875854,0.574406087398529,0.9577825665473938,-0.03559858351945877,0.9793639183044434,0.4479662775993347,0.9552539587020874,0.03614242374897003,0.9811787009239197,0.5739364624023438,1.3527415990829468,0.21278424561023712,0.49305999279022217,0.4443560540676117,1.3525104522705078,0.32453644275665283,0.40638846158981323,0.577328622341156,1.6821128129959106,0.822335422039032,0.0951336994767189,0.44637352228164673,1.696295976638794,0.8722180128097534,0.12434287369251251,0.6369261741638184,0.9089165329933167,0.07964825630187988,0.56365966796875,0.3751303553581238,0.9645408391952515,0.056111741811037064,0.7144107222557068,179.93878121641777,0.5111861824989319,0.9565182626247406,150.54750096906466,158.08671877070987,2.323923374629775,2.0129018959925538e-05,0.052945761150671344,-0.3289627843123861,-0.8275725945117218,179.5976918939825,0.23098937601095124,61,1762115355.670868
0.5038424134254456,0.0659794881939888,-0.7945041060447693,0.9998288154602051,0.633949875831604,0.37020012736320496,-0.32963576912879944,0.998172402381897,0.39098939299583435,0.37269872426986694,-0.32833969593048096,0.9996920824050903,0.5766359567642212,0.970312237739563,-0.03364827483892441,0.9753265380859375,0.448009192943573,0.9673214554786682,0.03408409282565117,0.9767959713935852,0.5721840262413025,1.3799726963043213,0.1814223825931549,0.4799628257751465,0.4393208920955658,1.3802937269210815,0.2959822714328766,0.3924896717071533,0.5769115090370178,1.7176074981689453,0.825463593006134,0.09292726218700409,0.4417591989040375,1.732573390007019,0.8668645024299622,0.12011551111936569,0.6355024576187134,0.9125364422798157,0.028259623795747757,0.514951229095459,0.3745766282081604,0.9706166386604309,-0.07300769537687302,0.6650152206420898,179.98589495902965,0.5123225748538971,0.9688168466091156,145.35272178696405,154.03171071718992,2.333339093902728,0.015491237706463167,0.16765361639614926,0.21090129761386625,1.5636911359375232,179.41079302578177,0.04103344767156077,62,1762115355.744225
0.5034516453742981,0.06513132154941559,-0.8137547373771667,0.9997543096542358,0.6339594721794128,0.3677363991737366,-0.3497470021247864,0.9979383945465088,0.3909357190132141,0.3714044392108917,-0.3256760835647583,0.9996612668037415,0.5779306292533875,0.9732086062431335,-0.0441017672419548,0.969988226890564,0.44793590903282166,0.9700090885162354,0.04446210712194443,0.9716747999191284,0.5709272623062134,1.382079005241394,0.18266241252422333,0.46751290559768677,0.4395478367805481,1.3744728565216064,0.3385678231716156,0.37729716300964355,0.5752085447311401,1.7256938219070435,0.8025633096694946,0.09035692363977432,0.442983478307724,1.7281113862991333,0.9179750680923462,0.11457139998674393,0.6398016214370728,0.9090065956115723,-0.03267548233270645,0.4713206887245178,0.37247857451438904,0.9687821269035339,-0.16465772688388824,0.6282240748405457,-179.95377863419858,0.5129332691431046,0.9716088473796844,147.99109902866414,157.38618484013915,2.3587860776411667,0.00891750540494435,0.04076946911435504,-0.09599122566796611,-1.8527929426940768,179.13528100179383,0.12583970247790238,63,1762115355.8127077
0.5030650496482849,0.06343097984790802,-0.8360495567321777,0.9996795058250427,0.6355818510055542,0.36706751585006714,-0.3515428900718689,0.9977184534072876,0.389840692281723,0.3701696991920471,-0.3423091769218445,0.9996433854103088,0.5805248022079468,0.9786512851715088,-0.042375851422548294,0.9651580452919006,0.4479559361934662,0.9773721694946289,0.042733535170555115,0.9673793911933899,0.5702818632125854,1.4054495096206665,0.15967199206352234,0.4597550630569458,0.436307430267334,1.4016722440719604,0.30632463097572327,0.36965203285217285,0.5741441249847412,1.7614983320236206,0.77820885181427,0.08858948200941086,0.44012799859046936,1.7692123651504517,0.8729436993598938,0.11108431220054626,0.6452696919441223,0.9104692935943604,-0.09626061469316483,0.43402618169784546,0.37121450901031494,0.9875689744949341,-0.24476118385791779,0.6071645021438599,-179.85623294755763,0.5142403692007065,0.9780117273330688,145.22642826562472,154.7666052121753,2.37856333459477,0.020474500123241934,0.10029512708857734,0.1810295152294706,0.9324137692758322,179.27674886475847,0.3979522092504874,64,1762115355.876548
0.5032761693000793,0.06023184955120087,-0.8866161108016968,0.9996742010116577,0.6371470093727112,0.36574792861938477,-0.35186442732810974,0.9976032972335815,0.3890088200569153,0.37007033824920654,-0.3841308057308197,0.9996422529220581,0.5808004140853882,0.9755555987358093,-0.0340973399579525,0.9599407911300659,0.4478457570075989,0.9785425066947937,0.03433629870414734,0.9636616706848145,0.5696449875831604,1.3903223276138306,0.18897724151611328,0.4446921646595001,0.43292346596717834,1.3916360139846802,0.2902970314025879,0.36484548449516296,0.5721384882926941,1.7377294301986694,0.8733671307563782,0.08699928224086761,0.43708866834640503,1.7608951330184937,0.8617919683456421,0.1102321445941925,0.6444931626319885,0.902459979057312,0.04361193627119064,0.3976432681083679,0.3703863024711609,0.9946449995040894,-0.19544599950313568,0.5747998356819153,-179.8828792338174,0.5143230855464935,0.9770490527153015,145.15435262092225,154.5661888540295,2.435199562545604,0.001295432311736416,-0.015076582429727873,-0.3003660753579653,-1.8068525507044597,179.00204484739206,0.3738857039826517,65,1762115355.9404004
0.5015255212783813,0.06084706634283066,-0.9113867878913879,0.9996324777603149,0.6385641098022461,0.3656560182571411,-0.40148407220840454,0.9973683953285217,0.3868609666824341,0.3702654540538788,-0.38702040910720825,0.9996180534362793,0.5803815126419067,0.9782570600509644,-0.03633333370089531,0.9566810131072998,0.4469444751739502,0.9792863726615906,0.0366232804954052,0.9613556265830994,0.5671883821487427,1.4017348289489746,0.18605276942253113,0.4296199083328247,0.4276731014251709,1.4035167694091797,0.31892481446266174,0.3550140857696533,0.5669299364089966,1.7573052644729614,0.8633497357368469,0.08476101607084274,0.4306902289390564,1.7800886631011963,0.9236157536506653,0.1070685088634491,0.6428832411766052,0.9017103314399719,0.023811254650354385,0.3648271858692169,0.3694091737270355,0.9963537454605103,-0.19785375893115997,0.543022096157074,-179.9108446703394,0.5136629939079285,0.9787717163562775,145.3737833829348,155.4407383500286,2.4848164269139197,-0.00785164923982678,0.02049071655649047,-0.1088025839368145,0.4230654347552487,178.95086054037694,0.6885659002727088,66,1762115356.0244708
0.5001299977302551,0.061147987842559814,-0.8995593190193176,0.9995782375335693,0.6396608352661133,0.36547771096229553,-0.40504345297813416,0.9970706701278687,0.3869869112968445,0.37156036496162415,-0.37083277106285095,0.9995750784873962,0.5799661874771118,0.984079897403717,-0.03965543955564499,0.952085018157959,0.44622525572776794,0.9802191853523254,0.040052928030490875,0.9576494693756104,0.5634340643882751,1.4093376398086548,0.18119418621063232,0.41395696997642517,0.4236922264099121,1.4103515148162842,0.3336491584777832,0.3451983332633972,0.5617287755012512,1.7729424238204956,0.8237582445144653,0.08263490349054337,0.42675623297691345,1.793891191482544,0.9178367853164673,0.10382670164108276,0.6395066976547241,0.9012479186058044,0.001921138376928866,0.33641016483306885,0.3681436777114868,0.9992290735244751,-0.19048915803432465,0.5143280625343323,179.97869706994254,0.5130957216024399,0.9821495413780212,146.90383424096157,157.44301875035438,2.4699003764778342,-0.008181110958291786,0.048714455180002066,-0.004751444498864106,0.40703826910411295,178.6209771951052,0.3353402140593748,67,1762115356.09381
0.49987268447875977,0.05627928674221039,-0.8804889917373657,0.9995107650756836,0.6420203447341919,0.36581099033355713,-0.40977245569229126,0.996368944644928,0.38684022426605225,0.371782124042511,-0.36191922426223755,0.9991850852966309,0.5856886506080627,0.9810646176338196,-0.061025507748126984,0.9340475797653198,0.4457401633262634,0.9759119749069214,0.06141465902328491,0.936920702457428,0.5610867738723755,1.4059518575668335,0.06605924665927887,0.39511919021606445,0.42286500334739685,1.3975409269332886,0.32179784774780273,0.3321535885334015,0.5565818548202515,1.763290524482727,0.7978542447090149,0.08040542155504227,0.42378202080726624,1.7723660469055176,0.8842727541923523,0.10104130208492279,0.6344981789588928,0.9008072018623352,0.0068750279024243355,0.3054312765598297,0.38325953483581543,0.9402444362640381,0.05098295211791992,0.46592652797698975,-179.87932477310974,0.5157144069671631,0.9784882962703705,132.62035274132197,155.23524372806224,2.4275989920701475,0.037668604930311676,-0.05266535543788411,0.6595274320622292,-1.458302736754563,178.65954158919212,0.7154081715284692,68,1762115356.1633291
0.49717211723327637,0.057295143604278564,-0.9050122499465942,0.9994460344314575,0.6420692801475525,0.36562108993530273,-0.4091712534427643,0.9960382580757141,0.38673362135887146,0.3725195527076721,-0.3630933165550232,0.9990928769111633,0.5876975655555725,0.9833053350448608,-0.06586579233407974,0.9230964183807373,0.4459049105644226,0.9740428328514099,0.0661790519952774,0.9251396656036377,0.5611808896064758,1.408208966255188,0.07507593929767609,0.3781324028968811,0.42222166061401367,1.3960946798324585,0.3124619126319885,0.31787145137786865,0.5566537380218506,1.7679166793823242,0.7886136770248413,0.07810281962156296,0.4231891632080078,1.7678555250167847,0.8884530067443848,0.09789905697107315,0.634230375289917,0.8847953677177429,0.025741493329405785,0.2782859802246094,0.38730376958847046,0.9215684533119202,-0.04570547491312027,0.4283844530582428,-179.77444861306205,0.5168012380599976,0.9786740839481354,135.0299017170593,152.96328345041027,2.442565297098186,0.013776648150722605,0.0023550407088846308,-0.30285394331720766,0.6974373882242727,178.45240309604014,1.3475709218388503,69,1762115356.2422185
0.4967692792415619,0.05819471552968025,-0.9065234065055847,0.9993755221366882,0.6415642499923706,0.3654775321483612,-0.39179280400276184,0.9957491755485535,0.3852580189704895,0.3736802935600281,-0.3665105700492859,0.9989322423934937,0.5907711386680603,0.9811792969703674,-0.06065555661916733,0.9119834899902344,0.4459839463233948,0.9729976058006287,0.0610538050532341,0.9137119650840759,0.5621885061264038,1.4066489934921265,0.09112822264432907,0.3708527386188507,0.4230387806892395,1.393783688545227,0.2491045892238617,0.31721362471580505,0.5569475889205933,1.7600070238113403,0.8528561592102051,0.0801839828491211,0.42367544770240784,1.765798807144165,0.8561514019966125,0.10244317352771759,0.6339772939682007,0.8793433308601379,0.02248896099627018,0.25274479389190674,0.38842353224754333,0.9235358238220215,-0.07097473740577698,0.38935595750808716,-179.53161578256407,0.5183775424957275,0.977088451385498,134.4377109334226,145.4730816273043,2.4509770507663755,0.025296719442297538,-0.02544641832276035,0.18487546238698607,-0.4461610925330951,178.1669456602827,2.1563778807458487,70,1762115356.304531
0.4963375926017761,0.061646703630685806,-0.9177192449569702,0.999328076839447,0.6418399810791016,0.36837199330329895,-0.3934864401817322,0.9955714344978333,0.3825031816959381,0.3765387237071991,-0.3723229169845581,0.9986909031867981,0.5902640223503113,0.9841060042381287,-0.059264618903398514,0.8994965553283691,0.446002721786499,0.9754794836044312,0.05966617539525032,0.8995919227600098,0.5622755885124207,1.4120590686798096,0.09953012317419052,0.35839542746543884,0.42333611845970154,1.3975945711135864,0.2279951274394989,0.3110842704772949,0.5570061802864075,1.758365511894226,0.8763758540153503,0.07959521561861038,0.4244125783443451,1.7680459022521973,0.8425611257553101,0.1033727303147316,0.6339309215545654,0.8794465661048889,-0.004070963244885206,0.22995027899742126,0.3889039158821106,0.9275100827217102,-0.08504057675600052,0.353007972240448,-179.43758694664214,0.5181333720684052,0.9797927439212799,134.30841873847766,142.72075301552766,2.4604330846123466,-0.003857707882098126,0.042725774555042846,-0.4606178779335984,1.0770690320223806,178.19630456035375,2.842366673311081,71,1762115356.3678253
0.49627700448036194,0.06687949597835541,-0.9221721887588501,0.999281644821167,0.6419228911399841,0.3683272898197174,-0.3917164206504822,0.9953756928443909,0.3811071515083313,0.3780517578125,-0.379544734954834,0.9984878301620483,0.5902671813964844,0.9834534525871277,-0.05442944914102554,0.8900721669197083,0.4460586607456207,0.9768484234809875,0.05479423329234123,0.8898758292198181,0.5625960826873779,1.4116710424423218,0.12187369167804718,0.34615567326545715,0.4237685203552246,1.3977181911468506,0.2230176478624344,0.3050878345966339,0.5571293830871582,1.7548843622207642,0.8874168395996094,0.07951796054840088,0.4248269200325012,1.7681448459625244,0.8257228136062622,0.10483144223690033,0.6335678696632385,0.8778562545776367,-0.007823954336345196,0.2094382494688034,0.38982731103897095,0.9293578863143921,-0.0649632066488266,0.31994858384132385,-179.37247844895774,0.5181629210710526,0.9801509380340576,136.44899582998477,143.26170064853434,2.4567741826846277,0.0004636817688652774,0.005620767705488421,0.06781107373487376,-0.5822502848932377,177.8647262441929,3.014715490124086,72,1762115356.4315522
0.4951067566871643,0.0644671618938446,-0.9500829577445984,0.9993149042129517,0.6418513059616089,0.3684482276439667,-0.39030295610427856,0.9954829812049866,0.37844616174697876,0.3815535306930542,-0.40522122383117676,0.9984497427940369,0.5897752642631531,0.9840190410614014,-0.04254802316427231,0.8841601014137268,0.44581979513168335,0.9842023253440857,0.04286879301071167,0.8829774260520935,0.5628378987312317,1.4148072004318237,0.17141380906105042,0.33886289596557617,0.42331671714782715,1.4009801149368286,0.22855623066425323,0.3025955557823181,0.5581239461898804,1.754108190536499,0.9617050886154175,0.08052529394626617,0.4245447516441345,1.7704511880874634,0.8540935516357422,0.1070331335067749,0.6286036372184753,0.8781105875968933,0.1049446240067482,0.19107237458229065,0.3907430171966553,0.935127854347229,0.03370160609483719,0.29033058881759644,-179.28055551826304,0.5177975296974182,0.9841106832027435,139.56858016285827,144.47624200709092,2.5168789709078188,-0.004549202103975826,0.049299688915538195,-0.062411494925265314,0.5438120727694133,177.15168851576297,4.385880484773844,73,1762115356.511872
0.4875114858150482,0.05218485742807388,-0.9594320058822632,0.9993487000465393,0.6417396664619446,0.36848628520965576,-0.4371773302555084,0.9955672025680542,0.3771398663520813,0.38328462839126587,-0.4034561216831207,0.9983985424041748,0.589419960975647,0.9842212200164795,-0.04538311809301376,0.8759469985961914,0.4454585611820221,0.9842981696128845,0.045830029994249344,0.8740622997283936,0.5636491179466248,1.4180052280426025,0.2119760811328888,0.3200632333755493,0.423490434885025,1.4025766849517822,0.3032851219177246,0.29110562801361084,0.5624533891677856,1.76167893409729,1.00852370262146,0.07596009969711304,0.424609512090683,1.7761343717575073,0.9610535502433777,0.101832315325737,0.6264837384223938,0.8818070292472839,0.09019755572080612,0.17529383301734924,0.39099907875061035,0.9425544142723083,0.04556707292795181,0.2640632092952728,-179.2466629218823,0.5174392610788345,0.984259694814682,143.92207211113964,151.09355568133384,2.5936776650611177,-0.004503149563825866,0.0018729566043446599,0.000578843541779331,-0.5961160365234578,176.79893845718516,203.41601186786056,74,1762115356.5914316
0.47942012548446655,0.05297739803791046,-0.8949488401412964,0.9993414878845215,0.6415942907333374,0.3673534691333771,-0.39725261926651,0.9956477880477905,0.375975102186203,0.3829444944858551,-0.34033551812171936,0.9983963370323181,0.587483286857605,0.9837760925292969,-0.04816840589046478,0.8714102506637573,0.4454471170902252,0.9846516251564026,0.048635367304086685,0.8685839772224426,0.5627673864364624,1.4256703853607178,0.15844808518886566,0.3128982186317444,0.4200535714626312,1.4081305265426636,0.28849831223487854,0.28624579310417175,0.5617791414260864,1.773850679397583,0.9374373555183411,0.0749645084142685,0.421527624130249,1.7842254638671875,0.9567921757698059,0.10070891678333282,0.6249788999557495,0.8837994337081909,-0.04076064005494118,0.1618509143590927,0.3908708095550537,0.9468840956687927,-0.07719267159700394,0.24448922276496887,-179.27751994389655,0.5164652019739151,0.9842138588428497,139.06244068068563,148.7568691637246,2.5244075402502713,-0.014664182854517522,-0.000690047522648634,-0.15297146693974664,-0.03858529835129603,176.64076918584692,31.48989319918541,75,1762115356.657856
0.4682053029537201,0.04869779944419861,-0.8704984784126282,0.9993446469306946,0.6414998769760132,0.36728695034980774,-0.4266517758369446,0.9955342411994934,0.37500351667404175,0.38283857703208923,-0.31623485684394836,0.9982072710990906,0.5873433351516724,0.9834827184677124,-0.06853432208299637,0.8514068722724915,0.4448322653770447,0.9862819314002991,0.06925830990076065,0.8458917737007141,0.562745213508606,1.4538923501968384,0.1265513002872467,0.3018430471420288,0.4202800691127777,1.437581181526184,0.2968059182167053,0.2772042155265808,0.5626432299613953,1.819692611694336,0.9281556010246277,0.07193712890148163,0.421976238489151,1.8263815641403198,0.9151179194450378,0.09617403894662857,0.6138318777084351,0.8838518857955933,-0.029626518487930298,0.14834286272525787,0.3911178708076477,0.9473385214805603,-0.022165708243846893,0.22311323881149292,-179.26379707313475,0.5160878002643585,0.9848823249340057,136.98206668850972,148.7948140615064,2.5220249102315084,-0.006055451843294173,0.010725611785453336,0.13812803373780405,0.18316550627415992,176.66024263991153,9.818535280998061,76,1762115356.7201803
0.46449074149131775,0.04721199721097946,-0.8558065295219421,0.9993222951889038,0.6406657695770264,0.36669984459877014,-0.41628795862197876,0.9953625202178955,0.37449952960014343,0.38280245661735535,-0.3109859824180603,0.9980015158653259,0.5872419476509094,0.9831323623657227,-0.06950487196445465,0.8370495438575745,0.4444900453090668,0.9882115125656128,0.07014721632003784,0.830269992351532,0.5626950263977051,1.4576194286346436,0.10495950281620026,0.29830628633499146,0.42019009590148926,1.444167971611023,0.2940513789653778,0.27380090951919556,0.5630968809127808,1.823245882987976,0.8936087489128113,0.07138174027204514,0.42225679755210876,1.8323521614074707,0.912885844707489,0.09426452219486237,0.6129487752914429,0.8811983466148376,-0.06180338189005852,0.13673314452171326,0.3909817636013031,0.9481877684593201,-0.039046432822942734,0.20462164282798767,-179.22318613661062,0.5158659964799881,0.9856719374656677,134.99147327274386,148.1324602647292,2.5031090614654787,-0.002499006105734233,0.008896361003886933,0.0400695580469994,-0.020609697372968465,176.53792091587258,6.70565357422048,77,1762115356.808937
0.4646446108818054,0.04784160107374191,-0.873761773109436,0.999315083026886,0.6399363279342651,0.366765558719635,-0.4118361473083496,0.9951682090759277,0.37432411313056946,0.38356873393058777,-0.32715991139411926,0.9978911280632019,0.587166428565979,0.9830673933029175,-0.06667919456958771,0.8249101042747498,0.4444040358066559,0.9888492226600647,0.06725914031267166,0.8195769190788269,0.5624746084213257,1.4554924964904785,0.110801562666893,0.29149937629699707,0.4203643798828125,1.4440685510635376,0.27572399377822876,0.2681993842124939,0.5630754232406616,1.8174307346343994,0.8864411115646362,0.07005219906568527,0.4226452708244324,1.8316165208816528,0.8858863711357117,0.0925784707069397,0.6130481958389282,0.8786352276802063,-0.042856365442276,0.1261991411447525,0.39081698656082153,0.9506673812866211,-0.07469810545444489,0.18815310299396515,-179.18816367419055,0.5157852321863174,0.9859583079814911,135.53263716042613,146.90895803044754,2.5009464144910076,-0.0005172521732225994,0.0018340502333933422,0.012692075690826386,-0.045230329245589576,176.38017491074453,6.002700948956335,78,1762115356.965078
0.46004146337509155,0.05761874094605446,-0.8841460943222046,0.9993150234222412,0.637988805770874,0.3697358965873718,-0.4439834654331207,0.9948794841766357,0.37443870306015015,0.3852839469909668,-0.33086127042770386,0.9977965354919434,0.5870300531387329,0.9828830361366272,-0.07122628390789032,0.8078603744506836,0.44429850578308105,0.9885221719741821,0.0717884972691536,0.8042913675308228,0.5620941519737244,1.466431736946106,0.07147195190191269,0.28362083435058594,0.4205082058906555,1.4559224843978882,0.26395419239997864,0.25914227962493896,0.5625801086425781,1.8337370157241821,0.8090873956680298,0.06951364874839783,0.4227023124694824,1.84883451461792,0.8401252627372742,0.09141965955495834,0.6134871244430542,0.8793634176254272,-0.04755270108580589,0.11734522879123688,0.39108169078826904,0.9507817029953003,-0.05695145204663277,0.17405833303928375,-179.10976958219797,0.515664279460907,0.9857026040554047,132.845856073104,146.52869376359632,2.4702966707919893,-0.0015477131142039525,-0.003271991750614738,-0.013185795579384632,-0.06533699934008892,176.6237678162285,7.0472052093233195,79,1762115357.0432274
0.459343284368515,0.06608224660158157,-0.8985522985458374,0.9991045594215393,0.6372835040092468,0.3667289614677429,-0.45859140157699585,0.9942793250083923,0.37466973066329956,0.38572198152542114,-0.33281219005584717,0.9975535273551941,0.5872823596000671,0.9784286618232727,-0.0764382928609848,0.788638174533844,0.4443705081939697,0.9882420897483826,0.07706045359373093,0.7877030372619629,0.5646854043006897,1.4659756422042847,0.03199164941906929,0.27411213517189026,0.4226547181606293,1.4579325914382935,0.25972944498062134,0.24917647242546082,0.5639234185218811,1.8369566202163696,0.769260048866272,0.06742840260267258,0.42655831575393677,1.8539189100265503,0.8369985818862915,0.0893397182226181,0.6138132810592651,0.866581916809082,-0.16798612475395203,0.11005271971225739,0.3912237286567688,0.9504848122596741,-0.13934852182865143,0.16338665783405304,-179.07050864250343,0.5158264338970184,0.9833353757858276,129.20435615359375,145.59680093157178,2.4623393374789795,0.0021423486535608427,-0.0312752979049791,0.048752282387722036,-0.369973505959596,175.8633987329862,6.266560340126042,80,1762115357.1189175
0.4581579566001892,0.06654061377048492,-0.8802282214164734,0.9988840222358704,0.6370315551757812,0.3620099723339081,-0.44607383012771606,0.9936395883560181,0.3751426339149475,0.384998619556427,-0.3235228657722473,0.9973922967910767,0.5873960256576538,0.9714338779449463,-0.07525943219661713,0.7713339328765869,0.44443678855895996,0.986719012260437,0.07585462182760239,0.774852454662323,0.5656849145889282,1.461834192276001,0.02862364426255226,0.26755470037460327,0.42423015832901,1.4530279636383057,0.24523572623729706,0.24267058074474335,0.5647433400154114,1.8306317329406738,0.7527543306350708,0.06631525605916977,0.4307181239128113,1.8474786281585693,0.8141032457351685,0.08817789703607559,0.6139326095581055,0.85968017578125,-0.15481826663017273,0.10308230668306351,0.39099881052970886,0.9504677057266235,-0.14429977536201477,0.15408407151699066,-179.0700882203887,0.5159164071083069,0.9790764451026917,128.91012776989885,144.5917454120548,2.4312812547277924,0.0011558759387902623,-0.05471401355043432,-0.012673106349631542,-0.30111459914297617,174.98342667825847,3.543121796831918,81,1762115357.1967573
0.4567503333091736,0.06642376631498337,-0.8605329394340515,0.9987872242927551,0.6357501745223999,0.3620353639125824,-0.44098392128944397,0.9933337569236755,0.3759141266345978,0.3845675587654114,-0.3104642331600189,0.997394859790802,0.58744877576828,0.9723292589187622,-0.07530146092176437,0.7661064267158508,0.44443535804748535,0.9866572618484497,0.07577625662088394,0.7729895710945129,0.5650754570960999,1.4652934074401855,0.04509061202406883,0.2721504271030426,0.4236837327480316,1.45674729347229,0.241118386387825,0.2459656000137329,0.5644311308860779,1.8375625610351562,0.7665907144546509,0.07033427059650421,0.4302755296230316,1.8519765138626099,0.8062273859977722,0.0921172946691513,0.6140515208244324,0.8599352240562439,-0.11530552059412003,0.09708389639854431,0.39095181226730347,0.9505402445793152,-0.12417646497488022,0.14730462431907654,-179.04452379488305,0.5159420669078827,0.979493260383606,130.97051358087646,144.23443020957882,2.4241658776529458,0.0003570516244397483,0.0057999117530944475,-0.011115500658459987,0.8420406896405828,175.04388183452767,3.3985935551868756,82,1762115357.268623
0.4571261405944824,0.06610710173845291,-0.8685224652290344,0.9987655878067017,0.635818600654602,0.3621317446231842,-0.43933218717575073,0.993280291557312,0.3759780824184418,0.38475465774536133,-0.31557610630989075,0.9973973035812378,0.5874215960502625,0.9727223515510559,-0.0747150331735611,0.7593395709991455,0.44432514905929565,0.9867597818374634,0.07518859207630157,0.7670348882675171,0.5650351047515869,1.4678375720977783,0.04597458243370056,0.2699786126613617,0.4234936237335205,1.4589935541152954,0.2420528680086136,0.24256862699985504,0.5644208192825317,1.840927004814148,0.7753030061721802,0.07110463827848434,0.429654061794281,1.8554128408432007,0.8130134344100952,0.0932500958442688,0.6142175793647766,0.8653550148010254,-0.11946304887533188,0.09138915687799454,0.39088860154151917,0.9535097479820251,-0.14434634149074554,0.13958437740802765,-179.0574342221585,0.515873372554779,0.9797410666942596,130.74613945213525,144.12523120461978,2.4375905874812287,-0.0010498231013915053,0.0037871058950413733,-0.021500596791605535,-0.030760753874664117,175.0241128615989,3.5958026940968253,83,1762115357.3340573
0.4579143524169922,0.06614399701356888,-0.8993402719497681,0.9987844228744507,0.6347330808639526,0.3635943830013275,-0.4389572739601135,0.9931996464729309,0.3759886622428894,0.38518956303596497,-0.3668290078639984,0.9974027276039124,0.5875346660614014,0.9734974503517151,-0.06377994269132614,0.7628154158592224,0.44432488083839417,0.9868307113647461,0.06408591568470001,0.771805465221405,0.5650103688240051,1.4659472703933716,0.09340746700763702,0.2727648913860321,0.42356744408607483,1.4575055837631226,0.24282991886138916,0.24323375523090363,0.5644031763076782,1.8385214805603027,0.8764126896858215,0.07301834225654602,0.4298868775367737,1.8512622117996216,0.8373996615409851,0.09590733051300049,0.6143382787704468,0.8658447265625,0.012027880176901817,0.0859820693731308,0.3908323049545288,0.9535229802131653,-0.1146651953458786,0.13152837753295898,-179.0004623304101,0.5159297734498978,0.9801640808582306,133.10049548918516,144.20276951560976,2.4999769081562464,0.0007500681700001268,0.005625610359303461,0.023936519966400144,0.024450031797253954,175.22906941739134,3.699144652058103,84,1762115357.4092517
0.45909348130226135,0.08403981477022171,-0.902202308177948,0.9985255599021912,0.6346114277839661,0.36337199807167053,-0.4352642893791199,0.9931531548500061,0.37600865960121155,0.38549092411994934,-0.36035075783729553,0.9974166750907898,0.5877200365066528,0.9736812114715576,-0.06338000297546387,0.7624315023422241,0.4443235993385315,0.987240195274353,0.06368763744831085,0.7722867131233215,0.5661091804504395,1.4646241664886475,0.06325140595436096,0.27252286672592163,0.4235718250274658,1.457090139389038,0.23263223469257355,0.24255740642547607,0.5645796060562134,1.8373150825500488,0.8628255724906921,0.07284475117921829,0.4297580122947693,1.8508169651031494,0.8434125781059265,0.09751493483781815,0.6147629022598267,0.8544550538063049,-0.1437341868877411,0.08183857798576355,0.3901984691619873,0.9535241723060608,-0.17966964840888977,0.1299719512462616,-178.98738293586658,0.5160218179225922,0.9804607033729553,129.41665672700313,142.48340301223718,2.4860199408787973,0.0014104439987286139,0.004545296784635226,0.01011927275229236,-0.01655419118098356,175.1112506438323,4.598696874731881,85,1762115357.474511
