nose_x,nose_y,nose_z,nose_visibility,left_shoulder_x,left_shoulder_y,left_shoulder_z,left_shoulder_visibility,right_shoulder_x,right_shoulder_y,right_shoulder_z,right_shoulder_visibility,left_hip_x,left_hip_y,left_hip_z,left_hip_visibility,right_hip_x,right_hip_y,right_hip_z,right_hip_visibility,left_knee_x,left_knee_y,left_knee_z,left_knee_visibility,right_knee_x,right_knee_y,right_knee_z,right_knee_visibility,left_ankle_x,left_ankle_y,left_ankle_z,left_ankle_visibility,right_ankle_x,right_ankle_y,right_ankle_z,right_ankle_visibility,left_wrist_x,left_wrist_y,left_wrist_z,left_wrist_visibility,right_wrist_x,right_wrist_y,right_wrist_z,right_wrist_visibility,trunk_lateral_inclination,center_mass_x,center_mass_y,left_knee_angle,right_knee_angle,person_height,center_mass_velocity_x,center_mass_velocity_y,center_mass_acceleration_x,center_mass_acceleration_y,body_orientation,torso_leg_ratio,frame,timestamp
0.5784378051757812,0.03474891185760498,-0.42718321084976196,0.9994202852249146,0.6344958543777466,0.21505683660507202,-0.20944681763648987,0.9927898049354553,0.4579215943813324,0.23136630654335022,-0.3117561936378479,0.9995105266571045,0.5843188762664795,0.7009051442146301,0.002314623910933733,0.9958212375640869,0.4884961247444153,0.7056002616882324,-0.002378446515649557,0.9968281388282776,0.5781740546226501,0.9674378037452698,-0.006878039333969355,0.4604601562023163,0.49009400606155396,0.9938420057296753,0.0755619928240776,0.39717644453048706,0.5547834634780884,1.2171680927276611,0.3076513707637787,0.1785150170326233,0.4740491509437561,1.1914057731628418,0.4074925482273102,0.2589210271835327,0.6526147723197937,0.7044405937194824,0.04929483309388161,0.15029442310333252,0.41983723640441895,0.7797237634658813,-0.20460458099842072,0.8570399284362793,178.83032783946223,0.5364075005054474,0.7032527029514313,126.48572031511704,135.8213334475031,1.4098789353540124,0.0,0.0,0.0,0.0,174.72278769177464,0.49705165029647,0,1762115294.9196022
0.5792098641395569,0.03467144817113876,-0.41196760535240173,0.9993420243263245,0.634658694267273,0.2186587005853653,-0.11321812868118286,0.9926624298095703,0.45812565088272095,0.23135143518447876,-0.2806769907474518,0.9995437264442444,0.5844564437866211,0.7157197594642639,0.019638990983366966,0.9952312707901001,0.4884280562400818,0.724037230014801,-0.01949406787753105,0.9966666102409363,0.574511706829071,1.0437376499176025,0.07483015209436417,0.479023277759552,0.48393988609313965,1.0584756135940552,0.04554400593042374,0.4175107479095459,0.5564597845077515,1.271328091621399,0.4472220540046692,0.18581344187259674,0.47224777936935425,1.2991997003555298,0.37586265802383423,0.25841864943504333,0.649844765663147,0.7138394713401794,0.23643997311592102,0.14724914729595184,0.41982942819595337,0.7796106934547424,-0.1707373708486557,0.8632728457450867,178.8481665465765,0.5364422500133514,0.7198784947395325,131.01113148874154,137.08882161170024,1.4987849873835475,0.00046052881030320646,0.22033854792027402,0.006103303267052932,2.92010608086411,175.8875075309067,0.6689916524022806,1,1762115294.9950578
0.5792356729507446,0.026822609826922417,-0.4842389225959778,0.9993016719818115,0.6362723708152771,0.21885590255260468,-0.13541175425052643,0.9912204146385193,0.4576880931854248,0.23321092128753662,-0.350027859210968,0.9995672702789307,0.5844007730484009,0.731013298034668,0.03455735743045807,0.9915596842765808,0.4845450520515442,0.7390120029449463,-0.03454370051622391,0.995243489742279,0.5705571174621582,1.064335584640503,0.14775905013084412,0.5052485466003418,0.46950697898864746,1.0456159114837646,0.07081814855337143,0.44421058893203735,0.5556425452232361,1.2938456535339355,0.5808798670768738,0.18837326765060425,0.4668043553829193,1.3291088342666626,0.4722382426261902,0.2528004050254822,0.6463426351547241,0.6761570572853088,0.48221081495285034,0.14284375309944153,0.4194495677947998,0.7798317074775696,-0.178362175822258,0.8666893243789673,178.59233467157136,0.5344729125499725,0.7350126504898071,136.70182533288954,144.13354161603564,1.6360549326008749,-0.029040945623817795,0.2231766786440058,-0.4350451513748091,0.041852654282910656,175.40431332422168,1.4197378314715796,2,1762115295.0628703
0.5791099071502686,0.02403865195810795,-0.35767102241516113,0.9991938471794128,0.6371026039123535,0.2218298614025116,-0.04200097173452377,0.9913461208343506,0.45648565888404846,0.2331906408071518,-0.2525569200515747,0.9995853304862976,0.5848700404167175,0.74422287940979,0.03429776430130005,0.991062343120575,0.4822145104408264,0.7489004135131836,-0.03417542204260826,0.9950539469718933,0.5688828825950623,1.095201015472412,0.09362395107746124,0.5237011909484863,0.4652034342288971,1.0526330471038818,0.06891163438558578,0.45437565445899963,0.5568767786026001,1.3423343896865845,0.4936601221561432,0.18237480521202087,0.4642432630062103,1.3776863813400269,0.4559005796909332,0.24123460054397583,0.6465986371040344,0.750889778137207,0.25469154119491577,0.16465875506401062,0.41927751898765564,0.7771840691566467,-0.1637592315673828,0.8760427236557007,178.53750415307275,0.533542275428772,0.7465616464614868,131.32088876055394,148.6539337569251,1.5755934909582476,-0.011407439987374993,0.1415637475232189,0.21614564123045488,-1.0003841376466078,176.40084541277673,2.0437345367175466,3,1762115295.1444519
0.5768600106239319,0.017930487170815468,-0.3743147552013397,0.9991721510887146,0.6398953199386597,0.22053830325603485,-0.10382267087697983,0.9915741682052612,0.4537285268306732,0.23456931114196777,-0.2693538963794708,0.9996042847633362,0.5849601030349731,0.7420055866241455,0.03008786402642727,0.9898918867111206,0.48021450638771057,0.7484034895896912,-0.02999899908900261,0.9944536685943604,0.566879391670227,1.091628074645996,0.11265748739242554,0.5362017750740051,0.46324530243873596,1.0470012426376343,0.09228963404893875,0.46196725964546204,0.5572661757469177,1.3431819677352905,0.5116787552833557,0.17650100588798523,0.4628634452819824,1.369718313217163,0.45804476737976074,0.23063601553440094,0.6425315141677856,0.7524289488792419,0.2227754294872284,0.17770303785800934,0.418048620223999,0.7736643552780151,-0.1108430027961731,0.88129061460495,178.4259549542698,0.5325873047113419,0.7452045381069183,135.51396120921584,153.5391966238598,1.5919424448151727,-0.014522873293159586,-0.02063844714686623,-0.04737846127361492,-2.4667163904305145,175.68988369882052,2.845756664856777,4,1762115295.2102082
0.5709160566329956,0.00805602315813303,-0.40580353140830994,0.9992225170135498,0.6433121562004089,0.22329717874526978,-0.12159319967031479,0.9923118948936462,0.44935303926467896,0.23618051409721375,-0.23618271946907043,0.9996248483657837,0.5839176774024963,0.7566119432449341,0.026013340801000595,0.9900701642036438,0.4758771061897278,0.7535386085510254,-0.02578137442469597,0.9943944215774536,0.5629748106002808,1.112215280532837,0.09015432745218277,0.5288198590278625,0.4608252942562103,1.0483840703964233,0.09048955142498016,0.45268985629081726,0.556669294834137,1.3773303031921387,0.49935096502304077,0.16413572430610657,0.45716890692710876,1.3936469554901123,0.4574665427207947,0.21353499591350555,0.6419521570205688,0.7724548578262329,0.005266510881483555,0.2370707392692566,0.4156443178653717,0.7728629112243652,-0.11616222560405731,0.8887673616409302,178.2080799247399,0.5298973917961121,0.7550752758979797,133.12745989431332,154.68088981518028,1.6380621356841518,-0.04306522012962723,0.15802946385629546,-0.4569599419257185,2.860454282325523,176.1998279435811,3.2989493734186435,5,1762115295.2726696
0.5634037256240845,0.007703395094722509,-0.40712395310401917,0.999272346496582,0.6438787579536438,0.2349444329738617,-0.1223660334944725,0.9930236339569092,0.44560274481773376,0.23665428161621094,-0.218220517039299,0.9996476173400879,0.5806010961532593,0.7710705995559692,0.021791718900203705,0.9906327128410339,0.47032737731933594,0.7623114585876465,-0.02144758775830269,0.9946107864379883,0.5633863806724548,1.1270827054977417,0.07991091907024384,0.5004492998123169,0.4620431363582611,1.062745213508606,0.08796538412570953,0.43063750863075256,0.5570808053016663,1.4092047214508057,0.49870166182518005,0.1492963284254074,0.4567748010158539,1.4247078895568848,0.4463226795196533,0.19477345049381256,0.6402897834777832,0.7776573896408081,-0.017410876229405403,0.30523625016212463,0.41325339674949646,0.7729453444480896,-0.2201501429080963,0.8981974124908447,177.920521260753,0.5254642367362976,0.7666910290718079,133.21938137768706,155.28507856107416,1.6622102771813574,-0.06031549343289683,0.1580386597854541,-0.2346993804864973,0.00012511563374006127,179.50591763020364,3.330453236377709,6,1762115295.346169
0.5536316633224487,0.008201341144740582,-0.4537755846977234,0.9993235468864441,0.6450304388999939,0.24744918942451477,-0.14248070120811462,0.9936704635620117,0.4418504238128662,0.23886872828006744,-0.21289901435375214,0.9996709227561951,0.5794602632522583,0.7783374190330505,0.01332104206085205,0.9910610914230347,0.46981334686279297,0.7659717202186584,-0.01290824543684721,0.9947391152381897,0.5710368752479553,1.103178858757019,0.07622258365154266,0.47384124994277954,0.46206140518188477,1.0626016855239868,0.10895521938800812,0.40873080492019653,0.5615900754928589,1.4371641874313354,0.4793027341365814,0.13554494082927704,0.4575219750404358,1.441491723060608,0.4645519256591797,0.17689312994480133,0.6396063566207886,0.7863308191299438,-0.04611656814813614,0.36552271246910095,0.4096952974796295,0.7729591131210327,-0.22372694313526154,0.9057689905166626,177.96422693772797,0.5246368050575256,0.7721545696258545,140.61066250449065,159.13403035113237,1.7049903030661717,-0.013053077374415141,0.08618961470760805,0.7455841848220749,-1.133448438994832,-177.5817884416489,2.6884926024197298,7,1762115295.4095588
0.5525459051132202,0.008013700135052204,-0.4626316428184509,0.999373733997345,0.6470454335212708,0.2522631883621216,-0.14298157393932343,0.9942585229873657,0.4395805299282074,0.24018941819667816,-0.20849952101707458,0.9996940493583679,0.5773987174034119,0.7832799553871155,0.008923487737774849,0.9913457632064819,0.46735209226608276,0.7704477310180664,-0.008466281928122044,0.9948140382766724,0.5712795853614807,1.0937058925628662,0.07468883693218231,0.4476688504219055,0.4601019322872162,1.0675158500671387,0.1025688648223877,0.39048123359680176,0.5614243745803833,1.4440408945083618,0.46836692094802856,0.1231575459241867,0.4562860429286957,1.44790518283844,0.45400291681289673,0.16101503372192383,0.6399444341659546,0.790541410446167,-0.04514395818114281,0.42022648453712463,0.4086074233055115,0.773402214050293,-0.22539415955543518,0.9128958582878113,177.74042973830396,0.5223754048347473,0.7768638432025909,143.63381074170016,157.7442554132038,1.7096996741846664,-0.024330494561871537,0.05066726092756003,-0.12133417817314054,-0.3821864112176035,-176.66933219587688,3.0625939510711193,8,1762115295.5025039
0.5507223010063171,0.008139406330883503,-0.4506758749485016,0.9994125962257385,0.6470126509666443,0.2558097541332245,-0.13742783665657043,0.9947798848152161,0.43961817026138306,0.24196527898311615,-0.19209276139736176,0.9997140765190125,0.5754574537277222,0.7846745848655701,0.006125655025243759,0.9915270209312439,0.46690621972084045,0.7718260288238525,-0.005779717583209276,0.9948611855506897,0.5699530243873596,1.1340330839157104,0.07296476513147354,0.42670488357543945,0.46047407388687134,1.07113516330719,0.08943545818328857,0.37772613763809204,0.5613426566123962,1.449509859085083,0.4549325406551361,0.11251916736364365,0.4563245177268982,1.4593292474746704,0.3922378420829773,0.14760363101959229,0.639535129070282,0.7893562912940979,-0.026809504255652428,0.4702422022819519,0.40797823667526245,0.7741426825523376,-0.21904334425926208,0.9198564887046814,177.60575892602216,0.5211818367242813,0.7782503068447113,140.39010613771248,159.68102292376926,1.690506829292448,-0.01669714298102547,0.019395610076611867,0.10678499337592172,-0.43746747331170477,-176.18092590562617,3.468689204319795,9,1762115295.5739872
0.5491560697555542,0.008773374371230602,-0.44744187593460083,0.9994477033615112,0.646802544593811,0.25483036041259766,-0.1382199227809906,0.9952372908592224,0.4384179711341858,0.24302059412002563,-0.17385077476501465,0.9997214078903198,0.5755265951156616,0.7829685807228088,-0.008442824706435204,0.9913156032562256,0.46738943457603455,0.7723513245582581,0.008741536177694798,0.9946107864379883,0.5707722902297974,1.1400456428527832,0.012585727497935295,0.42614129185676575,0.4612278342247009,1.0814576148986816,0.0808163732290268,0.3782968521118164,0.5650893449783325,1.4414430856704712,0.3956843912601471,0.10556866228580475,0.46158742904663086,1.4572572708129883,0.3714577257633209,0.13887178897857666,0.6392298936843872,0.7843267917633057,-0.053166843950748444,0.5162309408187866,0.4081960618495941,0.7715834975242615,-0.21594539284706116,0.925388514995575,177.70908009837945,0.5214580148458481,0.7776599526405334,131.56733279731966,155.3806158490219,1.6634683439921345,0.0033876854508286614,-0.007241465533124523,0.24636665886125078,-0.3267385301333865,-176.75634946960258,7.943981639532275,10,1762115295.6555114
0.5445762276649475,0.009131011553108692,-0.4234670102596283,0.9994763135910034,0.6464930176734924,0.25314903259277344,-0.12154807895421982,0.9956579208374023,0.43882232904434204,0.24295812845230103,-0.16381552815437317,0.9997274875640869,0.5765897631645203,0.779762864112854,-0.005944438744336367,0.9912854433059692,0.46801477670669556,0.7701184749603271,0.006150362081825733,0.9945008754730225,0.577661395072937,1.1337940692901611,-0.018050268292427063,0.4246867597103119,0.46175527572631836,1.0789146423339844,0.03401594236493111,0.377796471118927,0.5702313184738159,1.4323714971542358,0.33642932772636414,0.09823493659496307,0.4674607813358307,1.4423149824142456,0.31781628727912903,0.12925146520137787,0.6393082141876221,0.7811683416366577,-0.08253349363803864,0.5583952069282532,0.40939101576805115,0.7662767171859741,-0.21366123855113983,0.930316150188446,177.78757344253683,0.5223022699356079,0.7749406695365906,128.13914833121936,147.11617171911521,1.6136410026536443,0.00971189157759914,-0.031281283340327086,0.0727505287946275,-0.2765421339126382,-177.19061085195943,23.578993908523614,11,1762115295.7424414
0.5361488461494446,0.011026827618479729,-0.4593737721443176,0.9994837641716003,0.6447665691375732,0.2520468533039093,-0.14337597787380219,0.9960101842880249,0.4388073980808258,0.2429070770740509,-0.1625089943408966,0.9997294545173645,0.5767480134963989,0.7787953615188599,-0.013307614251971245,0.9906142354011536,0.4684596061706543,0.768650233745575,0.013696233741939068,0.9939871430397034,0.5715682506561279,1.122308373451233,-0.0006174072623252869,0.42742809653282166,0.46203726530075073,1.0743932723999023,0.05924266576766968,0.37739405035972595,0.5698707103729248,1.4285719394683838,0.3663797676563263,0.09641622006893158,0.46809467673301697,1.440058708190918,0.3897356390953064,0.12403207272291183,0.637939989566803,0.7809980511665344,-0.15668360888957977,0.5921053886413574,0.4114290773868561,0.7607361078262329,-0.21923978626728058,0.9335798621177673,177.91232846704597,0.5226038098335266,0.7737227976322174,131.95872517886906,146.3133356694247,1.651464894096708,0.0038210893314642048,-0.015432774810267318,-0.074647772224624,0.20083102528660451,-177.45907281461567,8.795846149555922,12,1762115295.821356
0.532462477684021,0.012780185788869858,-0.46671947836875916,0.9994871616363525,0.644076406955719,0.2512657940387726,-0.15266673266887665,0.99631667137146,0.4386827349662781,0.24286380410194397,-0.15331117808818817,0.9997261762619019,0.5766201615333557,0.7792636156082153,-0.020929837599396706,0.9894278049468994,0.46818798780441284,0.7677239179611206,0.0213557668030262,0.9931846261024475,0.5681296586990356,1.1179341077804565,-0.02853992208838463,0.425645649433136,0.4619766175746918,1.0737582445144653,0.044672682881355286,0.37759530544281006,0.5675570964813232,1.421422004699707,0.3778979778289795,0.0944705456495285,0.46797481179237366,1.434347152709961,0.36991262435913086,0.12011704593896866,0.6369178295135498,0.7789081335067749,-0.16681475937366486,0.6216574311256409,0.41275912523269653,0.7579400539398193,-0.2168770283460617,0.9364088773727417,177.93562775826356,0.5224040746688843,0.773493766784668,125.45043016640548,142.26277531594255,1.6460214003776916,-0.0024427830377111467,-0.0028010724626693767,-0.07660784820344033,0.15448710940501192,-177.6575212405292,6.992182333739999,13,1762115295.9031215
0.5296598672866821,0.01592414267361164,-0.46778354048728943,0.9995088577270508,0.6409856081008911,0.24906229972839355,-0.1602838635444641,0.9966015219688416,0.43875542283058167,0.24248245358467102,-0.1332644373178482,0.9997250437736511,0.5767282843589783,0.774264931678772,-0.02907174825668335,0.9879975914955139,0.46827632188796997,0.7604075074195862,0.029503438621759415,0.9921271204948425,0.5690310001373291,1.0878171920776367,-0.09456079453229904,0.4335670471191406,0.4625615179538727,1.0518600940704346,0.013875579461455345,0.3871031701564789,0.567163348197937,1.4091384410858154,0.30022069811820984,0.09756243228912354,0.47126683592796326,1.4154279232025146,0.33767038583755493,0.12174525111913681,0.6358433365821838,0.7665039896965027,-0.16912594437599182,0.6457650661468506,0.41454657912254333,0.7469539046287537,-0.18757566809654236,0.9384440779685974,178.09274034412326,0.5225023031234741,0.7673362195491791,117.3423487479939,135.19316196411268,1.6027695747165567,0.0012010576303599382,-0.07528947821042413,0.04455391929432974,-0.8863292535701751,-178.13645789003286,5.078672629380189,14,1762115295.9849064
0.5285586714744568,0.016635045409202576,-0.509100079536438,0.9995313882827759,0.6367288827896118,0.24896496534347534,-0.16013774275779724,0.9968706965446472,0.4380570948123932,0.24247612059116364,-0.15005986392498016,0.9997286796569824,0.5767828226089478,0.7667800188064575,-0.024182893335819244,0.9882688522338867,0.46843767166137695,0.7546926736831665,0.024557430297136307,0.9920759797096252,0.5695549249649048,1.0877498388290405,-0.04961171746253967,0.4421224296092987,0.4640197157859802,1.0403215885162354,0.04949644207954407,0.3922090530395508,0.5671405792236328,1.3792996406555176,0.4262261390686035,0.09732822328805923,0.47181907296180725,1.3857825994491577,0.4922025799751282,0.12058422714471817,0.6337778568267822,0.7562788128852844,-0.08414696902036667,0.6657997369766235,0.4163023829460144,0.7425916790962219,-0.18499216437339783,0.9395591616630554,178.3558636292265,0.5226102471351624,0.760736346244812,116.96481664334996,132.92775558590102,1.6743400739005445,0.001631108325047195,-0.09972862896833974,0.00649836204274761,-0.36929239181375817,-178.12932018855474,5.488290435403965,15,1762115296.0510848
0.5242835283279419,0.02756544202566147,-0.49258390069007874,0.9995492100715637,0.6281417608261108,0.2509370744228363,-0.18484510481357574,0.9971230030059814,0.43639272451400757,0.24361294507980347,-0.14702746272087097,0.9996874332427979,0.5757086277008057,0.7612107992172241,-0.034751951694488525,0.988631546497345,0.4688270688056946,0.7473762631416321,0.03512651473283768,0.9919441938400269,0.5695337057113647,1.045960783958435,-0.014489497058093548,0.46587222814559937,0.4640932083129883,1.01246976852417,0.10358966886997223,0.40689346194267273,0.5653518438339233,1.3090087175369263,0.41666731238365173,0.11874302476644516,0.4768024981021881,1.317971110343933,0.48178917169570923,0.1325409859418869,0.6317153573036194,0.7344709038734436,-0.19047294557094574,0.6900264024734497,0.4193500578403473,0.7263593077659607,-0.1634068340063095,0.9393588900566101,178.87016191640242,0.5222678482532501,0.7542935311794281,125.45889207385837,143.32952719091554,1.593932915900169,-0.0043491526552960555,-0.08183667567109217,-0.07596131090372618,0.22726369828247256,-177.81256894278718,2.3446811486674752,16,1762115296.1298125
0.5188422799110413,0.04040313512086868,-0.5263824462890625,0.9995630383491516,0.6218258738517761,0.2524345815181732,-0.22960011661052704,0.9973462820053101,0.4320032596588135,0.24845410883426666,-0.18540814518928528,0.9996684193611145,0.5721383094787598,0.7560073137283325,-0.03435559570789337,0.9889849424362183,0.46891289949417114,0.7421498894691467,0.03467271849513054,0.9919471740722656,0.5685995817184448,1.012446641921997,-0.014242751523852348,0.47776901721954346,0.4641617238521576,0.9956976771354675,0.09437625855207443,0.4174603819847107,0.558281660079956,1.2907965183258057,0.3471740782260895,0.13567501306533813,0.4761764109134674,1.2980011701583862,0.4555538594722748,0.14202043414115906,0.6286870241165161,0.7257407903671265,-0.22216835618019104,0.7076815366744995,0.4216410219669342,0.7257547974586487,-0.1716538667678833,0.9388898611068726,179.26591376634346,0.5205256044864655,0.7490786015987396,132.09217855445922,143.09672118975388,1.5598786016398372,-0.02624744978592569,-0.07856455274273728,-0.32990472704875007,0.0492955600661281,-178.79871601644618,7.521888758742867,17,1762115296.19619
0.518876850605011,0.04498647153377533,-0.5282666087150574,0.9995832443237305,0.6177603006362915,0.25829511880874634,-0.20645329356193542,0.9975363612174988,0.43138808012008667,0.24917949736118317,-0.1982356756925583,0.9996636509895325,0.5709025859832764,0.7510369420051575,-0.028202885761857033,0.9889634847640991,0.46898016333580017,0.739530086517334,0.02852155826985836,0.9917863011360168,0.5685675740242004,1.002572774887085,0.02712942101061344,0.4879346787929535,0.4656798839569092,0.9882484674453735,0.09751629084348679,0.42636144161224365,0.5525041818618774,1.2763919830322266,0.4904191493988037,0.13896441459655762,0.4759067893028259,1.288705587387085,0.4943322241306305,0.14554619789123535,0.6260326504707336,0.7241113185882568,-0.17289423942565918,0.7217718362808228,0.42233067750930786,0.7223114967346191,-0.1868727207183838,0.9382085204124451,179.46000411499077,0.5199413746595383,0.7452835142612457,132.98549766577514,142.58866085461918,1.604148683010461,-0.00840264275941528,-0.054582566086130574,0.2566516320180255,0.3449191692187354,-177.19984690656244,1.586991925932769,18,1762115296.2657194
0.5168198347091675,0.0507439523935318,-0.5416046380996704,0.9996153712272644,0.6130435466766357,0.25785383582115173,-0.20417849719524384,0.9977536201477051,0.43147414922714233,0.24983496963977814,-0.2084978073835373,0.9996591806411743,0.567351222038269,0.7348045110702515,-0.017936039716005325,0.9896857738494873,0.46901416778564453,0.7211340069770813,0.018408354371786118,0.9921183586120605,0.5685257911682129,0.9682936072349548,0.0242550540715456,0.5070238709449768,0.4672022759914398,0.9638169407844543,0.09978397190570831,0.44285762310028076,0.5411013960838318,1.199655294418335,0.5334795117378235,0.14728887379169464,0.47605037689208984,1.2038840055465698,0.5435230731964111,0.15297432243824005,0.6233789920806885,0.7161152362823486,-0.1687648594379425,0.7374572157859802,0.4225643277168274,0.7004432678222656,-0.20205307006835938,0.93721604347229,179.50742803498753,0.5181826949119568,0.7279692590236664,124.61177324773497,136.929110798812,1.578466642168241,-0.02759073244262246,-0.2716315943026422,-0.3010289106146002,-3.405134830652577,-177.47122130362555,0.4388081058057223,19,1762115296.329461
0.5114988684654236,0.06461189687252045,-0.5144954323768616,0.9996302127838135,0.6049216389656067,0.2596745491027832,-0.20351938903331757,0.9979560971260071,0.4301222264766693,0.2507007420063019,-0.18751153349876404,0.9996405243873596,0.5618823170661926,0.7243407964706421,-0.01833791472017765,0.9900311231613159,0.4690852761268616,0.7124761939048767,0.018838470801711082,0.9918259382247925,0.567273736000061,0.9586892127990723,-0.03532952070236206,0.5127403736114502,0.4676189422607422,0.9549574851989746,0.09910984337329865,0.4352048933506012,0.5421208143234253,1.1972960233688354,0.4303131699562073,0.14623123407363892,0.47832727432250977,1.1992472410202026,0.5203705430030823,0.14838992059230804,0.6186753511428833,0.7008265852928162,-0.24377481639385223,0.7535181045532227,0.4225957989692688,0.6897975206375122,-0.19682712852954865,0.9361686706542969,179.74790460200012,0.5154837965965271,0.7184084951877594,112.88157174744683,138.39811768330844,1.5049796939087705,-0.037124126418800814,-0.13151107000783804,-0.13113458967628147,1.9273983121371439,-177.06114410323775,0.2821615590870372,20,1762115296.4021604
0.5082488059997559,0.07537083327770233,-0.5279948711395264,0.9996541142463684,0.597648024559021,0.25980228185653687,-0.23016515374183655,0.9981505274772644,0.4281741678714752,0.2509024441242218,-0.20002014935016632,0.9996410608291626,0.5578316450119019,0.7062196731567383,-0.021798748522996902,0.9906942844390869,0.4691334366798401,0.6998510956764221,0.02218938246369362,0.991851270198822,0.5655026435852051,0.92893385887146,-0.036221928894519806,0.5252343416213989,0.4726440906524658,0.926922619342804,0.1026269942522049,0.43360409140586853,0.5457968711853027,1.099204182624817,0.4283542037010193,0.1534876972436905,0.48977822065353394,1.0746439695358276,0.5646699070930481,0.14619740843772888,0.6115508675575256,0.686290979385376,-0.28451913595199585,0.7668349146842957,0.4225059151649475,0.6692761778831482,-0.1986345499753952,0.93509840965271,-179.92686488830037,0.513482540845871,0.7030353844165802,106.31776285506128,127.24080022102522,1.4397726879980532,-0.026180380329177803,-0.2011106709875022,0.14316582713546117,-0.9105003315089635,-176.99390116292423,0.444074616490394,21,1762115296.4786015
0.5060599446296692,0.07533334940671921,-0.5206199884414673,0.9996750950813293,0.594819962978363,0.2583465874195099,-0.21713292598724365,0.998318612575531,0.4260764718055725,0.2512529790401459,-0.2122061550617218,0.9996467232704163,0.5564457178115845,0.7006440758705139,-0.01031711045652628,0.991115927696228,0.46920695900917053,0.693462610244751,0.010770739056169987,0.9918891191482544,0.5626108646392822,0.9405320882797241,-0.018733620643615723,0.5443292856216431,0.47396644949913025,0.9267776608467102,0.10011192411184311,0.4448603391647339,0.5466943979263306,1.1639158725738525,0.37707656621932983,0.16471664607524872,0.4910770356655121,1.1217159032821655,0.5078374147415161,0.1467641144990921,0.6078488826751709,0.6770056486129761,-0.24099810421466827,0.7838048934936523,0.4224376678466797,0.6675514578819275,-0.20724532008171082,0.9374791979789734,-179.69190754662935,0.5128263384103775,0.6970533430576324,117.34345207053762,136.51115159477607,1.4377763170287763,-0.010296986827189639,-0.09386890042013821,0.2492387787894294,1.6828146912106832,-177.5928276777037,3.9763938486074513,22,1762115296.542329
0.501348614692688,0.07787162065505981,-0.47867947816848755,0.9996964335441589,0.5914815664291382,0.25816211104393005,-0.22613497078418732,0.998473584651947,0.4264909327030182,0.25124478340148926,-0.20834024250507355,0.9996464252471924,0.5546087622642517,0.6924948692321777,-0.01233784481883049,0.9918294548988342,0.47003331780433655,0.6856760382652283,0.012676874175667763,0.9922245144844055,0.5622127652168274,0.919223964214325,0.04413071274757385,0.5701779723167419,0.4774710237979889,0.8992348313331604,0.1861141324043274,0.4544127881526947,0.5476013422012329,1.110442042350769,0.3811120092868805,0.20034322142601013,0.4922594130039215,0.9213321208953857,0.6114683151245117,0.1507515013217926,0.5994530320167542,0.6681022047996521,-0.2759021520614624,0.7965297102928162,0.42242103815078735,0.6583392024040222,-0.2027999460697174,0.9374533891677856,-179.56014369168506,0.5123210400342941,0.689085453748703,133.39310074704687,132.07683910767844,1.3530647015495034,-0.005747551146594927,-0.09063130518733864,0.051747869179867664,0.03682624974321523,-177.5992473267551,37.2672677662218,23,1762115296.6302445
0.4998782277107239,0.07726242393255234,-0.4457150101661682,0.9997190237045288,0.5884506702423096,0.2519826889038086,-0.19599968194961548,0.9986141920089722,0.4267262816429138,0.25083133578300476,-0.199735626578331,0.9996513724327087,0.5548661947250366,0.6751573085784912,-0.010539046488702297,0.992515504360199,0.4707627296447754,0.6729099750518799,0.01078794989734888,0.9927275776863098,0.5611572265625,0.8858116865158081,0.06299439072608948,0.5975048542022705,0.4778795838356018,0.8731785416603088,0.1743926703929901,0.4752569794654846,0.5459585189819336,1.0505011081695557,0.4608617424964905,0.2396455705165863,0.4908527433872223,0.9140018224716187,0.5883866548538208,0.17342962324619293,0.5965389013290405,0.6453219652175903,-0.2415313422679901,0.8094579577445984,0.4223833978176117,0.6513115167617798,-0.20739713311195374,0.939224123954773,-179.29154559919985,0.512814462184906,0.6740336418151855,131.5999764565063,134.89744194906194,1.3269915636230412,0.006892315608233895,-0.21024965780911242,0.176558654313089,-1.6708764245462142,-179.59210505807442,4.692142368546147,24,1762115296.7018347
0.4961233139038086,0.07496163249015808,-0.423933207988739,0.9997432231903076,0.5834990739822388,0.24468035995960236,-0.19617921113967896,0.9987414479255676,0.42689943313598633,0.2452700436115265,-0.19033387303352356,0.9996638894081116,0.5501301288604736,0.6509826183319092,-0.011511771008372307,0.9931582808494568,0.4712052345275879,0.6486762762069702,0.01162699144333601,0.9932509660720825,0.5508699417114258,0.8504526019096375,0.06257611513137817,0.6278951168060303,0.4778306484222412,0.8509674668312073,0.19789792597293854,0.5061003565788269,0.5374878644943237,1.001075029373169,0.46680593490600586,0.29470956325531006,0.4901953339576721,0.9026581048965454,0.588897168636322,0.22296780347824097,0.5938495397567749,0.6208665370941162,-0.26976653933525085,0.8178566694259644,0.42239928245544434,0.6326146721839905,-0.23190100491046906,0.9387933015823364,-179.22614421351116,0.5106676816940308,0.6498294472694397,130.77960109303226,140.18319591777833,1.2942837521000559,-0.029420461748580314,-0.3317053526501859,-0.4976469097570862,-1.6644843939131457,179.78425094315597,10.728806666253211,25,1762115296.7748036
0.49483782052993774,0.07393588125705719,-0.4443916380405426,0.9997639060020447,0.5811203718185425,0.23493988811969757,-0.19891169667243958,0.9988568425178528,0.42704230546951294,0.2398425191640854,-0.20075972378253937,0.999672532081604,0.5482305288314819,0.6303917765617371,-0.009091299958527088,0.9937904477119446,0.4716718792915344,0.6293778419494629,0.00904727540910244,0.9938151836395264,0.5499067902565002,0.8366361856460571,0.0750202089548111,0.6616591215133667,0.4786173701286316,0.8299369215965271,0.19318604469299316,0.5469862818717957,0.5379887223243713,0.99079430103302,0.473075807094574,0.357522189617157,0.4902532994747162,0.8838918805122375,0.631477952003479,0.28112292289733887,0.5908600687980652,0.6061080098152161,-0.24918405711650848,0.8239814639091492,0.4230337142944336,0.617671012878418,-0.23720917105674744,0.9362854957580566,-179.1431874571762,0.5099512040615082,0.6298848092556,133.31740538745422,139.5874414647252,1.3187842829016752,-0.01203918481483262,-0.33513563049853373,0.2920627188129004,-0.057639969634619516,178.17751266118043,41.31691861495405,26,1762115296.8343158
0.4938393533229828,0.07261759042739868,-0.4512902796268463,0.9997842907905579,0.5823427438735962,0.230741485953331,-0.2088656723499298,0.9989629983901978,0.4283992350101471,0.23916983604431152,-0.20201611518859863,0.9996830224990845,0.5458248257637024,0.6248371601104736,-0.00727587565779686,0.9943668842315674,0.4721453785896301,0.6217242479324341,0.0071952929720282555,0.9943418502807617,0.5465972423553467,0.8305390477180481,0.08939956873655319,0.6917045712471008,0.4792439341545105,0.8253552913665771,0.19002261757850647,0.5847508311271667,0.5309435129165649,0.9606444239616394,0.48559531569480896,0.4146284759044647,0.49336567521095276,0.8882299065589905,0.6131210327148438,0.3363152742385864,0.5894080400466919,0.610456645488739,-0.27795371413230896,0.8310012221336365,0.424826055765152,0.6199575662612915,-0.24213489890098572,0.9312934875488281,-179.46676777200724,0.5089851021766663,0.6232807040214539,133.30302202762138,140.386580776706,1.3142409840922022,-0.012164123546699247,-0.08315184272381507,-0.0015730951300672268,3.172710843803463,176.866205999954,4.712047074675692,27,1762115296.913738
0.4950169026851654,0.07086635380983353,-0.43929457664489746,0.9998027086257935,0.5815281271934509,0.22456219792366028,-0.20109570026397705,0.9990586042404175,0.4305744767189026,0.23372037708759308,-0.20153406262397766,0.9996955394744873,0.544134259223938,0.6138959527015686,-0.005389071069657803,0.9948895573616028,0.4725363254547119,0.608877420425415,0.005302509758621454,0.9948303699493408,0.543582558631897,0.82380610704422,0.08707109838724136,0.7190829515457153,0.47973185777664185,0.8083856105804443,0.18632499873638153,0.6188262104988098,0.5308765769004822,0.943072497844696,0.47335705161094666,0.46551400423049927,0.4955371022224426,0.8839325904846191,0.5928705930709839,0.3868490755558014,0.5891640782356262,0.600902795791626,-0.22157898545265198,0.8398299217224121,0.4253257215023041,0.6061104536056519,-0.23501095175743103,0.9303280115127563,-179.65765068105307,0.508335292339325,0.6113866865634918,130.91097839411825,142.7598735592403,1.286835155533724,-0.007913372452579287,-0.14484512959580972,0.05176556998368759,-0.7512997323022809,176.52818832488555,1.4729422132174292,28,1762115296.9958534
0.4955366551876068,0.06333393603563309,-0.3862990140914917,0.9998186826705933,0.5815125703811646,0.2188306748867035,-0.15062588453292847,0.9991431832313538,0.43270501494407654,0.2237718105316162,-0.1648111343383789,0.9997034668922424,0.5434032678604126,0.6099640130996704,-0.0040392084047198296,0.9953563213348389,0.47256070375442505,0.6006289720535278,0.004049585200846195,0.9952520728111267,0.5418316125869751,0.827575147151947,0.08208006620407104,0.7446143627166748,0.47957807779312134,0.799618124961853,0.1797362118959427,0.6495041847229004,0.5335026383399963,0.9584528803825378,0.3753697872161865,0.511574387550354,0.49485212564468384,0.875446081161499,0.5395312905311584,0.42806005477905273,0.5889705419540405,0.5849265456199646,-0.15454581379890442,0.8457232117652893,0.42773503065109253,0.5880409479141235,-0.2078435868024826,0.9291578531265259,-179.86971142044123,0.5079819858074188,0.6052964925765991,135.63194320200103,143.3535149902071,1.2003833900218375,-0.00561922909201221,-0.09686261684014941,0.03648762745312148,0.7631467500184559,178.09819979315597,0.2513844517847452,29,1762115297.058728
0.4973117709159851,0.06286713480949402,-0.3858542740345001,0.9998340010643005,0.5811643600463867,0.2150302529335022,-0.15054967999458313,0.9992185831069946,0.4377812445163727,0.2205221801996231,-0.160587340593338,0.9997148513793945,0.5436263680458069,0.5954299569129944,-0.004375904332846403,0.9957608580589294,0.47395187616348267,0.5887556076049805,0.004395338241010904,0.9956369996070862,0.5430861115455627,0.805792510509491,0.07332010567188263,0.766413152217865,0.4790492057800293,0.7901506423950195,0.1577213704586029,0.6776846647262573,0.5343344211578369,0.9257170557975769,0.3981422483921051,0.5503638386726379,0.494389146566391,0.8860142230987549,0.4937778413295746,0.47093161940574646,0.5890156030654907,0.5775781273841858,-0.15062138438224792,0.8518239855766296,0.42983072996139526,0.5822865962982178,-0.1903965324163437,0.9285351634025574,179.89535075736802,0.5087891221046448,0.5920927822589874,130.52372653560283,143.19847556132203,1.1844206359582807,0.012601761445487133,-0.20614858753066337,0.28448302578290013,-1.706274066367281,177.80650246876792,0.2074823065528561,30,1762115297.1227775
0.5009394884109497,0.06316378712654114,-0.3835393488407135,0.9998470544815063,0.5810132026672363,0.2145894169807434,-0.1382099837064743,0.9992836713790894,0.4427257180213928,0.21383792161941528,-0.14078594744205475,0.9997218251228333,0.5423750877380371,0.5890993475914001,-0.002443112898617983,0.9961286187171936,0.47406452894210815,0.5813206434249878,0.0023863345850259066,0.9959900975227356,0.5431507229804993,0.7918978333473206,0.07110388576984406,0.7850177884101868,0.4772093892097473,0.7854623794555664,0.13619765639305115,0.7036511301994324,0.5323346853256226,0.8874989748001099,0.505311131477356,0.5802474021911621,0.4936490058898926,0.8858845233917236,0.5072654485702515,0.5122140049934387,0.5885289907455444,0.5674850344657898,-0.13746322691440582,0.8549140691757202,0.43282103538513184,0.5679437518119812,-0.17019537091255188,0.9279592633247375,179.4363747115062,0.5082198083400726,0.585209995508194,122.33335886377294,138.36991441539018,1.2124919753741195,-0.00895714001702996,-0.10828841400057766,-0.3391909892750312,1.5396558645628011,-179.6886407414724,1.2975204820157036,31,1762115297.1863372
0.5020307302474976,0.06338778883218765,-0.3605637550354004,0.9998602271080017,0.5802804231643677,0.21592305600643158,-0.13811559975147247,0.9993457794189453,0.4434080123901367,0.2136315256357193,-0.13440266251564026,0.9997348189353943,0.5426288843154907,0.5822934508323669,-0.0028237218502908945,0.9964779019355774,0.4743090271949768,0.5757908821105957,0.002756894798949361,0.9963369369506836,0.5433646440505981,0.781225323677063,0.08609159290790558,0.8016177415847778,0.47539830207824707,0.7717320919036865,0.13966861367225647,0.7261208891868591,0.5331882238388062,0.8635575771331787,0.5165166854858398,0.6107767224311829,0.49374693632125854,0.8593478798866272,0.5084202289581299,0.5510320067405701,0.588001549243927,0.56318598985672,-0.14662601053714752,0.8612343072891235,0.4343833923339844,0.5649380087852478,-0.16310575604438782,0.9277693629264832,179.46911506657426,0.5084689557552338,0.5790421664714813,124.89481155139259,138.25158404617807,1.1828878615980094,0.0027301061475720344,-0.06758580240301591,0.12806644043058554,0.44601084893003257,-179.04083844975727,0.8258315745409688,32,1762115297.2775965
0.5054047107696533,0.0652611181139946,-0.34875351190567017,0.9998699426651001,0.5800384283065796,0.21664801239967346,-0.12218139320611954,0.9993915557861328,0.44745364785194397,0.21409426629543304,-0.1318233460187912,0.9997363090515137,0.5426627993583679,0.5792125463485718,-0.001879149698652327,0.9967753887176514,0.47522154450416565,0.5723549723625183,0.001745201414451003,0.9966304898262024,0.5437794923782349,0.7749426364898682,0.05357859283685684,0.8155144453048706,0.47430548071861267,0.7670742273330688,0.12151317298412323,0.745760440826416,0.5313609838485718,0.8468818664550781,0.49444475769996643,0.6316984295845032,0.4936750829219818,0.8561456203460693,0.4653526842594147,0.5849677920341492,0.5874807834625244,0.5517842769622803,-0.1418296992778778,0.8574353456497192,0.4371815621852875,0.5611220598220825,-0.17222990095615387,0.9232971668243408,179.23636148516636,0.5089421719312668,0.575783759355545,115.06640124726236,136.01050686892606,1.1423258349501537,0.006354267045290836,-0.04375334150768827,0.04866462163710845,0.32001826764433333,-178.8965491912327,1.3817924433152347,33,1762115297.3520687
0.5083764791488647,0.07151473313570023,-0.34383851289749146,0.9998805522918701,0.5801543593406677,0.21720139682292938,-0.1186336874961853,0.9994422793388367,0.451568067073822,0.21460838615894318,-0.12363352626562119,0.9997478127479553,0.5423712134361267,0.5753133893013,-0.002022514585405588,0.9970607757568359,0.4762018322944641,0.566715657711029,0.0018955763662233949,0.9969203472137451,0.5430088043212891,0.7693111896514893,0.007444566581398249,0.825563907623291,0.4728240966796875,0.7569847106933594,0.11238707602024078,0.7607207894325256,0.525120198726654,0.8242312669754028,0.48925668001174927,0.6333224177360535,0.49250659346580505,0.8528927564620972,0.428387314081192,0.6124772429466248,0.5872513055801392,0.5461623072624207,-0.15210820734500885,0.8605566620826721,0.438899427652359,0.555364191532135,-0.17432072758674622,0.9228512048721313,178.93931636850522,0.5092865228652954,0.5710145235061646,99.28314253064518,136.8341793316834,1.1102367372329123,0.005634252667303829,-0.07803399715227526,-0.011780839047566424,-0.5608983638951951,-178.844756846369,7.321925039926194,34,1762115297.413186
0.5104295015335083,0.07924578338861465,-0.3249166011810303,0.9998897910118103,0.5803394317626953,0.21771275997161865,-0.1146424189209938,0.9994885325431824,0.45643869042396545,0.21457365155220032,-0.1072368174791336,0.9997596144676208,0.5424899458885193,0.5697948336601257,-0.0024214908480644226,0.9973101615905762,0.4773402214050293,0.5585735440254211,0.0022764159366488457,0.9971829056739807,0.5417871475219727,0.7600933313369751,-0.006907740142196417,0.8359465599060059,0.47200965881347656,0.7488512396812439,0.08813828229904175,0.7778006792068481,0.524029016494751,0.8207371830940247,0.43134474754333496,0.6409834623336792,0.4919354021549225,0.861460268497467,0.3832686245441437,0.6405282020568848,0.5870190262794495,0.541821300983429,-0.15628640353679657,0.8667046427726746,0.44005662202835083,0.5481532216072083,-0.16113515198230743,0.9232281446456909,178.6052584021256,0.5099150836467743,0.5641841888427734,96.53101492791669,134.90779655368445,1.056681994475067,0.007728404000844258,-0.08398167256865458,0.025748420870974995,-0.07312902719689221,-178.54868345887346,7.811513044058297,35,1762115297.4945173
0.5140612125396729,0.0901978611946106,-0.3150489926338196,0.9998985528945923,0.5804026126861572,0.22023551166057587,-0.10872180759906769,0.9995323419570923,0.46097421646118164,0.21533222496509552,-0.09624568372964859,0.9997729659080505,0.5426250100135803,0.5661197900772095,-0.00346437469124794,0.9975391030311584,0.4796600341796875,0.5535830855369568,0.003321803407743573,0.9974287152290344,0.5397993326187134,0.7545381188392639,0.00261667906306684,0.8453235030174255,0.4720633924007416,0.7425336241722107,0.09219955652952194,0.7931457161903381,0.51844322681427,0.8373660445213318,0.41090449690818787,0.6470575332641602,0.49183541536331177,0.8693886399269104,0.3708569407463074,0.6658980846405029,0.5865837335586548,0.5411919355392456,-0.15481223165988922,0.8751409649848938,0.44275689125061035,0.5425129532814026,-0.14319394528865814,0.9252448081970215,178.40149290466874,0.5111425220966339,0.5598514378070831,103.34200242026985,139.27623258860942,1.0396438226311162,0.016529197595869828,-0.05834663075026327,0.1185151535291081,0.34521215433901165,-177.6489683319187,12.037066696669882,36,1762115297.5687761
0.5152186751365662,0.09142482280731201,-0.31866654753685,0.9999046921730042,0.5803302526473999,0.22574885189533234,-0.10545400530099869,0.9995645880699158,0.46189817786216736,0.21582728624343872,-0.09680669754743576,0.9997804164886475,0.5422900915145874,0.5668426752090454,-0.0036640700418502092,0.9977468848228455,0.4799257218837738,0.5520921349525452,0.0035251472145318985,0.9976561069488525,0.5389922857284546,0.7564665079116821,-0.021955106407403946,0.8513998985290527,0.47211891412734985,0.7424017786979675,0.07944107055664062,0.8062664866447449,0.5171007513999939,0.8201090693473816,0.4179258346557617,0.6362124681472778,0.49188774824142456,0.8709031939506531,0.37047022581100464,0.6874239444732666,0.5864461660385132,0.5392236709594727,-0.15320901572704315,0.8809341788291931,0.4435197412967682,0.5374749302864075,-0.14970722794532776,0.9262808561325073,178.30768382932487,0.5111079066991806,0.5594674050807953,92.76792539142882,135.22295907691168,1.0377521572525434,-0.0005630019272455125,-0.006246098006444833,-0.2779959781007549,0.8473888068121679,-175.21126722720194,9.419030965264655,37,1762115297.6302598
0.5185068845748901,0.1007416695356369,-0.3131524324417114,0.9999113082885742,0.5804048180580139,0.23016689717769623,-0.09920738637447357,0.9995947480201721,0.46506863832473755,0.22043217718601227,-0.09214586764574051,0.9997923970222473,0.5421653985977173,0.5647422075271606,-0.004592727404087782,0.9979407787322998,0.4817039370536804,0.5520901679992676,0.004477422218769789,0.9978728294372559,0.5385958552360535,0.7490314841270447,-0.01945248618721962,0.8570998311042786,0.47305551171302795,0.7394614219665527,0.06815455853939056,0.8200562000274658,0.5187641978263855,0.7900952100753784,0.41940411925315857,0.6241310834884644,0.49226099252700806,0.8726959824562073,0.3270116150379181,0.7098389267921448,0.5850650668144226,0.5362601280212402,-0.14313332736492157,0.8836016654968262,0.4450964331626892,0.5383707880973816,-0.14723779261112213,0.9270625114440918,178.14270565506496,0.5119346678256989,0.5584161877632141,90.78447030034953,135.58343788695458,1.0025539751318426,0.010289080070973752,-0.013082447644988815,0.13505465730673316,-0.08507868423903076,-175.17549880178055,34.39179504562217,38,1762115297.710613
0.5207287073135376,0.1117352694272995,-0.31025564670562744,0.999917209148407,0.5807386636734009,0.23691779375076294,-0.09633588045835495,0.9996234774589539,0.46942153573036194,0.22568517923355103,-0.08432729542255402,0.999806821346283,0.542009711265564,0.5648677945137024,-0.006569759454578161,0.9981276392936707,0.483551561832428,0.5513578057289124,0.006461021490395069,0.998076319694519,0.5367368459701538,0.738868772983551,-0.019897224381566048,0.8506360650062561,0.4749825894832611,0.7330965399742126,0.08299596607685089,0.8282215595245361,0.5193935632705688,0.7144787907600403,0.4212666451931,0.5794392824172974,0.49368372559547424,0.8737314939498901,0.3283837139606476,0.7246311902999878,0.58485347032547,0.5336698889732361,-0.11369377374649048,0.8803700804710388,0.4486638605594635,0.5281391739845276,-0.12575718760490417,0.9269484281539917,177.8447046593699,0.512780636548996,0.5581128001213074,82.53347298807797,142.15160170764452,0.967039678557083,0.013491752663558865,-0.004838513426161813,0.051077144215343734,0.13147663547367228,-174.23799080686868,18.08939557553398,39,1762115297.7733157
0.5236533880233765,0.12079714983701706,-0.29402464628219604,0.9999231100082397,0.5816088914871216,0.24122001230716705,-0.08819315582513809,0.9996490478515625,0.4739081859588623,0.23229168355464935,-0.07946594059467316,0.9998177886009216,0.5420423746109009,0.5619040131568909,-0.006574369966983795,0.998289167881012,0.486572802066803,0.5468000769615173,0.006466749124228954,0.9982537627220154,0.5360125303268433,0.7325447797775269,-0.01910843513906002,0.8537536859512329,0.47874316573143005,0.7255028486251831,0.0768294632434845,0.8382513523101807,0.5193010568618774,0.7533473372459412,0.4061761498451233,0.5604833364486694,0.4941031038761139,0.8740943670272827,0.3028375506401062,0.7416009902954102,0.5849142074584961,0.5308230519294739,-0.1180807575583458,0.8819753527641296,0.45208683609962463,0.5235364437103271,-0.1286236196756363,0.9282602667808533,177.5748375054775,0.5143075883388519,0.5543520450592041,88.68048571431784,144.38798669363908,0.9492226851611173,0.02093206434701895,-0.05155393082891563,0.10199476103613919,-0.6403935799207753,-175.2610476963628,19.8752853842599,40,1762115297.8462636
0.5268334150314331,0.1274331957101822,-0.2877940237522125,0.9999297857284546,0.5830760598182678,0.24713842570781708,-0.09057477861642838,0.9996776580810547,0.47575560212135315,0.23562967777252197,-0.07760566473007202,0.9998296499252319,0.5416784286499023,0.5599641799926758,-0.006664534565061331,0.9984391331672668,0.4866286814212799,0.5434492826461792,0.006563741713762283,0.9984150528907776,0.534280002117157,0.7238544225692749,-0.014006157405674458,0.8592800498008728,0.47972536087036133,0.7179715633392334,0.07307833433151245,0.8481642007827759,0.5198003053665161,0.7685036659240723,0.39320850372314453,0.5594583749771118,0.49489837884902954,0.8685026168823242,0.29337406158447266,0.7589327096939087,0.5824195146560669,0.5305666327476501,-0.12734250724315643,0.8861631155014038,0.453061580657959,0.5224663019180298,-0.12797650694847107,0.9289659857749939,177.18435033663127,0.5141535550355911,0.5517067313194275,93.77758094811294,144.80893695119664,0.9360694220512836,-0.002397948579000308,-0.04118152496260527,-0.36319529711885873,0.16147479396595316,-173.87915104221292,43.89992803044168,41,1762115297.910499
0.5284707546234131,0.13103654980659485,-0.2905424237251282,0.9999353885650635,0.5836054086685181,0.25093820691108704,-0.08800748735666275,0.9997012615203857,0.4771610200405121,0.23830962181091309,-0.08048839867115021,0.9998405575752258,0.5414868593215942,0.5566359162330627,-0.0065650902688503265,0.9985738396644592,0.4868643879890442,0.5414705872535706,0.006470202002674341,0.9985623359680176,0.5338963270187378,0.7220067381858826,-0.013960421085357666,0.8638664484024048,0.48042505979537964,0.7188587784767151,0.06429532915353775,0.8580830097198486,0.5217230916023254,0.755700409412384,0.398124098777771,0.5525854825973511,0.4953002333641052,0.8672537803649902,0.2816227078437805,0.7756738662719727,0.5822480320930481,0.5310102701187134,-0.11576607078313828,0.8875495791435242,0.45379170775413513,0.5210708379745483,-0.1299421191215515,0.9288249611854553,176.9524925940529,0.5141756236553192,0.5490532517433167,92.18791555621787,142.0353887357067,0.9278048370902355,0.0003061648072133338,-0.03681254527352652,0.03751500382778173,0.06061221049195329,-173.2340428900148,11.988137143839765,42,1762115297.98258
0.5312151908874512,0.13689975440502167,-0.2772771716117859,0.9999412894248962,0.5837849378585815,0.2532767057418823,-0.08785418421030045,0.9997251629829407,0.47854965925216675,0.23883233964443207,-0.0822405219078064,0.9998524785041809,0.5411578416824341,0.5492836833000183,-0.006738021969795227,0.9986879229545593,0.48755091428756714,0.535735547542572,0.006657257676124573,0.9986900091171265,0.5331485867500305,0.711821973323822,0.0035775485448539257,0.8713268041610718,0.482292115688324,0.7048919200897217,0.06624846160411835,0.8678370714187622,0.5221262574195862,0.7705619931221008,0.3479469418525696,0.5709144473075867,0.49527448415756226,0.857372522354126,0.25749850273132324,0.7919158339500427,0.5817111134529114,0.529772162437439,-0.12196608632802963,0.891331672668457,0.4543418884277344,0.5185786485671997,-0.13169178366661072,0.9304245710372925,176.7540493999558,0.5143543779850006,0.5425096154212952,103.37924162449266,147.6350137266093,0.8918111897269129,0.002694286925835687,-0.09862940842478995,0.03599513484776232,-0.9317389205703617,-172.18454172881565,17.138211198690303,43,1762115298.0489256
0.5327340364456177,0.13858594000339508,-0.28067898750305176,0.9999465942382812,0.5837304592132568,0.2535947263240814,-0.09138893336057663,0.99974524974823,0.48009973764419556,0.24010828137397766,-0.08538581430912018,0.9998640418052673,0.5404546856880188,0.542147696018219,-0.0066192857921123505,0.9987911581993103,0.4885369837284088,0.5298532843589783,0.0065450044348835945,0.9988089799880981,0.5334509015083313,0.6970266699790955,0.031201239675283432,0.876311182975769,0.48478665947914124,0.690912663936615,0.06476124376058578,0.8769651055335999,0.5237213373184204,0.7599768042564392,0.36012667417526245,0.5853042602539062,0.49536100029945374,0.8481606245040894,0.24443945288658142,0.8069884777069092,0.5804067850112915,0.5241627097129822,-0.13970813155174255,0.8938421010971069,0.45658689737319946,0.5170108079910278,-0.14992833137512207,0.9328199028968811,176.55248479743102,0.5144958347082138,0.5360004901885986,114.60060317272587,150.82146019643963,0.8850141157333509,0.0017830578512396695,-0.0820473328324568,-0.011486015785107061,0.20901657696536538,-172.5852309862486,41.14252353008547,44,1762115298.1282594
0.5336154699325562,0.13783559203147888,-0.27319446206092834,0.9999505877494812,0.5833100080490112,0.2530161440372467,-0.08932679146528244,0.9997590780258179,0.4819599688053131,0.2396906316280365,-0.08514483273029327,0.999872088432312,0.5396806001663208,0.5337974429130554,-0.00699710613116622,0.9988760352134705,0.48958340287208557,0.5216702222824097,0.006926153786480427,0.9989089965820312,0.5336083173751831,0.684614360332489,0.02408226579427719,0.8810469508171082,0.48609691858291626,0.6775181889533997,0.06866700202226639,0.8840746283531189,0.5237166881561279,0.7532239556312561,0.3476664423942566,0.5975427031517029,0.49527931213378906,0.8273216485977173,0.2593289315700531,0.8194664120674133,0.5780345797538757,0.5162667036056519,-0.13590452075004578,0.8905050754547119,0.4582199156284332,0.5074106454849243,-0.14478497207164764,0.9330717325210571,176.33915171334178,0.5146320015192032,0.5277338325977325,113.65780615397311,149.58519515234735,0.8711083745538118,0.0019330289450882703,-0.11735376841221705,0.0021289950409318537,-0.5012114290382688,-172.5097100763508,50.62453336730775,45,1762115298.1987016
0.5340844392776489,0.13450221717357635,-0.2750617265701294,0.9999533295631409,0.5830923318862915,0.252824604511261,-0.09068812429904938,0.9997681975364685,0.4819595217704773,0.2392667829990387,-0.08927411586046219,0.9998726844787598,0.5395100116729736,0.5270426273345947,-0.006217537447810173,0.9989364147186279,0.4898737370967865,0.5134668350219727,0.006123366765677929,0.9989759922027588,0.532917857170105,0.6798620820045471,0.051334451884031296,0.8894463181495667,0.4857860505580902,0.6703089475631714,0.08506868779659271,0.8920142650604248,0.5237323045730591,0.7560865879058838,0.34953683614730835,0.6298623085021973,0.4939423203468323,0.7986136674880981,0.3127419650554657,0.832960844039917,0.576414942741394,0.5101841688156128,-0.12582002580165863,0.8807148337364197,0.45971035957336426,0.5004057884216309,-0.14211085438728333,0.9244179725646973,176.27882857551708,0.5146918743848801,0.5202547311782837,125.00787897680235,145.9805372083504,0.8839517294857714,0.0009681815728396395,-0.12094173368597183,-0.015602183657873532,-0.058019635819424834,-172.36447678463563,34.58615289599616,46,1762115298.2605422
0.5342290997505188,0.1326528936624527,-0.2761693298816681,0.999955952167511,0.5826454758644104,0.2524174451828003,-0.09087899327278137,0.9997682571411133,0.4820006489753723,0.2386879026889801,-0.10267802327871323,0.9998763799667358,0.5395358800888062,0.5264127850532532,-0.0032927799038589,0.9989869594573975,0.4907446503639221,0.5133705139160156,0.003172461409121752,0.9990410804748535,0.5325252413749695,0.6760031580924988,0.05101575702428818,0.8964754939079285,0.48577848076820374,0.6709921956062317,0.08464697003364563,0.8988122344017029,0.5237470865249634,0.7536711692810059,0.3398827612400055,0.6567816734313965,0.4931491017341614,0.7969025373458862,0.3107847571372986,0.844649076461792,0.5761885046958923,0.5100959539413452,-0.11477819830179214,0.8729920387268066,0.46198034286499023,0.5016856789588928,-0.14963147044181824,0.922828733921051,176.41604917539996,0.5151402652263641,0.5198916494846344,125.03595987540008,146.2899293830907,0.8805958394795422,0.005273231589690675,-0.004269966465534645,0.05062887919146712,1.3721003901318627,-172.231900970995,24.38082175672827,47,1762115298.3455737
0.5341976284980774,0.1317559778690338,-0.2660892605781555,0.9999585151672363,0.5810900926589966,0.24825933575630188,-0.1010507121682167,0.9997795224189758,0.4827268123626709,0.23514598608016968,-0.10675118118524551,0.9998787045478821,0.5395558476448059,0.514228880405426,-0.003361680079251528,0.9990485310554504,0.490695059299469,0.5042464137077332,0.003263493999838829,0.9991006851196289,0.5325344800949097,0.6612791419029236,0.042625341564416885,0.903935968875885,0.48563113808631897,0.6552104353904724,0.08489809930324554,0.9045113325119019,0.5239821672439575,0.7334538102149963,0.32886019349098206,0.6829768419265747,0.49194973707199097,0.7600615620613098,0.3109113276004791,0.8551948666572571,0.5740197896957397,0.5032720565795898,-0.12496592849493027,0.8766632080078125,0.46197304129600525,0.4884730875492096,-0.1526564061641693,0.9236437082290649,176.4104261363351,0.5151254534721375,0.5092376470565796,121.5549498918754,143.15850369319446,0.8498717123182096,-0.00022155927802880896,-0.15936620672684282,-0.08219295830455638,-2.319982528157967,-172.4063606857823,15.013548289278296,48,1762115298.412426
0.5338484048843384,0.13110849261283875,-0.2519962191581726,0.999956488609314,0.5792447924613953,0.24510513246059418,-0.10256870090961456,0.9997811913490295,0.4826792776584625,0.23120906949043274,-0.09865547716617584,0.9998692870140076,0.5395333170890808,0.5069802403450012,-0.006205675192177296,0.9990915060043335,0.4906314015388489,0.49548983573913574,0.006054983474314213,0.9991299510002136,0.53250652551651,0.6462034583091736,0.03995572775602341,0.9097060561180115,0.48549214005470276,0.6378434896469116,0.0961870551109314,0.9077536463737488,0.5240128040313721,0.7268679141998291,0.33197182416915894,0.706156849861145,0.4919735789299011,0.7291780114173889,0.33479318022727966,0.8622414469718933,0.5725031495094299,0.4945812225341797,-0.13105890154838562,0.8714801073074341,0.46159595251083374,0.47716182470321655,-0.1346552073955536,0.9174968600273132,176.54575434142393,0.5150823593139648,0.5012350380420685,123.8182042515057,143.15013783486745,0.8364470241480284,-0.0006585995059137316,-0.12230229261858434,-0.006679199463568946,0.5664404771792081,-171.8111840307369,15.767078231828068,49,1762115298.477859
0.5334667563438416,0.12895303964614868,-0.22873806953430176,0.9999452829360962,0.5768722295761108,0.24188005924224854,-0.09335216879844666,0.9997560977935791,0.48222294449806213,0.22788508236408234,-0.08663805574178696,0.9998388886451721,0.5395436882972717,0.5050323605537415,-0.00467919185757637,0.9991058707237244,0.49073606729507446,0.49203604459762573,0.004467674531042576,0.9991335868835449,0.5325766801834106,0.6348890662193298,0.047466177493333817,0.9132340550422668,0.4854166507720947,0.6256429553031921,0.09440876543521881,0.9096201062202454,0.5239267945289612,0.71406489610672,0.33668696880340576,0.7242515683174133,0.491983026266098,0.7048361301422119,0.3296923041343689,0.8658686280250549,0.5713028311729431,0.48517268896102905,-0.11454297602176666,0.854593813419342,0.46168985962867737,0.4692521393299103,-0.09381888061761856,0.9032769203186035,176.87208202368646,0.5151398777961731,0.4985342025756836,127.21867062394438,142.39929659009087,0.8083259972141837,0.0008494449119570154,-0.039886500075701825,0.022271113711371634,1.2171335708579034,-171.58910761932574,13.816963843351457,50,1762115298.545572
0.5333021879196167,0.12719228863716125,-0.24167974293231964,0.9999257326126099,0.5746382474899292,0.23911219835281372,-0.09195078164339066,0.9997166395187378,0.481877863407135,0.2260449081659317,-0.08988433331251144,0.9997947812080383,0.5395525097846985,0.4971429109573364,-0.0018761291867122054,0.9991118907928467,0.49094158411026,0.48470234870910645,0.0016301816795021296,0.9991083145141602,0.5326011180877686,0.6291622519493103,0.06332427263259888,0.9142359495162964,0.485635370016098,0.6176608204841614,0.09384752064943314,0.9074229598045349,0.5239161252975464,0.7037754654884338,0.3550322949886322,0.7377169132232666,0.4921794831752777,0.6805550456047058,0.35564085841178894,0.8639910221099854,0.5708673000335693,0.47525542974472046,-0.10901433229446411,0.8099831938743591,0.4619227349758148,0.4662576913833618,-0.0806226134300232,0.8734756112098694,177.11684294728815,0.5152470469474792,0.49092262983322144,130.65735543917268,138.13005358773222,0.8223507300058835,0.0016182045309726866,-0.11493122180742106,0.011607914064432642,-1.1331405283311322,-171.98142466369742,12.143480494723995,51,1762115298.6117992
0.5331658124923706,0.12634125351905823,-0.2261381596326828,0.9999217391014099,0.5736228227615356,0.23671600222587585,-0.089820995926857,0.9997029304504395,0.481762558221817,0.22410091757774353,-0.08819828927516937,0.9997783899307251,0.5394136905670166,0.4949784278869629,-0.002026398666203022,0.9991366267204285,0.4911511540412903,0.48305171728134155,0.0017871031304821372,0.9991174936294556,0.5326011776924133,0.6251345276832581,0.06594227999448776,0.9167633056640625,0.485557496547699,0.6155946850776672,0.09746341407299042,0.9076932668685913,0.5238872170448303,0.7015618085861206,0.3421202003955841,0.7526562213897705,0.4926966726779938,0.6767054796218872,0.34393027424812317,0.8655663132667542,0.5705820918083191,0.4779314398765564,-0.09705754369497299,0.7959408164024353,0.4618881642818451,0.4594159424304962,-0.09194979816675186,0.8659161329269409,177.2525416305145,0.5152824223041534,0.4890150725841522,133.0694152052733,139.59626524246542,0.800812685104368,0.0005308852679561767,-0.028627104756588882,-0.01631762426077585,1.295183670605231,-172.180535586501,15.741235471878385,52,1762115298.678434
0.5326104164123535,0.12578701972961426,-0.23945263028144836,0.9999030828475952,0.572493851184845,0.23591348528862,-0.08839647471904755,0.9996721148490906,0.481609046459198,0.2225479781627655,-0.0986630991101265,0.9997574090957642,0.5386618375778198,0.49310633540153503,0.0007634259527549148,0.9991605877876282,0.4914422631263733,0.48119935393333435,-0.0009949648519977927,0.9991133809089661,0.532624363899231,0.6194976568222046,0.08296271413564682,0.9198954701423645,0.48562270402908325,0.6144511699676514,0.09622374922037125,0.9080612659454346,0.5238972902297974,0.6983892321586609,0.3684140145778656,0.7668818235397339,0.4933342933654785,0.6560369729995728,0.3789339065551758,0.8589346408843994,0.5705896615982056,0.4729769825935364,-0.10280120372772217,0.7612432241439819,0.4629950523376465,0.4504382610321045,-0.09970749914646149,0.8505429625511169,177.33632955932504,0.5150520503520966,0.4871528446674347,138.50818262289928,134.34912655460826,0.8249670801080492,-0.003035372098137153,-0.024536644362768197,-0.04698887172316375,0.05389575092402122,-171.63405545965045,23.58640439031289,53,1762115298.7543297
0.5316206812858582,0.12576653063297272,-0.25723883509635925,0.9998767971992493,0.5710436105728149,0.23514114320278168,-0.0913059264421463,0.9996307492256165,0.481523334980011,0.22183452546596527,-0.10915809869766235,0.9997181296348572,0.5384039878845215,0.4887072741985321,0.0020934375934302807,0.9991861581802368,0.4920332431793213,0.4759156405925751,-0.002248655306175351,0.9990831017494202,0.5326645374298096,0.6162093281745911,0.06933528184890747,0.9246810674667358,0.48592501878738403,0.6155589818954468,0.07749256491661072,0.9085465669631958,0.5237652063369751,0.6964088082313538,0.35463351011276245,0.7792511582374573,0.49496451020240784,0.610162079334259,0.41087332367897034,0.8217573761940002,0.5700719952583313,0.464702308177948,-0.10493731498718262,0.7143077850341797,0.46436089277267456,0.44490453600883484,-0.0739256739616394,0.8233009576797485,177.50390255967653,0.5152186155319214,0.4823114573955536,133.53280002097603,118.69837295382895,0.8296756040760684,0.0025428124260678084,-0.07390944330197091,0.08515751574227362,-0.7537335641481872,-171.54525427137182,155.66730679964624,54,1762115298.819834
0.5305805206298828,0.12838412821292877,-0.2597775459289551,0.999850869178772,0.5696331858634949,0.2353190928697586,-0.09133338183164597,0.9996024966239929,0.48150092363357544,0.22211259603500366,-0.10807404667139053,0.9996650815010071,0.5372396111488342,0.4867118299007416,0.0032663526944816113,0.9991932511329651,0.49219268560409546,0.47363248467445374,-0.0033693411387503147,0.9989911317825317,0.5325419306755066,0.6119310259819031,0.07911664992570877,0.9296519160270691,0.486229807138443,0.6109822392463684,0.07765952497720718,0.9103869199752808,0.5236040949821472,0.7021282315254211,0.3189569413661957,0.7954849004745483,0.49527430534362793,0.578639030456543,0.40796390175819397,0.790275514125824,0.570012092590332,0.4619036018848419,-0.10628046840429306,0.6709393858909607,0.46587634086608887,0.4417499005794525,-0.04916542023420334,0.7847195267677307,177.52909098611644,0.5147161483764648,0.48017215728759766,141.83479838711415,114.85246225093383,0.8068556316953868,-0.008504876936549381,-0.03621029544106312,-0.1869957815987261,0.6381046197506729,-171.47771781540416,199.71756937644747,55,1762115298.8789139
0.5293618440628052,0.13619519770145416,-0.24843522906303406,0.9998373985290527,0.5671414732933044,0.23587939143180847,-0.09284086525440216,0.9995997548103333,0.48124662041664124,0.22440460324287415,-0.10703929513692856,0.9996052980422974,0.5368562340736389,0.480516254901886,0.002986521227285266,0.9992194771766663,0.49323439598083496,0.4705958366394043,-0.0031080679036676884,0.998907208442688,0.5325646996498108,0.606494665145874,0.09064942598342896,0.9333353042602539,0.49000605940818787,0.6032910943031311,0.10485026985406876,0.9062315821647644,0.523315966129303,0.7024022340774536,0.274029940366745,0.8105791211128235,0.5005795955657959,0.5646900534629822,0.4119570851325989,0.7535969614982605,0.5691381692886353,0.46003130078315735,-0.12440701574087143,0.6494156122207642,0.4675758481025696,0.44320017099380493,-0.07000918686389923,0.758975625038147,177.8650728969842,0.5150453150272369,0.47555604577064514,152.4405997704805,121.89570316572555,0.7729483616615793,0.004768290029460219,-0.06686873797674266,0.19227436787697139,-0.4441165152021317,-172.39084595003155,13.7906446247813,56,1762115298.9479463
0.5286998748779297,0.1371079385280609,-0.25933319330215454,0.9998268485069275,0.566433310508728,0.23603679239749908,-0.10298942029476166,0.9996016621589661,0.4810939431190491,0.22577951848506927,-0.11124636977910995,0.9995720386505127,0.5368145108222961,0.4757134020328522,0.002616890938952565,0.9992403984069824,0.4938923716545105,0.46659618616104126,-0.0027352729812264442,0.9987989664077759,0.5325623750686646,0.6065618991851807,0.08113491535186768,0.9373680353164673,0.49073362350463867,0.6058152914047241,0.0807889997959137,0.9062054753303528,0.5233202576637268,0.7032282948493958,0.29411178827285767,0.8248094916343689,0.5023211240768433,0.5366877913475037,0.40137815475463867,0.7132410407066345,0.5686184167861938,0.45829540491104126,-0.1439780741930008,0.6227409839630127,0.4689052700996399,0.4453926980495453,-0.0798637866973877,0.7324942946434021,177.99509599729527,0.5153534412384033,0.4711547940969467,145.3907780548216,108.73562605387811,0.7758480973519419,0.004946000145428382,-0.07064829485221798,0.0028525786757817,-0.06066893428180821,-173.1462732257048,7.165583951321891,57,1762115299.0102444
0.5281630754470825,0.14303787052631378,-0.2550213932991028,0.9998319745063782,0.5643630027770996,0.2375253289937973,-0.09951221942901611,0.9996204376220703,0.4810405373573303,0.2299966663122177,-0.1116115003824234,0.9995694160461426,0.5367523431777954,0.4733515977859497,0.004108545370399952,0.9992775917053223,0.49559980630874634,0.46617990732192993,-0.0042099496349692345,0.9987852573394775,0.5339053869247437,0.6036936640739441,0.07795053720474243,0.9413357377052307,0.4954654574394226,0.6042681932449341,0.06507055461406708,0.9082674980163574,0.5232987403869629,0.7042666077613831,0.2513531744480133,0.8389714956283569,0.5069316029548645,0.5593546628952026,0.37112802267074585,0.6881953477859497,0.5687142610549927,0.45784950256347656,-0.13615605235099792,0.6248960494995117,0.4702635705471039,0.4464474022388458,-0.1389063447713852,0.7279123663902283,178.41613548910055,0.5161760747432709,0.4697657525539398,149.60250807784132,108.27961640900389,0.7481455118014535,0.01112199013635045,-0.018779816587693003,0.08349927319370916,0.701260889852078,-174.83701768729844,15.149629873411058,58,1762115299.084209
0.5272980332374573,0.1481173038482666,-0.23773124814033508,0.9998257160186768,0.5620755553245544,0.24184808135032654,-0.08416090905666351,0.9996190667152405,0.4808942377567291,0.23343004286289215,-0.10033078491687775,0.9995642900466919,0.5368325114250183,0.46937891840934753,0.004233867861330509,0.9992812871932983,0.49731868505477905,0.4645334780216217,-0.004310333635658026,0.9987426400184631,0.5344306230545044,0.6004953384399414,0.05755772441625595,0.9449079632759094,0.4993433952331543,0.6031731963157654,0.044327262789011,0.9117306470870972,0.5243615508079529,0.7045127153396606,0.23298318684101105,0.8508610129356384,0.5080761909484863,0.5824629664421082,0.34377968311309814,0.6725805997848511,0.5669393539428711,0.4546334147453308,-0.11869130283594131,0.6049287915229797,0.4722371995449066,0.44734764099121094,-0.1172599196434021,0.7104989886283875,178.89845538670681,0.5170755982398987,0.4669561982154846,142.77067979346444,105.3908949619136,0.7227096734826874,0.01447398203064458,-0.0452077562858217,0.05393596790607693,-0.42524461643490136,-174.0799133313753,6.589517484439785,59,1762115299.1463566
0.5259090662002563,0.15171681344509125,-0.24204130470752716,0.9998295307159424,0.5602936744689941,0.24509933590888977,-0.08885163068771362,0.9996210932731628,0.4802151620388031,0.23608985543251038,-0.11031796038150787,0.9995709657669067,0.5368540287017822,0.4689069986343384,0.002000051084905863,0.9993146061897278,0.49808454513549805,0.4633156359195709,-0.0020858091302216053,0.9987608194351196,0.5344260334968567,0.5971439480781555,0.05420774966478348,0.9486121535301208,0.50278639793396,0.5928361415863037,0.08180965483188629,0.9124499559402466,0.5257903337478638,0.7052170038223267,0.19431357085704803,0.8631885051727295,0.5066850185394287,0.5923655033111572,0.35351553559303284,0.6703402996063232,0.5662630200386047,0.4570986032485962,-0.12354163825511932,0.5865336656570435,0.47292304039001465,0.4470879137516022,-0.14613352715969086,0.7065609693527222,179.29243313969707,0.5174692869186401,0.46611131727695465,149.7588165319565,122.84141329986146,0.7165102805562606,0.004947269077508464,-0.010617154028223028,-0.119716961518982,0.43468107203000617,-173.58075554553295,1.1753892479572932,60,1762115299.2259336
0.5231454372406006,0.1547752022743225,-0.2519071698188782,0.9998180866241455,0.5578745603561401,0.245475634932518,-0.10179735720157623,0.9996053576469421,0.47868552803993225,0.23714019358158112,-0.11095621436834335,0.9995604753494263,0.5363222360610962,0.46605050563812256,-0.003422162728384137,0.9993287324905396,0.49828800559043884,0.46059444546699524,0.0033262851648032665,0.9987384080886841,0.5337823033332825,0.5926283597946167,0.05138957500457764,0.9511570334434509,0.5024037957191467,0.5815756916999817,0.11100567877292633,0.9097046256065369,0.5264047384262085,0.7032685875892639,0.2049594223499298,0.8738809823989868,0.5059714317321777,0.5961257815361023,0.357425332069397,0.6777195334434509,0.5646899938583374,0.45458078384399414,-0.1374197006225586,0.5489722490310669,0.4741264879703522,0.444962739944458,-0.13900184631347656,0.6838701367378235,179.74840102733796,0.5173051208257675,0.4633224755525589,149.1723985742488,135.05367545343552,0.7274553596911458,-0.002229447076079249,-0.03787368584648161,-0.09746293259766928,-0.37015557904169755,-173.99117026779567,0.5115118352770026,61,1762115299.299569
0.5216720700263977,0.1557805836200714,-0.26365432143211365,0.999825656414032,0.5573939085006714,0.2456851601600647,-0.10796167701482773,0.9996199011802673,0.4777684807777405,0.23845060169696808,-0.11571576446294785,0.9995725750923157,0.5358205437660217,0.4646231234073639,-0.004679563455283642,0.9993625283241272,0.4983578622341156,0.4587174355983734,0.004592050798237324,0.9987657070159912,0.5332359075546265,0.5899463295936584,0.049842528998851776,0.9542387127876282,0.5021653175354004,0.577412486076355,0.11265279352664948,0.9098538756370544,0.5263522267341614,0.7016002535820007,0.19933322072029114,0.8842719793319702,0.5062617659568787,0.5990952253341675,0.36058926582336426,0.6861451268196106,0.5644305944442749,0.45537063479423523,-0.14944139122962952,0.5286318063735962,0.474659264087677,0.44484642148017883,-0.1504432111978531,0.6726824641227722,179.8716362048022,0.5170892030000687,0.46167027950286865,150.25790823770248,137.3184395565745,0.7349444454090985,-0.0031101148059494415,-0.023798495468547703,-0.012685278470760945,0.20274128756754148,-174.80850912442727,0.3527792372668431,62,1762115299.3689933
0.5202121734619141,0.15580901503562927,-0.2488122284412384,0.9998288154602051,0.5557329058647156,0.2455284148454666,-0.09730974584817886,0.9996283054351807,0.4770938456058502,0.23847420513629913,-0.1086612120270729,0.9995831847190857,0.5356870293617249,0.45942801237106323,-0.005691055208444595,0.9993786811828613,0.49841398000717163,0.45438152551651,0.005616328213363886,0.9987703561782837,0.5327280163764954,0.5831067562103271,0.04329966381192207,0.956958532333374,0.5013450384140015,0.5670413374900818,0.10813210159540176,0.9101261496543884,0.526461124420166,0.693860650062561,0.1995089054107666,0.8934785723686218,0.5061834454536438,0.6005810499191284,0.3423284888267517,0.6991909146308899,0.5626128315925598,0.45085978507995605,-0.14280091226100922,0.50432950258255,0.47516316175460815,0.4435702860355377,-0.14194998145103455,0.6606521010398865,-179.83013445657264,0.5170505046844482,0.4569047689437866,146.95024538667892,140.45704894316594,0.715276839936986,-0.0005177481762185922,-0.06375818588375647,0.03468350167480589,-0.5346242207972381,-174.87407980527408,0.8907873710978068,63,1762115299.4437368
0.5178205370903015,0.1572566032409668,-0.24911284446716309,0.9998375773429871,0.5528903007507324,0.24352234601974487,-0.09735984355211258,0.9996453523635864,0.47606992721557617,0.23833496868610382,-0.11011943966150284,0.9996004700660706,0.5346983075141907,0.45442306995391846,-0.005244165193289518,0.999406099319458,0.49832049012184143,0.4500119090080261,0.0051690563559532166,0.9987999796867371,0.532232403755188,0.571686863899231,0.037911344319581985,0.9599550366401672,0.5007940530776978,0.5629859566688538,0.10374277830123901,0.9117691516876221,0.5269564986228943,0.6802642941474915,0.18533773720264435,0.9021182060241699,0.5067623853683472,0.6025083661079407,0.3439299762248993,0.708027720451355,0.5587771534919739,0.4482477903366089,-0.14234790205955505,0.49275171756744385,0.4747539162635803,0.44209593534469604,-0.1534765213727951,0.6561083793640137,-179.44973011358988,0.516509398818016,0.4522174894809723,146.57818639970785,140.45420165925242,0.7059165596113413,-0.008049292802474127,-0.06972625355549408,-0.11203650101108,-0.08877879013129536,-176.13690610267594,5.84448580515417,64,1762115299.5109608
0.5143324732780457,0.15679754316806793,-0.24928125739097595,0.9998432397842407,0.549003541469574,0.239034965634346,-0.0997607484459877,0.9996458888053894,0.4753766655921936,0.23639161884784698,-0.10873094946146011,0.999603807926178,0.5337451696395874,0.44429877400398254,-0.006359501276165247,0.9994236826896667,0.49828004837036133,0.4410948157310486,0.00630171736702323,0.9988049864768982,0.5320850610733032,0.5590775012969971,0.02601592242717743,0.962571382522583,0.5004135370254517,0.5526371598243713,0.10469385236501694,0.912120521068573,0.5273717641830444,0.6720265746116638,0.15190598368644714,0.9101130366325378,0.5069862008094788,0.603624165058136,0.33787423372268677,0.7167190909385681,0.5572947263717651,0.4389464557170868,-0.1445896476507187,0.480122834444046,0.47446101903915405,0.4328700602054596,-0.14860939979553223,0.6510686874389648,-178.9316796399517,0.5160126090049744,0.44269679486751556,147.64382423329462,143.7482250889313,0.6896384644951876,-0.007188946889037627,-0.13777208414123363,0.012449895137798567,-0.9846777233741011,-177.9438541756182,4.1072026013656755,65,1762115299.5800655
0.5129019618034363,0.15332895517349243,-0.24686387181282043,0.9998542070388794,0.548211932182312,0.2303684651851654,-0.09989968687295914,0.9996646642684937,0.4751165807247162,0.2328810840845108,-0.10888160765171051,0.99962317943573,0.5332702398300171,0.4349327087402344,-0.006049106828868389,0.9994329214096069,0.4981946349143982,0.4324858784675598,0.00598320085555315,0.9988270998001099,0.5320941805839539,0.5479483008384705,0.03383621945977211,0.9650049209594727,0.5001899003982544,0.5403859615325928,0.10462920367717743,0.9149734377861023,0.5274503231048584,0.6555361747741699,0.1811983287334442,0.9172144532203674,0.5073020458221436,0.6022256016731262,0.30741339921951294,0.7349360585212708,0.5576460361480713,0.4284810721874237,-0.13560867309570312,0.49144017696380615,0.4742487967014313,0.42812398076057434,-0.14568814635276794,0.6557504534721375,-178.84672948510163,0.5157324373722076,0.4337092936038971,145.5621686805018,149.37877837153735,0.6836792881545274,-0.004809541934744528,-0.15428315775256618,0.04084584793400522,-0.28343590725859313,178.0312592618195,3.293689650445414,66,1762115299.6383188
0.5117014646530151,0.15037080645561218,-0.2448979914188385,0.9998580813407898,0.5471786260604858,0.2295132577419281,-0.09603822976350784,0.9996619820594788,0.4750839173793793,0.2313786894083023,-0.10549129545688629,0.9996322393417358,0.5333617329597473,0.4305773973464966,-0.006006588228046894,0.9994419813156128,0.49819692969322205,0.42885810136795044,0.005954571068286896,0.998854398727417,0.5320584177970886,0.5481006503105164,0.031561464071273804,0.9664266109466553,0.5011230707168579,0.5396808385848999,0.103840671479702,0.9162835478782654,0.5280434489250183,0.6546451449394226,0.18799349665641785,0.922943651676178,0.5086091160774231,0.6020294427871704,0.317172110080719,0.7510520815849304,0.5562630295753479,0.42477986216545105,-0.12745071947574615,0.4727768301963806,0.4742906987667084,0.4254538118839264,-0.1395031064748764,0.6453854441642761,-178.66380516973732,0.5157793313264847,0.4297177493572235,141.98281619502413,147.74425280622685,0.6899152067309954,0.000741489482017643,-0.06311449144235844,0.08777317829846656,1.4415633784949469,178.51781745768676,2.676623807134437,67,1762115299.7015617
0.5103224515914917,0.1476423144340515,-0.25453564524650574,0.99985271692276,0.546758770942688,0.2253490686416626,-0.09612517058849335,0.9996594786643982,0.47482365369796753,0.2286413162946701,-0.1034456342458725,0.9996325969696045,0.5331549644470215,0.42592793703079224,-0.005390723701566458,0.999452531337738,0.49756044149398804,0.42433395981788635,0.005370515398681164,0.9988873600959778,0.5317136645317078,0.5443862676620483,0.034547291696071625,0.9673366546630859,0.5009033679962158,0.5402933955192566,0.10325093567371368,0.9184185266494751,0.5283151865005493,0.6420321464538574,0.21277518570423126,0.9273250699043274,0.5084644556045532,0.5999869108200073,0.3255026936531067,0.7668625712394714,0.5549038052558899,0.41855019330978394,-0.11382633447647095,0.4589516222476959,0.4741806089878082,0.41920241713523865,-0.11757117509841919,0.6244908571243286,-178.67972174386793,0.5153577029705048,0.4251309484243393,137.349521074904,145.2072331799138,0.7059579823394387,-0.0066626385508578665,-0.07248136015311235,-0.11700121248408929,-0.1480167538258874,177.37957808742874,2.192998198534747,68,1762115299.7648442
0.5092793703079224,0.14540518820285797,-0.24054746329784393,0.9998416304588318,0.545274019241333,0.2219577133655548,-0.08710644394159317,0.999656081199646,0.47448307275772095,0.22552555799484253,-0.09008076041936874,0.9996152520179749,0.532599687576294,0.4192807972431183,-0.003795494558289647,0.9994454383850098,0.49639421701431274,0.4178254008293152,0.00376698630861938,0.9988915920257568,0.5315039157867432,0.534946084022522,0.03615735471248627,0.9669259190559387,0.5007885098457336,0.53221195936203,0.07446790486574173,0.9200771450996399,0.5287768840789795,0.6256510615348816,0.23872902989387512,0.9294082522392273,0.5082501173019409,0.600071132183075,0.28051069378852844,0.7810574769973755,0.5539930462837219,0.4107077419757843,-0.09490848332643509,0.44143906235694885,0.47413307428359985,0.411416232585907,-0.08570599555969238,0.5936568975448608,-178.6419401221579,0.5144969522953033,0.41855309903621674,133.17755105736117,139.96975745511938,0.6846660856491934,-0.011137143967695265,-0.08510996011265937,-0.05789505886810884,-0.16339985539598254,177.11474947058312,1.950103425367549,69,1762115299.8421307
0.5080721974372864,0.14415782690048218,-0.22312244772911072,0.9998304843902588,0.544070839881897,0.21916213631629944,-0.07915468513965607,0.9996523857116699,0.47418349981307983,0.22230549156665802,-0.0732932835817337,0.9995972514152527,0.531807005405426,0.41464653611183167,-0.004990667570382357,0.9994329214096069,0.49601417779922485,0.4144100546836853,0.004957426805049181,0.9988985657691956,0.5309832692146301,0.5259422063827515,0.039282891899347305,0.9656134843826294,0.5006424188613892,0.5239882469177246,0.07477674633264542,0.9205477833747864,0.528806746006012,0.611351728439331,0.2522674798965454,0.9293813109397888,0.5082740783691406,0.6005377173423767,0.27530261874198914,0.7942017316818237,0.553864598274231,0.40384867787361145,-0.09742908179759979,0.4325549900531769,0.4732871651649475,0.40642639994621277,-0.09572571516036987,0.5759357810020447,-178.58605757209818,0.5139105916023254,0.4145282953977585,133.5435750363427,143.41908331313098,0.6711450152615281,-0.00878009553457952,-0.06026693275450898,0.035294163933950844,0.3719965478329773,177.42471683790657,1.7530886137466408,70,1762115299.9089136
0.5067505836486816,0.14209121465682983,-0.21689791977405548,0.9998314380645752,0.5422516465187073,0.21726678311824799,-0.06788564473390579,0.9996293783187866,0.4738186001777649,0.22142857313156128,-0.0774182602763176,0.9996004104614258,0.5307136178016663,0.41217073798179626,-0.0036891307681798935,0.9993999004364014,0.4957515597343445,0.4131467044353485,0.0036488049663603306,0.9989218711853027,0.5298833250999451,0.5166206955909729,0.049234628677368164,0.9644067287445068,0.4997357428073883,0.5198945999145508,0.07337511330842972,0.9221986532211304,0.5277223587036133,0.5903341770172119,0.2734203636646271,0.9269442558288574,0.5082306265830994,0.6005423069000244,0.2722506523132324,0.806806743144989,0.5521339178085327,0.3975369334220886,-0.08233193308115005,0.4162362813949585,0.4720565378665924,0.4076809287071228,-0.09973184764385223,0.5676677823066711,-178.45988567281518,0.5132325887680054,0.4126587212085724,135.0713629724213,145.24179508906496,0.6674491579623186,-0.009732636975635466,-0.026837479080178105,-0.01367360072962425,0.4798751870003138,176.5198147452204,1.6406354781976278,71,1762115299.9785764
0.5055643916130066,0.14157192409038544,-0.22120912373065948,0.9998396039009094,0.5418874025344849,0.21735140681266785,-0.0755217894911766,0.9996362328529358,0.47348371148109436,0.22103305160999298,-0.0810578316450119,0.9996134042739868,0.5302333831787109,0.41351792216300964,-0.004192059393972158,0.9993945360183716,0.49522528052330017,0.4137035012245178,0.004159816540777683,0.998960554599762,0.5291770100593567,0.5173739790916443,0.04848989471793175,0.9640192985534668,0.4990595877170563,0.5190110802650452,0.07735145837068558,0.9242054224014282,0.5275070071220398,0.5893741250038147,0.2684633135795593,0.9256255030632019,0.5081934928894043,0.5995845198631287,0.27512866258621216,0.8190083503723145,0.5528167486190796,0.39827102422714233,-0.08708438277244568,0.42889487743377686,0.4712093770503998,0.40748146176338196,-0.1099473387002945,0.5746157169342041,-178.51391595478862,0.5127293318510056,0.41361071169376373,135.02009518232475,146.97729564399438,0.6695745619903993,-0.007505591468965125,0.01419801978437731,0.033214235495283025,0.6120048821954835,176.91918126888672,1.351149448368021,72,1762115300.0456274
0.5046569108963013,0.141568124294281,-0.22636175155639648,0.9998474717140198,0.5414584875106812,0.21743062138557434,-0.07806335389614105,0.9996476769447327,0.47326621413230896,0.22112751007080078,-0.08395760506391525,0.9996216893196106,0.5290693044662476,0.4125865399837494,-0.004479914903640747,0.9993927478790283,0.4944242835044861,0.4125825762748718,0.004453022964298725,0.9989975690841675,0.5284789800643921,0.5134263038635254,0.047901105135679245,0.9628552198410034,0.4978562295436859,0.5166143178939819,0.07936090230941772,0.924760639667511,0.5271115303039551,0.5797110795974731,0.27976131439208984,0.9195702075958252,0.5079039931297302,0.5983959436416626,0.2808595299720764,0.8287234306335449,0.5530274510383606,0.39694124460220337,-0.10825558751821518,0.4509432911872864,0.47061142325401306,0.40768861770629883,-0.12258503586053848,0.5843940377235413,-178.70067311125834,0.5117467939853668,0.4125845581293106,133.40258256416575,147.84628372228931,0.6761102039441128,-0.016035325040175255,-0.016747146876057883,-0.13920791768318527,-0.5050347912035844,176.8968775620869,1.009971132566171,73,1762115300.1069007
0.5035250186920166,0.1416555941104889,-0.21804508566856384,0.999849259853363,0.541031539440155,0.2176295816898346,-0.07769391685724258,0.9996463060379028,0.47326645255088806,0.2212035357952118,-0.07723574340343475,0.9996200799942017,0.5282913446426392,0.4117882549762726,-0.004835893865674734,0.99937903881073,0.4935747981071472,0.41158777475357056,0.004808722995221615,0.9990179538726807,0.5276347398757935,0.5121010541915894,0.03679884597659111,0.9615576863288879,0.4965240955352783,0.517730712890625,0.07868481427431107,0.9245426058769226,0.5269083976745605,0.5754032135009766,0.2796894609928131,0.9117662310600281,0.5070343613624573,0.5983595252037048,0.2790994942188263,0.8367522358894348,0.5533080697059631,0.396676629781723,-0.1089155450463295,0.46096307039260864,0.4689537584781647,0.40434104204177856,-0.11590029299259186,0.5901511907577515,-178.87251302732358,0.5109330713748932,0.41168801486492157,127.14702841341703,146.74026491321135,0.667722183748446,-0.012759260090021384,-0.014057897058603622,0.05136905898004494,0.04216773311481345,176.98099787356438,0.7733711244871525,74,1762115300.1706758
0.5029205679893494,0.1460471749305725,-0.2038734406232834,0.9998473525047302,0.5408188700675964,0.2179211527109146,-0.07112480700016022,0.9996414184570312,0.47328513860702515,0.22133135795593262,-0.06319522112607956,0.9996188282966614,0.5273073315620422,0.4143463671207428,-0.005584534723311663,0.99934983253479,0.493203341960907,0.41356146335601807,0.0055592237040400505,0.9990270137786865,0.5260867476463318,0.5143182873725891,0.035118915140628815,0.9606512784957886,0.4947659969329834,0.5196394920349121,0.07635556161403656,0.9255635142326355,0.5249358415603638,0.5794398784637451,0.27358120679855347,0.9061873555183411,0.5055675506591797,0.5992237329483032,0.2708898186683655,0.8447444438934326,0.5532881021499634,0.3957861661911011,-0.10790133476257324,0.47156569361686707,0.46786561608314514,0.4012589454650879,-0.09766874462366104,0.6016870737075806,-179.0556115018278,0.5102553367614746,0.41395391523838043,127.42695840307437,145.91171758603488,0.6506404967944309,-0.010718231315088946,0.03583474100160625,0.03227844365234951,0.7890416470717628,177.1092290728021,0.6637209900449788,75,1762115300.2339077
0.5026434659957886,0.14943580329418182,-0.21064695715904236,0.9998491406440735,0.540523886680603,0.21839110553264618,-0.07413871586322784,0.9996517300605774,0.47381868958473206,0.22141170501708984,-0.0628533586859703,0.9996193647384644,0.5264312028884888,0.4129628837108612,-0.00899284053593874,0.999341607093811,0.4930735230445862,0.41011160612106323,0.008975590579211712,0.9990372657775879,0.5244367718696594,0.5138276219367981,0.03320545703172684,0.9602770209312439,0.49447351694107056,0.5173524022102356,0.07766292989253998,0.9262484312057495,0.520753800868988,0.5870542526245117,0.2703532576560974,0.9042711853981018,0.5048195719718933,0.6002562046051025,0.26865094900131226,0.8524590134620667,0.5522979497909546,0.3949405550956726,-0.11494201421737671,0.4935463070869446,0.46757808327674866,0.3983449339866638,-0.0925547257065773,0.6143731474876404,-179.22835022129075,0.5097523629665375,0.4115372449159622,129.86762249761497,146.0466890422098,0.6541994367469571,-0.006753371683937243,-0.03244835633409202,0.05323571731436327,-0.9168293471354168,177.40725668681358,0.7745063144571687,76,1762115300.3083851
0.5027904510498047,0.15093626081943512,-0.20850332081317902,0.9998542070388794,0.5404675602912903,0.2187381535768509,-0.07570813596248627,0.999666154384613,0.47431954741477966,0.22151915729045868,-0.06272213906049728,0.9996278882026672,0.5262738466262817,0.4117880165576935,-0.008935331366956234,0.9993377923965454,0.4931049942970276,0.40846511721611023,0.008915597572922707,0.9990589022636414,0.5240004658699036,0.513976514339447,0.03448342904448509,0.9608330130577087,0.49452194571495056,0.5162185430526733,0.07281582057476044,0.928702175617218,0.5193966627120972,0.5903200507164001,0.25917595624923706,0.9058231115341187,0.5043824911117554,0.6011242866516113,0.2579512894153595,0.8609936833381653,0.5522583723068237,0.3935450315475464,-0.11485322564840317,0.5206927061080933,0.46737760305404663,0.39703452587127686,-0.08982657641172409,0.633284330368042,-179.30769204702946,0.5096894204616547,0.41012656688690186,131.79447327790083,145.2554991690185,0.6450339741228306,-0.0005902131921591071,-0.013227957549363286,0.057792066807436246,0.1802300836680473,177.59258081624287,0.8731618718992257,77,1762115300.4150288
0.5027600526809692,0.15418557822704315,-0.2355666607618332,0.9998568296432495,0.540726363658905,0.2189500331878662,-0.10518454015254974,0.9996776580810547,0.4756805896759033,0.22255119681358337,-0.07894141972064972,0.9996344447135925,0.525849461555481,0.40949466824531555,-0.00977150909602642,0.9993021488189697,0.4931375980377197,0.40544140338897705,0.009749234654009342,0.9990686774253845,0.5228001475334167,0.5119081139564514,0.047545917332172394,0.9590106010437012,0.4945497512817383,0.5126170516014099,0.0745493620634079,0.929598331451416,0.5181120038032532,0.5832267999649048,0.26147782802581787,0.9022747278213501,0.5044122338294983,0.6018097400665283,0.25594645738601685,0.8673402667045593,0.552643895149231,0.3948762118816376,-0.13850916922092438,0.5523852705955505,0.46726757287979126,0.39615994691848755,-0.09208393096923828,0.6495989561080933,-179.60414286340634,0.5094935297966003,0.4074680358171463,137.6799420261264,147.28409032249067,0.6606961248386327,-0.0025272448763022635,-0.03429851556564454,-0.024990233187622467,-0.2718376588935967,176.8311384269325,0.49844230629214725,78,1762115300.4925404
0.5029969811439514,0.15855297446250916,-0.22981226444244385,0.999861478805542,0.5407491326332092,0.22416742146015167,-0.09958288073539734,0.9996860027313232,0.47694796323776245,0.22614404559135437,-0.07213731855154037,0.9996379613876343,0.5246422290802002,0.41011857986450195,-0.010203042067587376,0.9992691874504089,0.49304333329200745,0.40620264410972595,0.010186253115534782,0.9990876317024231,0.5215897560119629,0.5095256567001343,0.0534425750374794,0.957169234752655,0.4945867657661438,0.5108153223991394,0.07108323276042938,0.9316393136978149,0.5164362192153931,0.5780062079429626,0.2607456147670746,0.8992928266525269,0.5043137669563293,0.6028265953063965,0.2323932945728302,0.874214231967926,0.5527079701423645,0.39535242319107056,-0.1360296756029129,0.5775113701820374,0.46729564666748047,0.39590322971343994,-0.08917655795812607,0.6591652035713196,179.99819452681388,0.5088427811861038,0.40816061198711395,140.919467286866,149.83345097585544,0.6430396543642952,-0.009984918933551851,0.010626710224030202,-0.11442862834186254,0.6893210839730459,178.22548695707653,0.0025207274654199274,79,1762115300.5577135
0.503710150718689,0.15999002754688263,-0.23626971244812012,0.9998658299446106,0.5414230823516846,0.227477565407753,-0.11434093862771988,0.9997007846832275,0.47928690910339355,0.227692112326622,-0.07631552219390869,0.9996451139450073,0.5244636535644531,0.4085356295108795,-0.012604368850588799,0.9992620944976807,0.4931231141090393,0.40403568744659424,0.01260443963110447,0.9991347193717957,0.5195525884628296,0.5075874328613281,0.06356439739465714,0.9548757672309875,0.4947364926338196,0.5064781308174133,0.06589671969413757,0.9331651329994202,0.5156677961349487,0.5695653557777405,0.2708105444908142,0.8942919969558716,0.5044301748275757,0.603217601776123,0.21087110042572021,0.8804388046264648,0.5523892641067505,0.39438340067863464,-0.1653771549463272,0.608241617679596,0.46794623136520386,0.3968513011932373,-0.09860550612211227,0.6684685349464417,179.49932242431606,0.5087933838367462,0.4062856584787369,144.20110964107116,151.1150977304232,0.6399162765205291,-0.0007793193333258105,-0.029580281880860763,0.1452325243481514,-0.634327280506109,179.80216702341306,0.5374777105873214,80,1762115300.6210988
0.5043867230415344,0.16379402577877045,-0.25712940096855164,0.9998634457588196,0.5425337553024292,0.23158250749111176,-0.13154156506061554,0.9996858835220337,0.4808174967765808,0.22969302535057068,-0.09582732617855072,0.9996544122695923,0.5246177911758423,0.4074251353740692,-0.013116459362208843,0.9992121458053589,0.4932253956794739,0.40225327014923096,0.013118041679263115,0.9991618990898132,0.5187350511550903,0.5081786513328552,0.06146779656410217,0.9517936110496521,0.4949820041656494,0.5058708190917969,0.06709326803684235,0.9341057538986206,0.514599084854126,0.5685247182846069,0.2675009071826935,0.8903732895851135,0.5048073530197144,0.603496789932251,0.21903464198112488,0.8861775994300842,0.5514177083969116,0.39470112323760986,-0.1700764000415802,0.6155835390090942,0.46991807222366333,0.3975835144519806,-0.11463570594787598,0.672265887260437,179.09425947204093,0.5089215934276581,0.4048392027616501,142.822015548272,150.16743452305707,0.6547461829662583,0.0020272944902075363,-0.022871859154398596,0.044379150577750506,0.10607590535632193,-178.24640136527154,0.9677903694407487,81,1762115300.6843405
0.5049363374710083,0.16502998769283295,-0.2590702176094055,0.9998608231544495,0.5431714653968811,0.2338694930076599,-0.13515311479568481,0.9996762275695801,0.48116016387939453,0.231040820479393,-0.09573806822299957,0.9996673464775085,0.5243626832962036,0.4076254665851593,-0.016118284314870834,0.9992032647132874,0.4932240843772888,0.4022352993488312,0.016143184155225754,0.9992133378982544,0.5169900059700012,0.5073384046554565,0.0576409175992012,0.9508243799209595,0.4950233995914459,0.504413902759552,0.05489586666226387,0.9354733824729919,0.5152145028114319,0.5656473636627197,0.27440619468688965,0.8833851218223572,0.5053069591522217,0.6035588383674622,0.19301897287368774,0.8926777839660645,0.5508140325546265,0.395209938287735,-0.17421169579029083,0.6171371340751648,0.4708564877510071,0.3976578116416931,-0.11818166822195053,0.6664225459098816,178.87983082295312,0.5087933838367462,0.40493038296699524,141.4581963025896,146.369985686479,0.6472285809006468,-0.0016053436823643555,0.0011416896783342041,-0.045485152079322265,0.30067952510881857,-177.3882385476503,0.7925754288813466,82,1762115300.7642047
0.5059998631477356,0.1665773093700409,-0.2652145028114319,0.9998639822006226,0.543447732925415,0.23467198014259338,-0.14111989736557007,0.9996792078018188,0.48173218965530396,0.23144224286079407,-0.1025225967168808,0.9996733665466309,0.5242040157318115,0.40477120876312256,-0.017565686255693436,0.9991715550422668,0.49322906136512756,0.39998674392700195,0.017595481127500534,0.9992261528968811,0.5161297917366028,0.5041494369506836,0.04508616775274277,0.9512526988983154,0.4950835704803467,0.50089430809021,0.060372669249773026,0.9348365068435669,0.5152560472488403,0.5653064250946045,0.2410600632429123,0.8829852938652039,0.5053562521934509,0.602364182472229,0.21234703063964844,0.8979470729827881,0.5505273342132568,0.3953663408756256,-0.18824085593223572,0.6353099942207336,0.47190847992897034,0.39736297726631165,-0.13050290942192078,0.6709452271461487,178.68952497980683,0.5087165385484695,0.40237897634506226,139.42468835501694,146.64824378578197,0.6450629005596563,-0.0012084619047440508,-0.040123184846632895,0.006241326172327388,-0.648927604877031,-177.00429341316794,0.8240503364810257,83,1762115300.827794
0.5075147151947021,0.16625767946243286,-0.2552528977394104,0.9998528957366943,0.5437224507331848,0.23420456051826477,-0.12944287061691284,0.9996556043624878,0.4828674793243408,0.23130172491073608,-0.10194530338048935,0.9996592998504639,0.5239811539649963,0.40033483505249023,-0.016757197678089142,0.9990962147712708,0.4931945204734802,0.39429736137390137,0.01674913614988327,0.9991774559020996,0.516041100025177,0.5007377862930298,0.03179396688938141,0.9508247375488281,0.49510878324508667,0.4962630271911621,0.06004942208528519,0.9353033900260925,0.5151926279067993,0.5655683279037476,0.21165165305137634,0.8859773278236389,0.5047995448112488,0.5952375531196594,0.21740803122520447,0.9022630453109741,0.5473967790603638,0.392943412065506,-0.16227999329566956,0.6221350431442261,0.4740263819694519,0.39388906955718994,-0.12609444558620453,0.6595444083213806,178.3615690507554,0.5085878372192383,0.3973160982131958,135.503417137252,145.13991646017854,0.6262733246270539,-0.0020361523721870592,-0.08009856137359778,-0.013094689221836946,-0.6324406921873417,-177.26901105817615,1.0644445406982277,84,1762115300.8910022
0.5088109970092773,0.1663266122341156,-0.25950750708580017,0.9998527765274048,0.543806254863739,0.23377850651741028,-0.1276366412639618,0.9996551871299744,0.48345476388931274,0.23043130338191986,-0.10988593101501465,0.999657392501831,0.5240635871887207,0.39739376306533813,-0.013652192428708076,0.9990706443786621,0.493264377117157,0.39167898893356323,0.013631084933876991,0.9991546869277954,0.5165022611618042,0.4962451159954071,0.034250594675540924,0.9499645233154297,0.4952339231967926,0.49367383122444153,0.06206353381276131,0.9350168704986572,0.5152540802955627,0.5602609515190125,0.2241138517856598,0.8874174356460571,0.5042031407356262,0.5885099768638611,0.21894359588623047,0.9053198099136353,0.5467489957809448,0.392006516456604,-0.15860947966575623,0.6151341795921326,0.47509080171585083,0.39066627621650696,-0.13113504648208618,0.6496831774711609,178.2486619256341,0.5086639821529388,0.3945363759994507,134.38497172589115,146.52194908207773,0.6308000666888619,0.00105732304840098,-0.038598291730119846,0.04295496368428158,0.5762588458144675,-176.82552440714448,1.2861591713561211,85,1762115300.963019
0.509608805179596,0.16580969095230103,-0.24909551441669464,0.9998510479927063,0.5436652898788452,0.2309826761484146,-0.11002900451421738,0.9996552467346191,0.48382478952407837,0.22788463532924652,-0.10440238565206528,0.9996666312217712,0.5241109132766724,0.3910852074623108,-0.007583505008369684,0.9990738034248352,0.49362078309059143,0.38628408312797546,0.007543549872934818,0.9991580843925476,0.5167596936225891,0.48822420835494995,0.036963991820812225,0.949406623840332,0.4955317974090576,0.49003028869628906,0.06149167940020561,0.9341882467269897,0.515360414981842,0.5539947748184204,0.2335435450077057,0.88905930519104,0.5022302269935608,0.5826212763786316,0.22990067303180695,0.9069721102714539,0.5429441332817078,0.3848353624343872,-0.13165505230426788,0.6048250198364258,0.4760292172431946,0.38654977083206177,-0.12594106793403625,0.6517229676246643,178.24509940517746,0.5088658481836319,0.3886846452951431,133.04116424002262,146.26778184459653,0.6270495659488106,0.003118370556431297,-0.09039591589445926,0.03183849131219372,-0.8001553581482692,-177.0363494881039,1.8408045986982473,86,1762115301.0277534
0.5098135471343994,0.16529837250709534,-0.25267961621284485,0.9998490810394287,0.5436528921127319,0.2301819920539856,-0.11101894080638885,0.9996587038040161,0.48407691717147827,0.22680504620075226,-0.10863646119832993,0.9996751546859741,0.5241532325744629,0.38839781284332275,-0.005346884019672871,0.9990663528442383,0.4936729073524475,0.3845016360282898,0.005318348295986652,0.9991660118103027,0.5168532729148865,0.48694583773612976,0.03817997872829437,0.9481678605079651,0.4960615634918213,0.48706698417663574,0.048042185604572296,0.9334195256233215,0.5154621601104736,0.551826536655426,0.23700681328773499,0.8891400694847107,0.5015311241149902,0.5798928737640381,0.2173040211200714,0.9083988070487976,0.5434171557426453,0.3813648223876953,-0.1374857872724533,0.6081928610801697,0.4767271876335144,0.38360708951950073,-0.1310814619064331,0.6529828906059265,178.20439888975494,0.5089130699634552,0.3864497244358063,131.81623017334388,141.36256927147497,0.6250542174798921,0.0006933529137888181,-0.03281513097784421,-0.03560630401494761,0.8454532029409126,-176.7557740526172,2.4271035428456647,87,1762115301.0958598
0.5099613666534424,0.162011057138443,-0.2517773509025574,0.9998496770858765,0.5435197949409485,0.22600606083869934,-0.10838542878627777,0.9996696710586548,0.48423638939857483,0.22423727810382843,-0.10672136396169662,0.9996876120567322,0.5241103768348694,0.38310715556144714,-0.0027565425261855125,0.9990973472595215,0.49373823404312134,0.3804037868976593,0.0027337477076798677,0.9992037415504456,0.5171087384223938,0.4802858233451843,0.03855215758085251,0.948085606098175,0.49643468856811523,0.48146164417266846,0.04271341860294342,0.9341204166412354,0.5155035257339478,0.5428926944732666,0.2583334147930145,0.8883726000785828,0.500296950340271,0.570942759513855,0.21454794704914093,0.9101771116256714,0.5422019362449646,0.37883225083351135,-0.13436922430992126,0.6172993779182434,0.47662776708602905,0.3791869580745697,-0.13103243708610535,0.660681962966919,178.18853598066227,0.5089243054389954,0.3817554712295532,128.8593066694309,139.0987684755538,0.6279429693411465,0.00019269221175902945,-0.08050803276074271,-0.008586500648780266,-0.8179494225147032,-178.29102716066848,4.385727398743717,88,1762115301.1541677
0.5100380182266235,0.15781964361667633,-0.25147581100463867,0.9998536705970764,0.5434980392456055,0.22151805460453033,-0.10812114179134369,0.9996802806854248,0.48448652029037476,0.2201382964849472,-0.10822796821594238,0.9997040033340454,0.5240993499755859,0.37740659713745117,-0.001345026190392673,0.9991270303726196,0.4939061105251312,0.37558823823928833,0.0013168109580874443,0.9992347955703735,0.5172179341316223,0.4743942320346832,0.03877738490700722,0.9490320086479187,0.49643880128860474,0.4766847789287567,0.045042846351861954,0.9364120364189148,0.515370786190033,0.5411264896392822,0.256152868270874,0.8915837407112122,0.4991115927696228,0.5637058019638062,0.21844175457954407,0.9135892987251282,0.5418703556060791,0.37354451417922974,-0.127963587641716,0.6230190992355347,0.4769015908241272,0.37481948733329773,-0.12970693409442902,0.6685834527015686,178.16416983819292,0.5090027302503586,0.37649741768836975,129.4748402160566,140.03982076966105,0.6281826064110612,0.0011349521262831019,-0.07609376347796083,0.01363624438377633,0.06388264404329913,-178.66060190709453,12.057242713633977,89,1762115301.2232673
0.5100449919700623,0.15593291819095612,-0.22606894373893738,0.9998595714569092,0.543414294719696,0.21987058222293854,-0.09803640842437744,0.9996991753578186,0.48449134826660156,0.21848034858703613,-0.09221513569355011,0.9997170567512512,0.524070143699646,0.37775683403015137,-0.0024591886904090643,0.9991697669029236,0.4939008355140686,0.37580978870391846,0.0024347975850105286,0.9992618560791016,0.5173373818397522,0.470819890499115,0.03595899045467377,0.9505718946456909,0.4957665503025055,0.47097286581993103,0.04504653066396713,0.9387137293815613,0.5150046944618225,0.5408937931060791,0.22541920840740204,0.8974254131317139,0.4981154501438141,0.5555297136306763,0.21382904052734375,0.9172338247299194,0.5414893627166748,0.37277090549468994,-0.11729879677295685,0.6390519142150879,0.47755056619644165,0.373372346162796,-0.11267288774251938,0.6745142340660095,178.194804508242,0.5089854896068573,0.3767833113670349,132.66528384726078,140.73163889664147,0.5937483812528642,-0.00029062991081655704,0.004819382427767038,-0.0240313988438516,1.3639734721456598,-178.6484086612319,545.4870967147352,90,1762115301.282589
0.5103069543838501,0.15554015338420868,-0.22129300236701965,0.9998655319213867,0.5427762866020203,0.21909835934638977,-0.09401553869247437,0.9997150897979736,0.4844672679901123,0.21761566400527954,-0.08974915742874146,0.9997323155403137,0.5239688754081726,0.3763887286186218,-0.0029241167940199375,0.9992083311080933,0.49387702345848083,0.37466201186180115,0.00289781391620636,0.9992887377738953,0.517597496509552,0.46843189001083374,0.034708522260189056,0.9525647163391113,0.4950494170188904,0.4681124687194824,0.047878678888082504,0.9413661360740662,0.5146667957305908,0.538372278213501,0.22141003608703613,0.9029207229614258,0.4967783987522125,0.5501657128334045,0.21685223281383514,0.9209117293357849,0.5409389734268188,0.371194452047348,-0.11153850704431534,0.6532859802246094,0.4774371087551117,0.3727211356163025,-0.110421322286129,0.6887246966362,178.28755076042737,0.5089229494333267,0.3755253702402115,132.73062777831274,141.60241408061646,0.5874559977842829,-0.0010044014657512742,-0.020202660790387614,-0.011463242832824343,-0.40185652622338897,-178.5433834322094,7.807183710788624,91,1762115301.344855
0.510551393032074,0.15528185665607452,-0.22180287539958954,0.9998713731765747,0.5424002408981323,0.21891473233699799,-0.09302330762147903,0.9997273087501526,0.48445767164230347,0.21714510023593903,-0.0893288180232048,0.9997466802597046,0.5239236354827881,0.3752009868621826,-0.0031693181954324245,0.999236524105072,0.49387750029563904,0.373168021440506,0.0031443920452147722,0.9993113875389099,0.5176635980606079,0.4672827124595642,0.03249182924628258,0.9546841382980347,0.4943961501121521,0.46613994240760803,0.047524720430374146,0.9442305564880371,0.5141735672950745,0.5371016263961792,0.2196377068758011,0.9084185361862183,0.4963149130344391,0.5503246784210205,0.21398036181926727,0.9249163866043091,0.5402960777282715,0.3698163628578186,-0.11129839718341827,0.6614329218864441,0.4773337244987488,0.372161328792572,-0.10984964668750763,0.7006546258926392,178.33892266058706,0.5089005678892136,0.3741845041513443,131.60177090782634,142.34164088782967,0.5859073687568385,-0.0003538807191082394,-0.021200800684577775,0.010285561552543482,-0.015781863027,-178.25066536342774,5.756665529576885,92,1762115301.408101
0.5107840299606323,0.15545125305652618,-0.21715867519378662,0.9998733401298523,0.5420210361480713,0.219421848654747,-0.089243084192276,0.9997287392616272,0.484413206577301,0.21705316007137299,-0.08721817284822464,0.9997556805610657,0.5238321423530579,0.3771868348121643,-0.0032713827677071095,0.9992462396621704,0.4938351511955261,0.37382811307907104,0.0032520603854209185,0.9993153214454651,0.5177949070930481,0.4641192853450775,0.043690137565135956,0.9561740756034851,0.4936293065547943,0.4602746367454529,0.053466975688934326,0.9467014670372009,0.513442873954773,0.5363262891769409,0.21466794610023499,0.9132864475250244,0.49564552307128906,0.5450702905654907,0.2153596132993698,0.9280910491943359,0.5403558611869812,0.3675413727760315,-0.11029182374477386,0.6576250195503235,0.4772593080997467,0.3709658682346344,-0.10771600157022476,0.7067905068397522,178.4034486254992,0.508833646774292,0.3755074739456177,141.2478948083472,147.78274805012438,0.5789881221922817,-0.0008305985784206383,0.01642018115963472,-0.005916834719754248,0.466936841611403,-177.64546842370072,3.750058535434547,93,1762115301.4886708
0.5109846591949463,0.1561129093170166,-0.21272185444831848,0.9998766779899597,0.5413769483566284,0.2197437882423401,-0.083277128636837,0.9997361302375793,0.4843691885471344,0.21734577417373657,-0.08573421835899353,0.9997652173042297,0.5236176252365112,0.3784889280796051,-0.003230571048334241,0.9992722272872925,0.49370622634887695,0.37486037611961365,0.0032126891892403364,0.9993300437927246,0.5180420279502869,0.46399858593940735,0.042965590953826904,0.9576433897018433,0.4931546747684479,0.4601663053035736,0.05278158187866211,0.9487359523773193,0.5134763121604919,0.536811888217926,0.21765048801898956,0.9176019430160522,0.49588513374328613,0.5386978387832642,0.21630389988422394,0.9308119416236877,0.540683388710022,0.36679741740226746,-0.1018313318490982,0.6584957242012024,0.47723379731178284,0.37149578332901,-0.108842633664608,0.7168963551521301,178.47452170168418,0.5086619257926941,0.3766746520996094,140.99279989426208,145.78815079205924,0.574744806849978,-0.002382559104997999,0.016194124399191535,-0.02153282405438794,-0.0031364460407140513,-177.59129048836084,4.584163329704828,94,1762115301.560745
0.5109477639198303,0.15658193826675415,-0.20905952155590057,0.9998767375946045,0.5407414436340332,0.22036874294281006,-0.08484840393066406,0.9997379183769226,0.48435744643211365,0.2175973504781723,-0.08288878202438354,0.9997709393501282,0.5232908725738525,0.37927740812301636,-0.004064122214913368,0.9992894530296326,0.4936092793941498,0.3753418028354645,0.004045373294502497,0.999336302280426,0.5181289911270142,0.46293771266937256,0.042632076889276505,0.9590024352073669,0.49243950843811035,0.4587169289588928,0.054421015083789825,0.9506738781929016,0.5135170221328735,0.5358648300170898,0.21840496361255646,0.9218412041664124,0.49552375078201294,0.5322719812393188,0.2217906415462494,0.9331552386283875,0.5406792759895325,0.36701977252960205,-0.10522304475307465,0.6517897248268127,0.47659796476364136,0.37045538425445557,-0.10723038017749786,0.7233120799064636,178.51683708699474,0.5084500759840012,0.3773096054792404,141.69215888980594,144.82277467425757,0.5715884472949442,-0.003227111275754241,0.009672254242889778,-0.012865075734671263,-0.09934774475493142,-177.18605614940483,5.359609899499852,95,1762115301.626392
0.5106413960456848,0.1565411537885666,-0.20848456025123596,0.9998636245727539,0.539513349533081,0.22050994634628296,-0.08604239672422409,0.9997228384017944,0.48392051458358765,0.21772810816764832,-0.08196945488452911,0.9997599720954895,0.5230668783187866,0.3797496259212494,-0.004869895987212658,0.9992965459823608,0.493459552526474,0.3754095733165741,0.0048562162555754185,0.9993261694908142,0.5182160139083862,0.46202436089515686,0.04223060980439186,0.9600805640220642,0.49171051383018494,0.45813512802124023,0.059616923332214355,0.9521496295928955,0.513528048992157,0.535085916519165,0.22039631009101868,0.9255535006523132,0.4953994154930115,0.5278533101081848,0.2337980568408966,0.9348711967468262,0.5403594970703125,0.36572006344795227,-0.10726193338632584,0.6310927271842957,0.4760633111000061,0.3711242377758026,-0.10693876445293427,0.7132856249809265,178.75141141668504,0.5082632154226303,0.37757959961891174,142.08164996269343,145.24905838998433,0.5747529632386821,-0.0026263848210874826,0.0037948537937228144,0.008443402024417767,-0.08260873891152155,-177.13533671028836,6.900096720091415,96,1762115301.6975393
0.510456919670105,0.15654334425926208,-0.207923024892807,0.9998569488525391,0.53888338804245,0.22053584456443787,-0.08648808300495148,0.9997148513793945,0.4836331307888031,0.21782271564006805,-0.08249882608652115,0.9997542500495911,0.5229552388191223,0.37992626428604126,-0.00519894203171134,0.9993036985397339,0.4933609962463379,0.3753131031990051,0.005185902118682861,0.9993188381195068,0.5182632207870483,0.4619538486003876,0.04195030406117439,0.9612880945205688,0.4912109971046448,0.45905977487564087,0.05998768284916878,0.9537302255630493,0.5136060118675232,0.5350276827812195,0.21669912338256836,0.9291905164718628,0.49542108178138733,0.5273429155349731,0.23217125236988068,0.9367617964744568,0.5403603315353394,0.3658508360385895,-0.10619810968637466,0.6185561418533325,0.47566771507263184,0.37157538533210754,-0.10714113712310791,0.7079269289970398,178.87905875739764,0.5081581175327301,0.3776196837425232,142.57925864434753,144.7390683726747,0.5721237123210623,-0.0015090117075174587,0.0005755340271121457,0.01604341544481448,-0.04622348957405927,-177.18868159907905,13.80527518928479,97,1762115301.7692025
0.5104001760482788,0.15649081766605377,-0.2159009873867035,0.9998513460159302,0.5385154485702515,0.22069434821605682,-0.09003572165966034,0.9997180700302124,0.4831411838531494,0.21795573830604553,-0.08764861524105072,0.9997463226318359,0.5229507684707642,0.378963440656662,-0.005229541566222906,0.9993226528167725,0.49332195520401,0.37395328283309937,0.005218804813921452,0.9993118047714233,0.5183784365653992,0.461288183927536,0.042378980666399,0.9628947973251343,0.49074825644493103,0.45938199758529663,0.07184994220733643,0.9552080035209656,0.5138763189315796,0.5337571501731873,0.21861064434051514,0.9328970313072205,0.49522924423217773,0.5218042135238647,0.25470584630966187,0.9386669397354126,0.5404461622238159,0.36663439869880676,-0.10778076946735382,0.6170992851257324,0.4754534661769867,0.3705170154571533,-0.11291711032390594,0.7010492086410522,179.01852427495217,0.5081363618373871,0.3764583617448807,142.38987406915163,146.6915719700334,0.5854060252332309,-0.00029305029224741474,-0.01564306474404265,0.016379060401801034,-0.218465327574827,-177.1686658640436,232.7688915559145,98,1762115301.841425
0.5100593566894531,0.15567925572395325,-0.23048663139343262,0.9998527765274048,0.538145124912262,0.22010546922683716,-0.09951326996088028,0.9997336268424988,0.4829366207122803,0.21727335453033447,-0.09545200318098068,0.9997464418411255,0.5229862928390503,0.3763138949871063,-0.006238990463316441,0.9993602633476257,0.493316113948822,0.37156233191490173,0.0062236241064965725,0.9993247389793396,0.5186051726341248,0.4605158567428589,0.0445379912853241,0.9647102952003479,0.49055537581443787,0.4595737159252167,0.08652684092521667,0.9561114311218262,0.5144545435905457,0.5325623154640198,0.22469516098499298,0.9367642402648926,0.49522367119789124,0.5166718363761902,0.27765196561813354,0.9401816725730896,0.5413552522659302,0.366261750459671,-0.11620630323886871,0.6279221177101135,0.47501692175865173,0.3682709038257599,-0.1200847178697586,0.7011681795120239,179.11814296070634,0.5081512033939362,0.37393811345100403,142.88255858655853,148.89544145230363,0.606744517344338,0.00021430341921535687,-0.03639091525633787,0.0073258916447594595,-0.2995868587942615,-177.06338529679567,9.196937476893876,99,1762115301.9106798
0.5095681548118591,0.1553189605474472,-0.23083189129829407,0.9998582005500793,0.5377961993217468,0.21905691921710968,-0.10388298332691193,0.9997487664222717,0.4826613962650299,0.21648241579532623,-0.09655378758907318,0.9997469186782837,0.5229915380477905,0.3738369047641754,-0.006980299949645996,0.9993916749954224,0.49323296546936035,0.36972808837890625,0.006957097444683313,0.9993356466293335,0.518725574016571,0.45828983187675476,0.04543331637978554,0.9664241075515747,0.49092206358909607,0.4549877941608429,0.08242465555667877,0.9574591517448425,0.5151531100273132,0.5326051712036133,0.21991264820098877,0.9406374096870422,0.49542537331581116,0.5186616778373718,0.26065123081207275,0.9424081444740295,0.5424806475639343,0.3661036193370819,-0.11997834593057632,0.6409645676612854,0.4747845530509949,0.3653624355792999,-0.11873527616262436,0.7006114721298218,179.21265311328807,0.5081122517585754,0.37178249657154083,144.88194612899923,151.06071736517873,0.5992489907383267,-0.0005222451667348609,-0.02890149505165712,-0.009875296262036308,0.10041461590301917,-177.32653236165373,4.537826459028796,100,1762115301.9852648
0.5094074010848999,0.15536165237426758,-0.23715808987617493,0.9998593926429749,0.5371883511543274,0.21829800307750702,-0.10762035846710205,0.9997562170028687,0.4823339879512787,0.21650943160057068,-0.10571682453155518,0.9997451901435852,0.5232540369033813,0.37134429812431335,-0.006997825112193823,0.9994120001792908,0.49328702688217163,0.3685312867164612,0.006974694784730673,0.9993375539779663,0.5198444128036499,0.4564705789089203,0.04595869034528732,0.9677630066871643,0.4933421015739441,0.4517466723918915,0.08315446972846985,0.9580247402191162,0.5171980261802673,0.53282231092453,0.21197333931922913,0.9439314007759094,0.4977477192878723,0.5206395983695984,0.2605108320713043,0.9440486431121826,0.5435575842857361,0.36393821239471436,-0.12294803559780121,0.6465353965759277,0.47480830550193787,0.36613374948501587,-0.12720641493797302,0.7010698318481445,179.440095414933,0.5082705318927765,0.36993779242038727,146.57083009226454,153.66597807956228,0.601686485889118,0.002091517990756522,-0.024375970738438564,0.03453833732871287,0.05980040114623483,-178.1324857648695,1.6927224008573794,101,1762115302.060942
0.5093127489089966,0.1553492248058319,-0.24141912162303925,0.9998612999916077,0.5370232462882996,0.21824294328689575,-0.11095436662435532,0.9997590184211731,0.48205336928367615,0.21658430993556976,-0.11117064952850342,0.9997434020042419,0.5233545303344727,0.3699774742126465,-0.0069722579792141914,0.9994281530380249,0.49333158135414124,0.3675658404827118,0.006949861999601126,0.9993376135826111,0.5204486846923828,0.4545555114746094,0.04367667809128761,0.9691573977470398,0.4942350387573242,0.44977208971977234,0.08515306562185287,0.9585099220275879,0.5178180932998657,0.5331640243530273,0.19538713991641998,0.9472971558570862,0.49882134795188904,0.5216329097747803,0.26322922110557556,0.9457284212112427,0.5445276498794556,0.36194828152656555,-0.12857651710510254,0.6530892848968506,0.4749107360839844,0.3663976490497589,-0.13287505507469177,0.703856348991394,179.54755312357057,0.508343055844307,0.36877165734767914,148.29851117053113,155.5271371295253,0.6000048481007179,0.0011069655814901344,-0.01779924234153584,-0.01502766475394531,0.10038355357847216,-178.2717104131274,1.2210666322088926,102,1762115302.126458
0.5079424381256104,0.15686887502670288,-0.24156370759010315,0.9998540878295898,0.536040186882019,0.2194172739982605,-0.11934298276901245,0.9997498989105225,0.48066163063049316,0.21786680817604065,-0.1082693561911583,0.9997352361679077,0.5231359601020813,0.3709360659122467,-0.008832156658172607,0.9994338154792786,0.49329185485839844,0.36815300583839417,0.008813377469778061,0.999328076839447,0.5204693675041199,0.4556233286857605,0.0407944992184639,0.9696199297904968,0.4944647252559662,0.45092129707336426,0.08747540414333344,0.9581502079963684,0.5179387331008911,0.533385157585144,0.1908341497182846,0.9497228860855103,0.499260276556015,0.5213741064071655,0.2616943120956421,0.9462747573852539,0.5444132089614868,0.36230799555778503,-0.13728167116641998,0.6508035659790039,0.47447699308395386,0.36672961711883545,-0.1281413584947586,0.7033364176750183,179.9479823527239,0.5082139074802399,0.36954453587532043,147.76135929677488,155.5436709827103,0.596776032364859,-0.0019598026765654,0.01172828953795057,-0.04653764439030301,0.4480748666683214,-178.39627550383506,0.12087013529998805,103,1762115302.1923566
0.5059249997138977,0.16301469504833221,-0.24037082493305206,0.9998539090156555,0.5348893404006958,0.2232714295387268,-0.12135132402181625,0.9997504353523254,0.4788910746574402,0.22235120832920074,-0.10817040503025055,0.9997277855873108,0.5217711329460144,0.3727424144744873,-0.008728929795324802,0.9994322657585144,0.4930081367492676,0.3705335259437561,0.008709638379514217,0.9993218183517456,0.5204160213470459,0.4561957120895386,0.041180260479450226,0.9697701334953308,0.4949875771999359,0.4520116150379181,0.07971129566431046,0.9582785367965698,0.5180047750473022,0.5338289737701416,0.19672366976737976,0.9514843225479126,0.49965953826904297,0.5224486589431763,0.23683524131774902,0.9469188451766968,0.5443786382675171,0.37082865834236145,-0.1384422481060028,0.6611328721046448,0.47345393896102905,0.36928078532218933,-0.12657196819782257,0.7002765536308289,-179.80772953049524,0.507389634847641,0.3716379702091217,147.40368287568475,155.21052583476296,0.585073033442502,-0.012899801498462732,0.032762081728903616,-0.1712101161856335,0.3291771839709379,-179.05854144623626,0.44144080847937184,104,1762115302.2562547
0.5033278465270996,0.1663668155670166,-0.23062722384929657,0.9998295903205872,0.532707691192627,0.2267111837863922,-0.11675669252872467,0.999725878238678,0.4767964482307434,0.22817108035087585,-0.1026172861456871,0.9997121095657349,0.5204253792762756,0.3768913149833679,-0.00863690860569477,0.9994270205497742,0.4925737977027893,0.37606924772262573,0.008616479113698006,0.9993062019348145,0.5201572179794312,0.45898550748825073,0.03534089773893356,0.970212459564209,0.4953194558620453,0.453752338886261,0.07745025306940079,0.958560049533844,0.5184035897254944,0.5367935299873352,0.19437608122825623,0.9533688426017761,0.499728262424469,0.5232247710227966,0.24068614840507507,0.9476390480995178,0.5414862036705017,0.3728165030479431,-0.12947091460227966,0.6448766589164734,0.47305020689964294,0.37540245056152344,-0.11721257120370865,0.6868147850036621,-179.3282244095086,0.5064995884895325,0.3764802813529968,144.24187240844725,154.59980880453404,0.5771607833454466,-0.014545644050824277,0.07913580415275337,-0.026897295531018,0.7578657600740416,178.50429170284949,1.315319165647088,105,1762115302.3174446
0.501315176486969,0.1677815169095993,-0.21700039505958557,0.9998220801353455,0.5312730669975281,0.22991180419921875,-0.10438837110996246,0.9997189044952393,0.4754928946495056,0.2317197024822235,-0.09137474000453949,0.9997043609619141,0.5190744996070862,0.3789155185222626,-0.008123433217406273,0.9994388818740845,0.4918161928653717,0.3788096010684967,0.008096035569906235,0.9993071556091309,0.5200996398925781,0.4618876576423645,0.03177256882190704,0.9712996482849121,0.49530917406082153,0.45803701877593994,0.07611557096242905,0.9592944979667664,0.5189200639724731,0.5403896570205688,0.1848856657743454,0.9558080434799194,0.4997020363807678,0.5234341025352478,0.24253253638744354,0.9486837387084961,0.5375767946243286,0.3738660514354706,-0.11429192870855331,0.6354944109916687,0.4726351797580719,0.3774605691432953,-0.10426734387874603,0.6773901581764221,-179.20189300908905,0.5054453462362289,0.37886255979537964,142.80595464085704,152.10228735191328,0.5640616324695852,-0.013055402189574131,0.029501381770082907,0.018454683254626365,-0.6146569677153679,178.14362902539793,1.2828502075671304,106,1762115302.398196
