nose_x,nose_y,nose_z,nose_visibility,left_shoulder_x,left_shoulder_y,left_shoulder_z,left_shoulder_visibility,right_shoulder_x,right_shoulder_y,right_shoulder_z,right_shoulder_visibility,left_hip_x,left_hip_y,left_hip_z,left_hip_visibility,right_hip_x,right_hip_y,right_hip_z,right_hip_visibility,left_knee_x,left_knee_y,left_knee_z,left_knee_visibility,right_knee_x,right_knee_y,right_knee_z,right_knee_visibility,left_ankle_x,left_ankle_y,left_ankle_z,left_ankle_visibility,right_ankle_x,right_ankle_y,right_ankle_z,right_ankle_visibility,left_wrist_x,left_wrist_y,left_wrist_z,left_wrist_visibility,right_wrist_x,right_wrist_y,right_wrist_z,right_wrist_visibility,trunk_lateral_inclination,center_mass_x,center_mass_y,left_knee_angle,right_knee_angle,person_height,center_mass_velocity_x,center_mass_velocity_y,center_mass_acceleration_x,center_mass_acceleration_y,body_orientation,torso_leg_ratio,frame,timestamp
0.5022807121276855,0.32037353515625,-0.2856185734272003,0.9999768733978271,0.5257823467254639,0.37433815002441406,-0.14301730692386627,0.9999867677688599,0.4725348949432373,0.36919495463371277,-0.13487398624420166,0.9999382495880127,0.5130204558372498,0.5039656162261963,-0.0013745175674557686,0.9996817111968994,0.48104795813560486,0.5026783347129822,0.0013541987864300609,0.9994787573814392,0.5104086995124817,0.5947467684745789,0.00841513741761446,0.9913530945777893,0.48062562942504883,0.59434574842453,0.0038499073125422,0.9863649606704712,0.5112220048904419,0.6806593537330627,0.14861659705638885,0.9885091185569763,0.47695738077163696,0.6740888357162476,0.1488974243402481,0.9853945970535278,0.5325808525085449,0.5066155195236206,-0.1532466858625412,0.965410053730011,0.45577913522720337,0.504899799823761,-0.14140012860298157,0.9004164934158325,179.07484339455186,0.4970342069864273,0.5033219754695892,127.62220588360601,120.35627311375097,0.5623154278638085,0.0,0.0,0.0,0.0,-174.482890016062,1.4871935793596924,0,1762115388.3300269
0.5023642778396606,0.32033395767211914,-0.2358366698026657,0.9999784827232361,0.5258287787437439,0.3745051622390747,-0.10785339027643204,0.999985933303833,0.47268715500831604,0.3691002428531647,-0.10972347110509872,0.9999402165412903,0.5127691030502319,0.5039911270141602,-0.0006238411297090352,0.9996877312660217,0.48104801774024963,0.5014466643333435,0.0005646787467412651,0.9994986653327942,0.5103985667228699,0.5946434736251831,0.02322240173816681,0.9916651844978333,0.4806661009788513,0.5939515233039856,0.01742088422179222,0.9869762659072876,0.5112430453300476,0.6782402992248535,0.14562080800533295,0.9890133142471313,0.4769504964351654,0.674004316329956,0.14009316265583038,0.9858542084693909,0.5325671434402466,0.5051432847976685,-0.11025996506214142,0.9653087258338928,0.4557199478149414,0.5019804239273071,-0.12036725133657455,0.9044487476348877,178.97188709373572,0.4969085603952408,0.5027188956737518,139.03100754073697,133.44084057800265,0.5196754623609865,-0.0019603248113140874,-0.009409187116165054,-0.030584780132624795,-0.14680114107300649,-174.19254054584584,1.6354357815895182,1,1762115388.3941216
0.5023497343063354,0.320556104183197,-0.2377866804599762,0.9999797344207764,0.5258826017379761,0.3758174479007721,-0.1086445227265358,0.9999847412109375,0.47268185019493103,0.36990395188331604,-0.10947326570749283,0.9999412894248962,0.512744128704071,0.5045443773269653,-0.0005990901263430715,0.9996887445449829,0.4811074137687683,0.5014685392379761,0.000533115875441581,0.9995077848434448,0.510543704032898,0.5947554707527161,0.01895471289753914,0.9918524622917175,0.48068109154701233,0.5944904088973999,0.017507027834653854,0.9873375296592712,0.5115014314651489,0.677369236946106,0.1443474143743515,0.9893608689308167,0.47695985436439514,0.6742929220199585,0.1406099945306778,0.9861189723014832,0.5325455069541931,0.505172073841095,-0.11025774478912354,0.9617000818252563,0.4557163119316101,0.50200355052948,-0.11672884225845337,0.9054785966873169,178.96270027610143,0.4969257712364197,0.5030064582824707,135.57404932627207,133.2819820870578,0.5204690102993337,0.00014532689113694701,0.002428154411394635,0.017779945358492494,0.09995351334925708,-173.65735994427982,1.7041738722648374,2,1762115388.51255
0.5022479295730591,0.3261895775794983,-0.23952153325080872,0.9999809265136719,0.525924563407898,0.3794718086719513,-0.11134348064661026,0.9999832510948181,0.4726808965206146,0.37275442481040955,-0.11472457647323608,0.9999439716339111,0.512579619884491,0.508604109287262,-0.00033778438228182495,0.9996897578239441,0.48110896348953247,0.5038271546363831,0.0002515411179047078,0.9995185732841492,0.5103713870048523,0.5989283919334412,0.023343462496995926,0.9919795393943787,0.4806674122810364,0.5987056493759155,0.0246057640761137,0.9877135157585144,0.5115007162094116,0.6783901453018188,0.144693523645401,0.9896665811538696,0.47677087783813477,0.6754714250564575,0.14118357002735138,0.9862328171730042,0.5323351621627808,0.5066326856613159,-0.11118538677692413,0.9547893404960632,0.45561081171035767,0.5056357383728027,-0.12211696803569794,0.9069191813468933,178.9174584698603,0.4968442916870117,0.5062156319618225,137.86847044420713,137.7419145347104,0.5189999174019653,-0.0005559495960723198,0.02189676825320393,-0.004784935393382575,0.13283784802551446,-172.8093799312022,1.775555125496043,3,1762115388.6591094
0.5022649765014648,0.32878631353378296,-0.24840828776359558,0.9999821782112122,0.5259251594543457,0.3818182647228241,-0.11722560971975327,0.9999826550483704,0.472672700881958,0.37522387504577637,-0.1158457025885582,0.9999468326568604,0.5124214887619019,0.5112136602401733,0.0002983059093821794,0.9996967315673828,0.4811265468597412,0.5062858462333679,-0.0003983041679020971,0.9995346069335938,0.5102537870407104,0.6032884120941162,0.023527685552835464,0.9921801090240479,0.4806583523750305,0.6017042994499207,0.024173885583877563,0.9881795048713684,0.5112271904945374,0.6818777918815613,0.1447267234325409,0.9900686144828796,0.4766230583190918,0.678488552570343,0.1421307474374771,0.9865611791610718,0.532315731048584,0.5107045769691467,-0.11953172832727432,0.9518007040023804,0.4554274082183838,0.5096439123153687,-0.12835535407066345,0.9091798067092896,178.88927158722197,0.49677401781082153,0.5087497532367706,137.08535145233617,137.48390720823005,0.5263891698931777,-0.0007950765944016897,0.028670974511692145,-0.0027054759146438933,0.07664317287973411,-172.94085191432274,1.6481739626016687,4,1762115388.7474957
0.5022632479667664,0.3297935426235199,-0.24822263419628143,0.9999833703041077,0.5259259939193726,0.38275545835494995,-0.11815333366394043,0.9999821186065674,0.47266918420791626,0.3764641582965851,-0.11797332763671875,0.99994957447052,0.5123269557952881,0.5127604007720947,0.0004791523388121277,0.999706506729126,0.48114579916000366,0.5076543092727661,-0.0005833386676385999,0.9995524883270264,0.5102158784866333,0.6046454310417175,0.024920914322137833,0.9923657774925232,0.48063841462135315,0.6031181812286377,0.028611112385988235,0.9885944128036499,0.5111539363861084,0.68388831615448,0.1449686586856842,0.9904388785362244,0.4765172600746155,0.6792102456092834,0.15013816952705383,0.98686283826828,0.5322542190551758,0.5124082565307617,-0.1203041523694992,0.9489933252334595,0.4553988575935364,0.5116405487060547,-0.13061334192752838,0.9114537239074707,178.87648880893255,0.4967363774776459,0.5102073550224304,138.29015107301652,139.0365833916811,0.5295675642331454,-0.00045040225950017116,0.017441586785347483,0.004124355076956461,-0.1343702666271777,-173.26279439639802,1.608247327879212,5,1762115388.8310661
0.502397894859314,0.3316459655761719,-0.24471624195575714,0.9999845027923584,0.5259265303611755,0.383758008480072,-0.11381053924560547,0.9999825954437256,0.4727100729942322,0.377855122089386,-0.11801008135080338,0.9999521970748901,0.5121552348136902,0.514054536819458,0.000900564540643245,0.9997170567512512,0.48116379976272583,0.5088745355606079,-0.00099950039293617,0.9995678663253784,0.5101855993270874,0.6059573292732239,0.022745292633771896,0.9925570487976074,0.48063787817955017,0.6043798923492432,0.02479773573577404,0.9889782071113586,0.510964035987854,0.6855093240737915,0.14007112383842468,0.9907559156417847,0.4763566851615906,0.6805237531661987,0.14709700644016266,0.987047016620636,0.532548725605011,0.5145132541656494,-0.11487138271331787,0.9502487778663635,0.4553440511226654,0.5117095112800598,-0.12927086651325226,0.9145842790603638,178.83423796311072,0.496659517288208,0.511464536190033,137.4807966622702,137.00307705999901,0.5237506588030509,-0.0009609795358681234,0.01571848031836406,-0.006383725016258648,-0.02154392364894829,-173.67050043269973,1.517243493425207,6,1762115388.9110472
0.502643346786499,0.33300766348838806,-0.23550856113433838,0.9999855160713196,0.5260000824928284,0.3853413760662079,-0.10749161243438721,0.999982476234436,0.47284021973609924,0.3788180947303772,-0.11474430561065674,0.9999546408653259,0.5121129751205444,0.5156074166297913,0.0011339716147631407,0.9997216463088989,0.48126035928726196,0.5109811425209045,-0.0012318918015807867,0.9995810389518738,0.5101057887077332,0.6074090600013733,0.026639297604560852,0.992715060710907,0.4806388020515442,0.6057664155960083,0.024567067623138428,0.9893864989280701,0.5105937719345093,0.6852446794509888,0.14495445787906647,0.9909519553184509,0.47628054022789,0.6812841892242432,0.14448697865009308,0.9871802926063538,0.5328009724617004,0.517440915107727,-0.10803278535604477,0.9509876370429993,0.4552975296974182,0.5126469731330872,-0.12722821533679962,0.9181861877441406,178.80657710526057,0.4966866672039032,0.5132942795753479,138.8404095964842,137.40743978781774,0.517048222495012,0.00034249253358757735,0.02308196662145214,0.016443124779485407,0.09288938898726735,-173.00417190004785,1.411821924571453,7,1762115388.9903188
0.5028786063194275,0.33363160490989685,-0.23994290828704834,0.9999865293502808,0.5264097452163696,0.38651084899902344,-0.11080310493707657,0.9999829530715942,0.47323018312454224,0.3799055218696594,-0.11563149839639664,0.9999566674232483,0.5121380090713501,0.5160056352615356,0.001312249107286334,0.9997302293777466,0.48151740431785583,0.5117173790931702,-0.0014060114044696093,0.9995956420898438,0.5101972818374634,0.6077737212181091,0.025396892800927162,0.992763102054596,0.4807888865470886,0.6068903803825378,0.023178789764642715,0.9896944761276245,0.5106655359268188,0.6858950853347778,0.14594276249408722,0.9911050796508789,0.4762703478336334,0.6825723648071289,0.14363887906074524,0.9873141646385193,0.5334050059318542,0.5185489654541016,-0.11451724916696548,0.9526968598365784,0.45539194345474243,0.5133242607116699,-0.12800684571266174,0.9204583764076233,178.6880260153121,0.49682770669460297,0.5138615071773529,137.62772741640984,136.6070164538427,0.5206058485519194,0.0008868524337517016,0.0035667115418058395,0.003422920062332448,-0.12271138655422015,-172.91966804207297,1.4768249288598456,8,1762115389.1493526
0.5031429529190063,0.33714357018470764,-0.24242348968982697,0.9999874234199524,0.5267291069030762,0.3887852132320404,-0.112449511885643,0.9999833106994629,0.4735897481441498,0.38168978691101074,-0.11619951575994492,0.999958872795105,0.512184202671051,0.5169788599014282,0.0012746753636747599,0.9997366070747375,0.48160281777381897,0.5126010179519653,-0.001366332289762795,0.9996081590652466,0.5102275609970093,0.6092439889907837,0.024364935234189034,0.9928197860717773,0.48089495301246643,0.6080365777015686,0.022697962820529938,0.9899594187736511,0.5107553005218506,0.687187910079956,0.14612360298633575,0.9912710189819336,0.4762663245201111,0.6856901049613953,0.14337030053138733,0.9874734282493591,0.5338932871818542,0.5192234516143799,-0.11684197187423706,0.9539486169815063,0.4553685784339905,0.5135363936424255,-0.12843674421310425,0.9241823554039001,178.55592333823563,0.496893510222435,0.5147899389266968,136.65169752971292,136.89551540212366,0.5215371812286683,0.00014395686301304844,0.0020311087651474174,-0.001625215538334208,-0.0033594028442692006,-172.39457397761439,1.592008619797876,9,1762115389.6064584
0.5032694935798645,0.3370344936847687,-0.239834263920784,0.999988317489624,0.526918351650238,0.38931193947792053,-0.11247353255748749,0.9999837875366211,0.4738273024559021,0.3824869692325592,-0.11561097204685211,0.999960720539093,0.5122658610343933,0.5172627568244934,0.0012594094732776284,0.9997467994689941,0.48176461458206177,0.5128300786018372,-0.0013513455633074045,0.9996249675750732,0.510229766368866,0.6094664335250854,0.025410223752260208,0.9929385185241699,0.48093587160110474,0.6084622740745544,0.022596213966608047,0.9902647137641907,0.5107243657112122,0.6878171563148499,0.1465667188167572,0.9915177226066589,0.476266086101532,0.6869497895240784,0.14253950119018555,0.9877516031265259,0.5342296361923218,0.5202270746231079,-0.11716970056295395,0.9556413888931274,0.45536574721336365,0.5138984322547913,-0.12711292505264282,0.9269772171974182,178.51074804265832,0.49701523780822754,0.5150464177131653,137.54261640718028,137.2417894273415,0.52018611745387,0.0011795040913732322,0.002485203136334444,0.010034144559005023,0.00440003935999748,-172.67467812872357,1.607584205474719,10,1762115389.7096608
0.5035108923912048,0.33879053592681885,-0.2468944489955902,0.9999890923500061,0.527122437953949,0.3909778296947479,-0.11615073680877686,0.9999832510948181,0.4742559790611267,0.38412365317344666,-0.12364473193883896,0.9999628663063049,0.5123683214187622,0.5186774134635925,0.0018719673389568925,0.9997507929801941,0.4819315969944,0.5144267678260803,-0.0019698000978678465,0.9996379017829895,0.5103276371955872,0.6110596060752869,0.02483794465661049,0.992997407913208,0.4810371398925781,0.6105532646179199,0.021800752729177475,0.990601122379303,0.5107511281967163,0.6899243593215942,0.14738376438617706,0.9917123913764954,0.4762626588344574,0.6892939209938049,0.14220567047595978,0.9880589842796326,0.5341989994049072,0.5226519703865051,-0.12171000242233276,0.9533193111419678,0.4554515779018402,0.51701819896698,-0.13586565852165222,0.9290537238121033,178.42844131564414,0.4971499592065811,0.5165520906448364,136.70020306390663,137.05747336538403,0.5259222149367884,0.0014016741331666393,0.015665386695242773,0.002311511048371645,0.13712982934176587,-172.6127662349115,1.6261233104689237,11,1762115389.8057754
0.5042092204093933,0.339547336101532,-0.24628475308418274,0.9999898672103882,0.5281830430030823,0.39273133873939514,-0.11495007574558258,0.9999830722808838,0.4753524661064148,0.3854027986526489,-0.12261022627353668,0.9999647736549377,0.5129166841506958,0.5208738446235657,0.001918798079714179,0.9997543096542358,0.4824374318122864,0.5161877274513245,-0.00201695435680449,0.9996476769447327,0.5107160806655884,0.613384485244751,0.021898340433835983,0.9929924607276917,0.4811132550239563,0.6125791072845459,0.019731860607862473,0.9908261895179749,0.5108914375305176,0.691402792930603,0.14755666255950928,0.9917880892753601,0.47625142335891724,0.6912590265274048,0.14131250977516174,0.9881828427314758,0.5347902178764343,0.5242958068847656,-0.1209542527794838,0.9512661099433899,0.45594924688339233,0.5197770595550537,-0.13507919013500214,0.9308053851127625,178.1902134437145,0.4976770579814911,0.5185307860374451,134.00103305097383,135.617864537105,0.5258578204368464,0.007481978780648764,0.028086874122205865,0.08630775201500199,0.1763185759035518,-172.10245607348887,1.7450009854640107,12,1762115389.8762245
0.5050581693649292,0.3403431475162506,-0.25378692150115967,0.9999904632568359,0.5291070938110352,0.39406633377075195,-0.12120582163333893,0.9999819993972778,0.47613009810447693,0.3871505856513977,-0.12850211560726166,0.999966561794281,0.5140775442123413,0.5230385065078735,0.002218897920101881,0.9997550845146179,0.4832665026187897,0.5181601047515869,-0.002324737375602126,0.99965500831604,0.5113868713378906,0.6153576970100403,0.024283748120069504,0.9927827715873718,0.48137933015823364,0.6139050126075745,0.022730529308319092,0.990924596786499,0.5109597444534302,0.692608654499054,0.16146613657474518,0.9916453957557678,0.4762527346611023,0.6910344958305359,0.15284404158592224,0.9880614876747131,0.5347476005554199,0.5258714556694031,-0.12594586610794067,0.9440990686416626,0.45607465505599976,0.5240060091018677,-0.14163967967033386,0.9314638376235962,178.26101206740603,0.4986720234155655,0.5205993056297302,132.80780350096953,135.32860627854902,0.5408711194539535,0.012030221221590582,0.025010666143929522,0.0549932297747196,-0.03719472178117794,-172.56252503349867,1.4207234527294001,13,1762115389.95893
0.505885660648346,0.3415740728378296,-0.2653961181640625,0.9999908208847046,0.5301474332809448,0.39630258083343506,-0.13189563155174255,0.9999798536300659,0.4770018458366394,0.38870739936828613,-0.1350250542163849,0.9999674558639526,0.5150295495986938,0.5257893800735474,0.0021871011704206467,0.9997550845146179,0.48393258452415466,0.5206275582313538,-0.0022906018421053886,0.9996597170829773,0.5115436315536499,0.6171085834503174,0.025359025225043297,0.9926495552062988,0.4815654158592224,0.6161022186279297,0.026140576228499413,0.9910849928855896,0.5109586715698242,0.6935142278671265,0.16839703917503357,0.9916887283325195,0.47623223066329956,0.6917531490325928,0.16288645565509796,0.9881698489189148,0.5347126126289368,0.5283837914466858,-0.1366511583328247,0.9325087070465088,0.4566424489021301,0.5249032378196716,-0.14571057260036469,0.9301615953445435,178.20610908924385,0.49948106706142426,0.5232084691524506,132.31846975473408,135.5473490928046,0.5560463510598843,0.012424847681537244,0.04007009944638097,0.006060456294341249,0.23127450034493294,-171.86677595669826,1.382929767118224,14,1762115390.024045
0.5064281225204468,0.34244248270988464,-0.2654956877231598,0.9999911785125732,0.5304743051528931,0.3968542218208313,-0.13074424862861633,0.9999793171882629,0.4773825705051422,0.3897302448749542,-0.13592299818992615,0.9999682307243347,0.5156288146972656,0.526764988899231,0.002252446487545967,0.9997600317001343,0.48460012674331665,0.5215216875076294,-0.0023555043153464794,0.9996680021286011,0.5117046236991882,0.6173492074012756,0.028256753459572792,0.9925564527511597,0.48190411925315857,0.6172704696655273,0.02900223433971405,0.9911376237869263,0.5108098983764648,0.6934307813644409,0.1742059737443924,0.9916540384292603,0.47618794441223145,0.6914677619934082,0.16837117075920105,0.9881811738014221,0.5353182554244995,0.5285084843635559,-0.13727109134197235,0.928259551525116,0.4568985104560852,0.5265169143676758,-0.15003815293312073,0.9284021854400635,178.33045073302944,0.5001144707202911,0.5241433382034302,133.51626799548143,136.17949991209872,0.5598682044267629,0.008744712891492899,0.012906716479320617,-0.05080760379329557,-0.3750151769466372,-172.35756316267936,1.1534930255535814,15,1762115390.0964777
0.5071407556533813,0.34303849935531616,-0.2668526768684387,0.9999915957450867,0.531457781791687,0.3977704346179962,-0.1329289972782135,0.9999789595603943,0.4781684875488281,0.39062657952308655,-0.13471415638923645,0.9999693036079407,0.5165827870368958,0.528128445148468,0.0018383515998721123,0.9997670650482178,0.48533502221107483,0.5227895379066467,-0.0019429326057434082,0.9996775388717651,0.5118535161018372,0.6195648908615112,0.028083909302949905,0.9925089478492737,0.482097864151001,0.6187295317649841,0.029891574755311012,0.9912066459655762,0.510575532913208,0.6953932642936707,0.17308026552200317,0.9916859865188599,0.47616124153137207,0.6923081874847412,0.17197921872138977,0.9882515668869019,0.5357624292373657,0.5305894017219543,-0.13983020186424255,0.9241917133331299,0.4572674632072449,0.5263892412185669,-0.14663027226924896,0.9295052289962769,178.31809487906455,0.5009589046239853,0.5254589915275574,133.58167825913725,135.75691314549385,0.5624196000634132,0.011496666374528114,0.017912150691556872,0.03746686500182923,0.06814720127411159,-172.36456659061704,1.068155902837822,16,1762115390.172085
0.5078063607215881,0.3446541428565979,-0.2721337378025055,0.9999917149543762,0.5325291156768799,0.399308979511261,-0.13950087130069733,0.9999779462814331,0.4790056347846985,0.39151331782341003,-0.1360861361026764,0.9999698996543884,0.517067551612854,0.5300348997116089,0.0008834126638248563,0.9997706413269043,0.4857083857059479,0.524249792098999,-0.000988429761491716,0.9996830224990845,0.5118823051452637,0.620734691619873,0.02772507630288601,0.9923931360244751,0.4826083183288574,0.6220517754554749,0.034217845648527145,0.9912484288215637,0.5103821754455566,0.6961541771888733,0.17844164371490479,0.9916895627975464,0.4760567545890808,0.6934853196144104,0.17959418892860413,0.9883151650428772,0.5357495546340942,0.5325714945793152,-0.1445644199848175,0.9144969582557678,0.4579123556613922,0.5256049036979675,-0.14452168345451355,0.9287918210029602,178.09590182352284,0.5013879686594009,0.527142345905304,133.02169971176795,135.9867847080728,0.5712849935470653,0.005011877840655913,0.01966318732733268,-0.07574852532855336,0.020453780761465708,-171.71317569128246,1.0875523396304063,17,1762115390.2555375
0.5084399580955505,0.34599030017852783,-0.27109289169311523,0.9999914169311523,0.5335562825202942,0.4011736214160919,-0.13891467452049255,0.9999749064445496,0.47992128133773804,0.3925038278102875,-0.13511893153190613,0.9999699592590332,0.5176118612289429,0.5319756269454956,0.0004959366051480174,0.9997667670249939,0.48620373010635376,0.5258156657218933,-0.0006020935834385455,0.9996827244758606,0.5119096040725708,0.621814489364624,0.027321431785821915,0.9921783804893494,0.483287513256073,0.6244664788246155,0.03464064747095108,0.9911819100379944,0.5098875164985657,0.6970654129981995,0.18106065690517426,0.9914972186088562,0.47604137659072876,0.6945807337760925,0.1817198097705841,0.9881924390792847,0.5357338190078735,0.5324905514717102,-0.14567582309246063,0.8972809314727783,0.4581581950187683,0.5252619981765747,-0.1434895545244217,0.9266865849494934,177.90490538470542,0.5019077956676483,0.5288956463336945,132.65724516664045,135.16470566092084,0.5721568308658118,0.005998587232543999,0.02023235691430678,0.011386215541910551,0.006567980046066431,-170.81788543639988,1.0422587710147695,18,1762115390.3421957
0.5091838240623474,0.3471679389476776,-0.26803725957870483,0.9999910593032837,0.5345568656921387,0.40238040685653687,-0.1356455236673355,0.9999728202819824,0.4809953272342682,0.3935229480266571,-0.1342947781085968,0.9999699592590332,0.5179795026779175,0.5338972210884094,0.00035579068935476243,0.9997695088386536,0.486785888671875,0.5282278656959534,-0.0004631956107914448,0.9996875524520874,0.5119744539260864,0.6248276233673096,0.024002164602279663,0.9921362400054932,0.4844556748867035,0.6278143525123596,0.03356476500630379,0.9911603927612305,0.5098377466201782,0.698553740978241,0.1821868121623993,0.9912968873977661,0.47633227705955505,0.6940888166427612,0.19083943963050842,0.9879539012908936,0.5373033285140991,0.5316327214241028,-0.14465606212615967,0.8857108354568481,0.45917582511901855,0.525668740272522,-0.14311735332012177,0.926499605178833,177.6797524436969,0.5023826956748962,0.5310625433921814,129.52119646976774,131.7228204165198,0.5733962673648603,0.004011978279172256,0.018306051377492034,-0.016782968727089637,-0.016273522541168123,-170.60999186276126,1.0511295135602898,19,1762115390.4605663
0.5097087621688843,0.3479674160480499,-0.26857051253318787,0.999990701675415,0.5349509119987488,0.4034474790096283,-0.1347467005252838,0.9999713897705078,0.4813699722290039,0.39411160349845886,-0.13348230719566345,0.9999697208404541,0.5180425643920898,0.535122811794281,0.00022980873472988605,0.9997709393501282,0.4870028495788574,0.5291889905929565,-0.00033476375392638147,0.9996895790100098,0.5120009779930115,0.6256246566772461,0.024015186354517937,0.9919559359550476,0.48506593704223633,0.6285768747329712,0.03386485204100609,0.9910001754760742,0.5097688436508179,0.6990974545478821,0.18715177476406097,0.990989625453949,0.4766412377357483,0.6940603256225586,0.19098958373069763,0.9876810908317566,0.5374647974967957,0.5316309332847595,-0.14546242356300354,0.8746739625930786,0.4593420624732971,0.5254768133163452,-0.1429039090871811,0.9254339337348938,177.5795841482799,0.5025227069854736,0.5321559011936188,128.92750848059472,131.6090459133943,0.5755326168578553,0.0009547383309759548,0.0074556162512803,-0.02084734550013744,-0.07398921044336663,-170.11608078354914,1.0578521654852966,20,1762115390.6072152
0.510443925857544,0.34931081533432007,-0.2657586634159088,0.9999905228614807,0.5357506275177002,0.4049779176712036,-0.13094840943813324,0.9999712109565735,0.4820297658443451,0.394687682390213,-0.12898646295070648,0.9999700784683228,0.5179413557052612,0.5369221568107605,0.00020646615303121507,0.9997754693031311,0.4870913624763489,0.5309975743293762,-0.00031116922036744654,0.9996950626373291,0.511653482913971,0.6284947991371155,0.021556204184889793,0.9917626976966858,0.4860008656978607,0.632534384727478,0.02957933582365513,0.9908844232559204,0.5091709494590759,0.6999882459640503,0.18559566140174866,0.9906244277954102,0.47716373205184937,0.6942244172096252,0.18752585351467133,0.9871362447738647,0.5391954779624939,0.5346196293830872,-0.14339159429073334,0.871226966381073,0.45986121892929077,0.5253006815910339,-0.13908405601978302,0.9264917373657227,177.27930029879911,0.502516359090805,0.5339598655700684,126.63729133730071,127.7117594171096,0.5708354053648416,-6.890938125198964e-05,0.01958288148621683,-0.011112177210311474,0.13164716606825777,-169.15633880620783,1.125953895907666,21,1762115390.6993346
0.5108366012573242,0.3494894802570343,-0.2576078772544861,0.9999909400939941,0.536309540271759,0.4055285155773163,-0.12143920361995697,0.9999732971191406,0.4823533594608307,0.3950841724872589,-0.12325605005025864,0.9999708533287048,0.5179491639137268,0.5372733473777771,0.0012596810702234507,0.9997894167900085,0.48715582489967346,0.5320598483085632,-0.001368667813949287,0.9997092485427856,0.5113180875778198,0.6312656998634338,0.016011575236916542,0.9917953610420227,0.4861680865287781,0.6362359523773193,0.011899067088961601,0.9909902215003967,0.508773684501648,0.7011516690254211,0.18621429800987244,0.9903120994567871,0.47786974906921387,0.6942244172096252,0.18447591364383698,0.9860848188400269,0.5415645837783813,0.5354462265968323,-0.13339389860630035,0.8809179663658142,0.46001625061035156,0.5256394743919373,-0.13603298366069794,0.9293416142463684,177.1116721018967,0.5025524944067001,0.5346665978431702,121.2179708459544,115.82699873110674,0.5636988163699053,0.0004968236069270937,0.00971684537292297,0.007778249526332207,-0.13564789808706035,-169.04469751329708,1.2501830610435358,22,1762115390.7720673
0.5108085870742798,0.34909552335739136,-0.2545585036277771,0.9999908804893494,0.5365514159202576,0.4063927233219147,-0.1206873431801796,0.9999738335609436,0.48243871331214905,0.3950546383857727,-0.12125854194164276,0.9999709725379944,0.5178923010826111,0.5376336574554443,0.0013315122341737151,0.9997913837432861,0.4870826303958893,0.5325716137886047,-0.001439670566469431,0.9997109174728394,0.5106710195541382,0.6319272518157959,0.01666547730565071,0.9916425943374634,0.4859730303287506,0.6386250853538513,0.016985764726996422,0.990961492061615,0.5081696510314941,0.701623260974884,0.18539133667945862,0.9898409843444824,0.4784649908542633,0.6974544525146484,0.18239639699459076,0.9851394295692444,0.5417108535766602,0.5363855361938477,-0.12809959053993225,0.886997640132904,0.4599601626396179,0.5256133675575256,-0.1324361264705658,0.9314006567001343,177.01484150177276,0.5024874657392502,0.5351026356220245,121.64434078954646,119.43031406777578,0.5615665191878323,-0.0007795373935013304,0.005227044731584769,-0.015300500017265406,-0.05382191618770456,-168.16616670238503,1.3999227439259434,23,1762115390.8554869
0.5106087923049927,0.3487390875816345,-0.2536791265010834,0.9999908804893494,0.5368490815162659,0.40783217549324036,-0.12049279361963272,0.9999735951423645,0.48218002915382385,0.39639735221862793,-0.1200069785118103,0.9999706745147705,0.5177231431007385,0.5381051301956177,0.00132809579372406,0.999778687953949,0.48668956756591797,0.5338213443756104,-0.0014352495782077312,0.9996994733810425,0.5097428560256958,0.6347363591194153,0.017785334959626198,0.9912945628166199,0.48584431409835815,0.6436429619789124,0.018117237836122513,0.9906337261199951,0.5077804327011108,0.7020393013954163,0.18637506663799286,0.9890226125717163,0.4791322350502014,0.7095618844032288,0.18144898116588593,0.984032154083252,0.5418841242790222,0.5380277633666992,-0.12958888709545135,0.8906182646751404,0.4594913125038147,0.5300027132034302,-0.1311505287885666,0.9314699769020081,176.87472228714716,0.5022063553333282,0.535963237285614,121.36720627505643,122.06416549985317,0.565042600447917,-0.0035121877476124944,0.010752339844983408,-0.03414167846523408,0.06903292581993876,-168.18607900681116,1.6845958631155853,24,1762115390.9355254
0.510489821434021,0.3484939932823181,-0.2540279030799866,0.9999911189079285,0.5369198322296143,0.40803366899490356,-0.11971702426671982,0.9999740719795227,0.48201608657836914,0.3970544934272766,-0.12030778080224991,0.9999710321426392,0.5176818370819092,0.5384560823440552,0.001323578180745244,0.9997760057449341,0.48652905225753784,0.5346510410308838,-0.001429323572665453,0.9996981620788574,0.5094267725944519,0.635947048664093,0.01847941242158413,0.9912266731262207,0.4857407510280609,0.6451246738433838,0.018800143152475357,0.990484893321991,0.5078045129776001,0.7023822069168091,0.191299170255661,0.9886418581008911,0.47965818643569946,0.7121086120605469,0.18278542160987854,0.9833979606628418,0.5422395467758179,0.5389208793640137,-0.13065218925476074,0.8953012824058533,0.4589640200138092,0.531156599521637,-0.13228334486484528,0.9331627488136292,176.85531685017287,0.5021054446697235,0.5365535616874695,120.93444708894918,122.5876609220644,0.5687937635574589,-0.0012457689477557027,0.007287711552612215,0.027979542127783787,-0.04277175660104683,-168.6916464954891,1.910648156595175,25,1762115391.0165281
0.5104084610939026,0.34832122921943665,-0.2386699914932251,0.9999908804893494,0.5370471477508545,0.4084774851799011,-0.10586309432983398,0.9999729990959167,0.48198962211608887,0.39776933193206787,-0.10710518062114716,0.9999708533287048,0.5175493359565735,0.5401903986930847,0.0016802981263026595,0.9997300505638123,0.48622140288352966,0.536888062953949,-0.0017731164116412401,0.999684751033783,0.5089656114578247,0.6364234685897827,0.0298552755266428,0.9905632138252258,0.485687792301178,0.6484214067459106,0.016002556309103966,0.9901930093765259,0.5077308416366577,0.7020637392997742,0.20498546957969666,0.9867481589317322,0.4799785017967224,0.724697470664978,0.14662018418312073,0.9829998016357422,0.5423444509506226,0.5400359034538269,-0.12195087969303131,0.8998636603355408,0.45835113525390625,0.5312041640281677,-0.12542001903057098,0.9338914155960083,176.77380924709627,0.5018853694200516,0.5385392308235168,126.7459664930482,129.3153134859946,0.5525668221550986,-0.0038262451035254615,0.03452299529523928,-0.04486435558063265,0.4735147237987758,-168.99392899107457,2.197797069300856,26,1762115391.0740454
0.5103311538696289,0.3481975197792053,-0.26455578207969666,0.9999909400939941,0.5371593832969666,0.40963461995124817,-0.11096154153347015,0.9999721646308899,0.48191553354263306,0.3986218273639679,-0.12491698563098907,0.999972939491272,0.5174788236618042,0.541969895362854,0.006762277334928513,0.9996875524520874,0.48583656549453735,0.5386760234832764,-0.006868754979223013,0.9997091889381409,0.5088248252868652,0.6350966095924377,0.08069846034049988,0.9880838990211487,0.4857258200645447,0.6497984528541565,-0.051403217017650604,0.9904109239578247,0.50776606798172,0.6962600350379944,0.2868660092353821,0.9767102003097534,0.4810428023338318,0.743876039981842,0.028621647506952286,0.9835169315338135,0.5432218909263611,0.5445214509963989,-0.14301778376102448,0.9027138352394104,0.4567278027534485,0.533147394657135,-0.15014126896858215,0.9341424703598022,176.68875259846334,0.5016576945781708,0.5403229594230652,144.78741846551907,117.75379237396098,0.5629194465580188,-0.0025845794708708302,0.020249001962243725,0.014095468244687328,-0.16203929178579493,-168.72595054954942,2.7437578221417036,27,1762115391.1621351
0.5098055005073547,0.3481111228466034,-0.2868500053882599,0.9999913573265076,0.5370802879333496,0.41085514426231384,-0.1290881186723709,0.9999729990959167,0.48127883672714233,0.4001074433326721,-0.13127650320529938,0.9999751448631287,0.5173583626747131,0.5452545285224915,0.005838614888489246,0.9996899366378784,0.4854377806186676,0.5426887273788452,-0.00594484293833375,0.9997361302375793,0.5074764490127563,0.6344853639602661,0.06442348659038544,0.9848110675811768,0.4858412742614746,0.6538911461830139,-0.08048246800899506,0.9903506636619568,0.5084065198898315,0.6795486807823181,0.30636194348335266,0.9561817049980164,0.4830670952796936,0.7558190226554871,0.014897395856678486,0.9840388298034668,0.5438275337219238,0.5462064743041992,-0.1564260721206665,0.9053525924682617,0.4543585181236267,0.5333016514778137,-0.15798312425613403,0.9344754219055176,176.78404798644044,0.5013980716466904,0.5439716279506683,133.5742290258121,103.0603821432027,0.5805342277910304,-0.002782970768184908,0.039111097764806306,-0.002126611767069678,0.20218807693879015,-169.09798508265473,8.43015711129835,28,1762115391.255425
0.5092460513114929,0.3480401635169983,-0.28258994221687317,0.9999917149543762,0.5370181202888489,0.41162562370300293,-0.1288423389196396,0.999974250793457,0.48000940680503845,0.4010095000267029,-0.12983696162700653,0.9999772310256958,0.5172069668769836,0.54792720079422,0.005852877162396908,0.9997012615203857,0.4849013686180115,0.5458203554153442,-0.0059519256465137005,0.9997611045837402,0.5068313479423523,0.6362634897232056,0.08312427997589111,0.980326771736145,0.48601436614990234,0.6592325568199158,-0.0632580891251564,0.9903111457824707,0.509179949760437,0.6649035811424255,0.3407202363014221,0.9217907190322876,0.4843122959136963,0.7605742812156677,0.025629082694649696,0.9842387437820435,0.5437843203544617,0.545036256313324,-0.1540837585926056,0.908252477645874,0.45218682289123535,0.5328385829925537,-0.1510179191827774,0.9365839958190918,176.9620500271328,0.5010541677474976,0.5468737781047821,137.2072820667638,111.92792884908549,0.5916908851391327,-0.003174371315203972,0.026788013230604688,-0.0036127844788287162,-0.11374702686424543,-169.4512468032972,23.00457219935904,29,1762115391.3637626
0.5087906122207642,0.347984254360199,-0.2838304936885834,0.9999920725822449,0.5369313955307007,0.41180944442749023,-0.1278870850801468,0.9999756217002869,0.47945278882980347,0.4015616476535797,-0.1296805441379547,0.9999790787696838,0.5171496868133545,0.5482124090194702,0.0066039846278727055,0.9997084736824036,0.4846994876861572,0.5464881658554077,-0.006705754436552525,0.9997835159301758,0.5066195726394653,0.6359416842460632,0.09434225410223007,0.974668562412262,0.48636308312416077,0.6593825221061707,-0.07199700176715851,0.9899802803993225,0.5094738006591797,0.6667740941047668,0.34251153469085693,0.8881686329841614,0.485124409198761,0.76092928647995,0.009320476092398167,0.9841353297233582,0.5443100333213806,0.5445975661277771,-0.1511072814464569,0.9141359925270081,0.45159488916397095,0.5325018763542175,-0.15409713983535767,0.9396916627883911,177.04241838166024,0.5009245872497559,0.547350287437439,141.72587551352115,111.25856676614103,0.5876715739525952,-0.0011769571921071322,0.004328051643192488,0.018142166134299944,-0.2039999366065722,-169.89101732980373,8.985795227547873,30,1762115391.4738605
0.5081835985183716,0.34794142842292786,-0.2991867661476135,0.9999919533729553,0.5368238687515259,0.41458070278167725,-0.14878641068935394,0.9999755620956421,0.47847452759742737,0.40263286232948303,-0.12985342741012573,0.9999802112579346,0.5166268348693848,0.5478498339653015,0.0025622150860726833,0.9997088313102722,0.4842243194580078,0.5469202399253845,-0.0026171584613621235,0.9998025298118591,0.5064301490783691,0.6321381330490112,0.061405204236507416,0.9666000604629517,0.48633846640586853,0.6623681783676147,-0.0630238801240921,0.9882185459136963,0.5097020864486694,0.662051796913147,0.3111783266067505,0.8567656874656677,0.48553329706192017,0.7639065980911255,0.04874046891927719,0.983331024646759,0.5440477132797241,0.5513357520103455,-0.16635169088840485,0.911963164806366,0.4501355290412903,0.5325965285301208,-0.10967449843883514,0.9365403652191162,177.02035582818533,0.5004255771636963,0.547385036945343,131.39529739997874,104.62696203975926,0.6024493817992689,-0.003032261055510805,0.00021115721397071182,-0.01127385158797393,-0.02501652570983973,-168.42785465264004,5.852004670892145,31,1762115391.6384275
0.5072368383407593,0.347910076379776,-0.3009800910949707,0.9999918937683105,0.5361456274986267,0.4146789014339447,-0.1461973786354065,0.9999746084213257,0.47663363814353943,0.40292876958847046,-0.13445928692817688,0.9999808073043823,0.5162249803543091,0.5482966899871826,0.0024545658379793167,0.9997073411941528,0.48387184739112854,0.5482110381126404,-0.002507618162781,0.9998172521591187,0.5065601468086243,0.6320317387580872,0.008859598077833652,0.962659478187561,0.4863280653953552,0.666306734085083,-0.06195536255836487,0.9859440922737122,0.5097134709358215,0.6659510135650635,0.270567923784256,0.8388310670852661,0.4858413636684418,0.7650951743125916,0.058537982404232025,0.9820944666862488,0.5438699126243591,0.5534001588821411,-0.16878685355186462,0.9111900925636292,0.4485144019126892,0.5335112810134888,-0.14512167870998383,0.9362871646881104,177.39637941252997,0.5000484138727188,0.5482538640499115,101.59942743932524,102.62081459083998,0.5932535938006064,-0.0042317029130888376,0.009748080678383222,-0.013457517537401955,0.10700253118925515,-168.83109401705937,4.752428779500507,32,1762115391.7275555
0.505705714225769,0.3463168740272522,-0.30421504378318787,0.9999896883964539,0.5352951288223267,0.41452115774154663,-0.15507173538208008,0.9999638795852661,0.47519105672836304,0.40274298191070557,-0.13303974270820618,0.9999808669090271,0.5159538388252258,0.5488612055778503,-0.0038902561645954847,0.9996871948242188,0.48312315344810486,0.548182487487793,0.003846353618428111,0.9998310208320618,0.5048161745071411,0.6335507035255432,0.027879079803824425,0.9575381278991699,0.48566779494285583,0.6676703095436096,-0.049258533865213394,0.983729898929596,0.5098237991333008,0.6632249355316162,0.3049461245536804,0.8195414543151855,0.4860517382621765,0.7650381326675415,0.08358083665370941,0.9816785454750061,0.5403574705123901,0.5538036227226257,-0.16049069166183472,0.8644788265228271,0.447237491607666,0.534408450126648,-0.1074826717376709,0.9218446612358093,177.66481638633226,0.49953849613666534,0.5485218465328217,116.31384811360398,102.27797432339851,0.6195391871518474,-0.006415640514151156,0.003371679690429409,-0.027477684267652833,-0.08022607103138792,-168.91264457147486,2.1153331881022432,33,1762115391.807036
0.5037922859191895,0.3441384434700012,-0.2946702241897583,0.9999879598617554,0.5342101454734802,0.4144195020198822,-0.15106377005577087,0.9999556541442871,0.47275346517562866,0.4026208519935608,-0.12175270169973373,0.9999819993972778,0.5151544809341431,0.5493432879447937,-0.0027022077701985836,0.999675452709198,0.48128682374954224,0.5481276512145996,0.00263427896425128,0.9998459815979004,0.5050279498100281,0.648184061050415,0.039155445992946625,0.9479092955589294,0.4852936863899231,0.6684184074401855,-0.06484204530715942,0.9827015399932861,0.5099325180053711,0.6405470371246338,0.32898807525634766,0.7590305805206299,0.4859439432621002,0.7660799026489258,0.04475017637014389,0.9791741371154785,0.5347892045974731,0.5533171892166138,-0.10641797631978989,0.8005803823471069,0.44629961252212524,0.5366734266281128,-0.10324593633413315,0.8997870087623596,177.8511579678499,0.49822065234184265,0.5487354695796967,111.24153126818351,102.41687427914417,0.600767105595916,-0.019245483222901948,0.0031197011214907713,-0.1873640287064183,-0.0036798362143457665,-169.1324031159217,1.893582367191451,34,1762115391.8755114
0.5030549764633179,0.34374383091926575,-0.2931499779224396,0.9999849796295166,0.533430278301239,0.41397517919540405,-0.14565803110599518,0.9999420642852783,0.472275972366333,0.4024713635444641,-0.11678241193294525,0.9999828338623047,0.51493239402771,0.5495330691337585,-0.00288748717866838,0.9996563196182251,0.4811724126338959,0.5481671094894409,0.0027987882494926453,0.9998586773872375,0.5057917833328247,0.6456106901168823,0.05156712979078293,0.9441553354263306,0.4850648045539856,0.668364405632019,-0.05436829477548599,0.9820982813835144,0.5100677013397217,0.6455222368240356,0.3295817971229553,0.7244502305984497,0.4859031140804291,0.7657826542854309,0.056088708341121674,0.9781789779663086,0.5335830450057983,0.5487587451934814,-0.11354677379131317,0.7429628372192383,0.4461206793785095,0.5369298458099365,-0.10670351982116699,0.8894213438034058,178.04479447413397,0.4980524033308029,0.5488500893115997,119.32656735529706,105.97644382985402,0.6059580763460402,-0.0017036003891529646,0.0011605787081183777,0.17761981623174564,-0.019837036100208056,-169.34651339587157,1.8766647775919523,35,1762115391.9742723
0.5021258592605591,0.3428700268268585,-0.30400434136390686,0.9999838471412659,0.5328759551048279,0.41155576705932617,-0.15129411220550537,0.9999402165412903,0.47110357880592346,0.40240737795829773,-0.12730388343334198,0.9999832510948181,0.5146012306213379,0.5498864054679871,-0.00255449116230011,0.9996431469917297,0.4806954860687256,0.5484638810157776,0.002462269039824605,0.9998674988746643,0.5065991282463074,0.6529111862182617,0.04382248967885971,0.9424936771392822,0.48497334122657776,0.6689956784248352,-0.038252271711826324,0.9810569286346436,0.5100370049476624,0.6515910029411316,0.31917548179626465,0.694178581237793,0.4859504699707031,0.7647554874420166,0.08711462467908859,0.9763385057449341,0.5329855680465698,0.5484427213668823,-0.14468437433242798,0.7193385362625122,0.4457463324069977,0.5401461720466614,-0.11950655281543732,0.8821802139282227,178.25120685394384,0.49764835834503174,0.5491751432418823,113.83870285085399,108.70970534642971,0.6250312185986817,-0.004777966832822086,0.0038438712333092747,-0.03635540946450732,0.03173082983235486,-171.57582104310148,1.9657700964739504,36,1762115392.0588365
0.5021625757217407,0.3417310416698456,-0.2973349094390869,0.9999838471412659,0.5328172445297241,0.40999636054039,-0.14700937271118164,0.9999391436576843,0.4706690311431885,0.4024176001548767,-0.1275118589401245,0.9999812245368958,0.514723539352417,0.5517821907997131,-0.003329745028167963,0.9996277093887329,0.48076313734054565,0.5509127974510193,0.0032637189142405987,0.9998648166656494,0.5094826817512512,0.6675301194190979,-0.0008675105054862797,0.9453721642494202,0.4849739670753479,0.6715785264968872,-0.001004561549052596,0.9803727865219116,0.5104790925979614,0.677340567111969,0.26609572768211365,0.6929630041122437,0.48617497086524963,0.7653105854988098,0.14046968519687653,0.9757960438728333,0.5334963202476501,0.5507650375366211,-0.14791470766067505,0.7237498760223389,0.44542431831359863,0.5457284450531006,-0.13932529091835022,0.8781283497810364,178.42143564645315,0.4977433383464813,0.5513474941253662,93.30999616703062,121.49277075235536,0.6282712148832149,0.0013193496893504843,0.030175725621630213,0.08469669969072324,0.36577093469190747,-173.04730599629963,3.637149106306229,37,1762115392.1308265
0.5020546913146973,0.3406435549259186,-0.2889783978462219,0.9999837279319763,0.5328817963600159,0.4092842936515808,-0.13628917932510376,0.99993896484375,0.4704630970954895,0.4027528166770935,-0.11967109143733978,0.999977171421051,0.5151336789131165,0.5552685856819153,-0.004804390948265791,0.9996331930160522,0.48083528876304626,0.5544729232788086,0.0047430600970983505,0.9998641014099121,0.5130354762077332,0.6868974566459656,-0.03602556139230728,0.9493812918663025,0.48489052057266235,0.6737761497497559,0.0035207669716328382,0.9800430536270142,0.5124105215072632,0.6804026961326599,0.2441318929195404,0.686255931854248,0.48627275228500366,0.7650753259658813,0.17435380816459656,0.9726862907409668,0.5341411828994751,0.5520877838134766,-0.1381273716688156,0.7282201647758484,0.4452700614929199,0.5519924163818359,-0.13611945509910583,0.8673522472381592,178.58072981809482,0.49798448383808136,0.5548707544803619,75.33280865577282,117.5309941037802,0.6278763497695841,0.0030785262946436726,0.044978861407535015,0.022458107760519503,0.18898069566929335,-174.02632363671125,9.714406815983686,38,1762115392.209158
0.5022771954536438,0.3402140438556671,-0.298027902841568,0.9999834895133972,0.5330139994621277,0.4092840552330017,-0.1378205120563507,0.9999314546585083,0.4705049395561218,0.4031718373298645,-0.12921172380447388,0.9999728202819824,0.5168561339378357,0.5592425465583801,-0.004332692362368107,0.9996268153190613,0.48101264238357544,0.5579208135604858,0.004258956294506788,0.9998610019683838,0.5171345472335815,0.6964625716209412,-0.04360788315534592,0.953111469745636,0.4848756790161133,0.6744370460510254,-0.009598116390407085,0.9800280928611755,0.5143999457359314,0.6996675133705139,0.2315797507762909,0.6858072876930237,0.48657602071762085,0.7658834457397461,0.16571058332920074,0.970217227935791,0.5343080163002014,0.5554614663124084,-0.14218847453594208,0.712314784526825,0.4455726146697998,0.5614274740219116,-0.14608469605445862,0.8491631746292114,178.93769134517828,0.49893438816070557,0.558581680059433,74.69510051807337,110.76953191048447,0.6330812115653554,0.011941504666678655,0.04665105112665672,0.1114189030090331,0.02102155012759497,-174.41529713230773,5.452457692434666,39,1762115392.2887044
0.5023609399795532,0.33979085087776184,-0.29626771807670593,0.9999812245368958,0.5331716537475586,0.40950340032577515,-0.13779963552951813,0.9999204874038696,0.47059565782546997,0.40333229303359985,-0.1268511265516281,0.9999672770500183,0.5173420310020447,0.5623387098312378,-0.004775213543325663,0.9996087551116943,0.4810793399810791,0.5601691007614136,0.004711228888481855,0.9998515844345093,0.5181424021720886,0.6989419460296631,-0.05175855755805969,0.9560115337371826,0.4849673807621002,0.6765913963317871,-0.003268397646024823,0.9787607789039612,0.5153238773345947,0.6988087892532349,0.22669728100299835,0.6731849908828735,0.48702675104141235,0.7660074830055237,0.1832326352596283,0.9641382694244385,0.534329354763031,0.557403028011322,-0.14245614409446716,0.6924902200698853,0.4455329477787018,0.5620000958442688,-0.141013041138649,0.8295837640762329,179.0109880935516,0.4992106854915619,0.5612539052963257,70.9908544745737,111.69971917895269,0.6366976787184956,0.003584352721030574,0.034666269736943846,-0.10841574264800435,-0.15547628944527245,-174.3678274517131,7.023462623248433,40,1762115392.3657887
0.5025986433029175,0.33981361985206604,-0.30374449491500854,0.9999757409095764,0.5335319638252258,0.4105895161628723,-0.14186079800128937,0.9998939633369446,0.4704892635345459,0.4053630530834198,-0.13436377048492432,0.9999586939811707,0.5184350609779358,0.5658335089683533,-0.00449105491861701,0.9995693564414978,0.48132389783859253,0.5634944438934326,0.004429350607097149,0.9998357892036438,0.5197087526321411,0.7061554789543152,-0.052664101123809814,0.9579110145568848,0.485125869512558,0.6785199642181396,-0.0077990577556192875,0.9760814309120178,0.5203904509544373,0.7061517238616943,0.22417744994163513,0.6517109274864197,0.4878939092159271,0.7660388350486755,0.18640795350074768,0.9529675245285034,0.5345152616500854,0.5603059530258179,-0.1479068100452423,0.6599886417388916,0.4457215666770935,0.5715969204902649,-0.1494809091091156,0.801075279712677,179.220759018767,0.49987947940826416,0.5646639764308929,71.05423283431183,108.20346619471812,0.6451049556489562,0.008911071155147384,0.04543609887194996,0.0709736823323725,0.1434981858448071,-175.26081464286457,1.2348180862949194,41,1762115392.4408407
0.5043543577194214,0.3405001759529114,-0.33569228649139404,0.9999743103981018,0.5344836711883545,0.4127446115016937,-0.15898747742176056,0.9998918175697327,0.47031012177467346,0.40812230110168457,-0.1703728586435318,0.9999502897262573,0.5200802683830261,0.571435809135437,-0.0016629562014713883,0.9995908737182617,0.4815751016139984,0.567838728427887,0.001576932379975915,0.9998143911361694,0.5203368067741394,0.7087797522544861,-0.03366083651781082,0.9613083600997925,0.4857262074947357,0.6874468922615051,-0.004818745423108339,0.9762259125709534,0.5195201635360718,0.7727842330932617,0.18159733712673187,0.6837611794471741,0.4883173406124115,0.766514003276825,0.22801069915294647,0.9484272003173828,0.5350145101547241,0.5616841912269592,-0.16503944993019104,0.6247085332870483,0.44580817222595215,0.584003210067749,-0.18351146578788757,0.7833582758903503,179.43527556117792,0.5008276849985123,0.569637268781662,93.44408904520375,105.70691742611699,0.6901487228788116,0.010916758621825489,0.05725786971463707,0.02309162292411323,0.13610489128036143,-175.8801983184213,1.766642749856627,42,1762115392.5276985
0.5047481656074524,0.3422563374042511,-0.37133723497390747,0.9999704957008362,0.5354772806167603,0.4153960049152374,-0.19170936942100525,0.999893844127655,0.4701390862464905,0.41133761405944824,-0.19632232189178467,0.9999440312385559,0.521067202091217,0.5779293775558472,-0.0036254264414310455,0.9996195435523987,0.48185667395591736,0.5747381448745728,0.0035989764146506786,0.9997764229774475,0.5195618271827698,0.708111047744751,-0.08034085482358932,0.9645176529884338,0.4862518310546875,0.6948747634887695,0.04032386094331741,0.9750436544418335,0.5205591917037964,0.8067799806594849,0.08597917854785919,0.7143677473068237,0.48870849609375,0.7659400701522827,0.32774585485458374,0.9331027865409851,0.5377223491668701,0.5695639848709106,-0.20909710228443146,0.5835980176925659,0.4460935592651367,0.5935250520706177,-0.20656511187553406,0.7670700550079346,179.52669897339757,0.5014619380235672,0.57633376121521,90.16482921571352,120.88221561409615,0.7290699908810439,0.00795196389071561,0.08395744903449513,-0.03717119148643836,0.3347466740587014,-176.44571876217574,0.7790705401393931,43,1762115392.607459
0.5055371522903442,0.34535595774650574,-0.3851800560951233,0.9999668002128601,0.5367091298103333,0.4196892976760864,-0.2024751603603363,0.9998994469642639,0.47011303901672363,0.41553306579589844,-0.20407244563102722,0.9999390244483948,0.5218232274055481,0.5842994451522827,-0.006665457971394062,0.9996470808982849,0.4821287989616394,0.5823917984962463,0.006728009320795536,0.9997196793556213,0.5194503664970398,0.7154461145401001,-0.10175774991512299,0.9675991535186768,0.4863409399986267,0.7002332210540771,0.06921103596687317,0.9732937812805176,0.5220524072647095,0.8330835700035095,0.0401618592441082,0.7423936128616333,0.48898211121559143,0.7656784653663635,0.37922099232673645,0.9158115983009338,0.5429378747940063,0.5834476947784424,-0.22352111339569092,0.5540645122528076,0.4471122622489929,0.6005789041519165,-0.214002326130867,0.7540526986122131,179.50389629398455,0.5019760131835938,0.5833456218242645,93.69739432488967,129.84738722127523,0.7483387170276474,0.006838787077211946,0.0932793985181802,-0.014808689076608284,0.12401071403674813,-176.4288280448698,0.5471928433545358,44,1762115392.6826296
0.5057104825973511,0.34653761982917786,-0.39282649755477905,0.9999586939811707,0.5372893810272217,0.4205682873725891,-0.21182675659656525,0.9999026656150818,0.4700382351875305,0.4174670875072479,-0.2051328867673874,0.9999186396598816,0.5222345590591431,0.5860703587532043,-0.010870630852878094,0.9996699690818787,0.48250117897987366,0.5839733481407166,0.010976262390613556,0.9996333122253418,0.519311785697937,0.7175728678703308,-0.0946706086397171,0.9703915119171143,0.486659437417984,0.69948810338974,0.09925845265388489,0.9713936448097229,0.5230292081832886,0.8348326683044434,0.025243651121854782,0.7677785158157349,0.48905524611473083,0.765332043170929,0.40569934248924255,0.9028895497322083,0.5443238615989685,0.5843470096588135,-0.2286878377199173,0.522939145565033,0.44749578833580017,0.5981245040893555,-0.21068647503852844,0.7259409427642822,179.55272006914205,0.5023678690195084,0.5850218534469604,101.82161302972128,139.50387975712647,0.7587683358361519,0.004835642938052577,0.02068530532385954,-0.02471952417862718,-0.8958374022428526,-177.3597494295968,0.42383976967590176,45,1762115392.7636645
0.5070328712463379,0.3494710922241211,-0.36794397234916687,0.9999546408653259,0.5388199687004089,0.42375311255455017,-0.1898978352546692,0.999906599521637,0.4700891375541687,0.4204631745815277,-0.1889549344778061,0.9999090433120728,0.5224610567092896,0.5939085483551025,-0.01012591551989317,0.9996919631958008,0.48269182443618774,0.5906699895858765,0.010197224095463753,0.9995731711387634,0.5195785760879517,0.7289265394210815,-0.06914813816547394,0.9729317426681519,0.4878348410129547,0.7065169811248779,0.10046318918466568,0.9699429273605347,0.5242752432823181,0.857417106628418,0.04580343887209892,0.7906883955001831,0.48945751786231995,0.7644696831703186,0.40522733330726624,0.8883410692214966,0.5453245639801025,0.586582362651825,-0.21417196094989777,0.5016556978225708,0.4481809735298157,0.6053259968757629,-0.199913889169693,0.7139101028442383,179.3677115821198,0.5025764405727386,0.5922892689704895,114.52169225408761,138.66532406638612,0.751765072329242,0.002262836264873254,0.07884570615623383,-0.027912915986918592,0.6309943141563136,-177.25951529014884,0.594213047591525,46,1762115392.855837
0.5083752870559692,0.3530687093734741,-0.35425451397895813,0.9999569654464722,0.5408108234405518,0.4271564483642578,-0.18558882176876068,0.9999145865440369,0.4705578684806824,0.4241674244403839,-0.1794952005147934,0.9999099969863892,0.523126482963562,0.6034738421440125,-0.009299634024500847,0.9997181296348572,0.483021080493927,0.6004661321640015,0.009346628561615944,0.999561607837677,0.5196601152420044,0.7425888180732727,-0.06384848058223724,0.9752306342124939,0.4897898733615875,0.7243160009384155,0.10639786720275879,0.9698563814163208,0.5242968797683716,0.8723878860473633,0.0637265294790268,0.8112248778343201,0.48936256766319275,0.7626870274543762,0.4196392595767975,0.8753172159194946,0.5535256266593933,0.6081388592720032,-0.2030337154865265,0.531655490398407,0.45242732763290405,0.6138027310371399,-0.1990470290184021,0.7259753942489624,179.15169283293957,0.5030737817287445,0.601969987154007,114.0310979177448,135.00774696079404,0.7555627048195601,0.00585033135985147,0.11387637739405039,0.042200479095715775,0.41207334648337574,-177.56372910122013,1.2397434421218847,47,1762115392.9408479
0.5095617175102234,0.35527390241622925,-0.33435726165771484,0.9999589920043945,0.542870819568634,0.42953383922576904,-0.1687776744365692,0.9999218583106995,0.47172483801841736,0.42675819993019104,-0.17363837361335754,0.9999112486839294,0.5240687131881714,0.6113530993461609,-0.00897910911589861,0.9997422099113464,0.4833267629146576,0.606853723526001,0.009009609930217266,0.99955153465271,0.5199898481369019,0.7528626322746277,-0.059624411165714264,0.9773150682449341,0.4899559020996094,0.7315898537635803,0.11871896684169769,0.9669941067695618,0.5240009427070618,0.8876895308494568,0.04942315071821213,0.8296959400177002,0.4893110394477844,0.7623683214187622,0.43218597769737244,0.850934624671936,0.5561480522155762,0.6086577773094177,-0.19181041419506073,0.5673996806144714,0.45374569296836853,0.6197981238365173,-0.190474733710289,0.7442007064819336,178.86026872990348,0.5036977380514145,0.6091034114360809,121.27666687889887,136.88350490254035,0.742623290428756,0.007193724264564401,0.08224275559513797,0.015488260611133281,-0.3647107088155118,-177.76583578156385,2.1376739069029793,48,1762115393.027584
0.5111020803451538,0.35495588183403015,-0.3336028456687927,0.9999614357948303,0.5454546213150024,0.4323359727859497,-0.1672881692647934,0.9999281764030457,0.4733261466026306,0.4263543486595154,-0.1730281412601471,0.9999125003814697,0.5257673263549805,0.6146117448806763,-0.008653719909489155,0.999764621257782,0.48390060663223267,0.6111463308334351,0.008677314966917038,0.9995598196983337,0.5208048820495605,0.7551377415657043,-0.055685557425022125,0.9791751503944397,0.48976069688796997,0.7337130904197693,0.10720755904912949,0.967044472694397,0.523506760597229,0.881827712059021,0.06634244322776794,0.8462769389152527,0.4892931878566742,0.7618370652198792,0.42978349328041077,0.8390218615531921,0.5574278235435486,0.6135867834091187,-0.182663232088089,0.5987741947174072,0.4555778503417969,0.6177698969841003,-0.18797798454761505,0.7596687078475952,178.5778654031012,0.5048339664936066,0.6128790378570557,117.51460345763783,133.73477171466146,0.7458759290226137,0.012044479799026472,0.040023163007930775,0.051419965277517354,-0.4475447112190679,-175.25930133013415,4.074834173737374,49,1762115393.12192
0.511864960193634,0.3544449508190155,-0.3423973023891449,0.9999629855155945,0.546360969543457,0.43478572368621826,-0.16748923063278198,0.9999323487281799,0.47382625937461853,0.42643114924430847,-0.17243537306785583,0.9999105930328369,0.5267173647880554,0.6167026162147522,-0.007219433784484863,0.9997840523719788,0.4844871461391449,0.6130078434944153,0.0072347125969827175,0.9995647668838501,0.5214217305183411,0.7558732628822327,-0.05401211231946945,0.9806936383247375,0.48988595604896545,0.7402975559234619,0.09457222372293472,0.9673700928688049,0.5232066512107849,0.8865302205085754,0.07250719517469406,0.860981822013855,0.48927101492881775,0.7610778212547302,0.4314926266670227,0.8219538927078247,0.5576761364936829,0.6236540675163269,-0.17884700000286102,0.6187071800231934,0.45652318000793457,0.6188902258872986,-0.1808956116437912,0.7695006728172302,178.60358513827217,0.5056022554636002,0.6148552298545837,117.2932124360288,127.95173175174362,0.7573886962103242,0.010609720964688452,0.027290311959832086,-0.01981336642653484,-0.17583487721604912,-173.42960450178697,7.664568737555981,50,1762115393.1943338
0.5133643746376038,0.3540993630886078,-0.33544808626174927,0.9999653100967407,0.5487536191940308,0.43526145815849304,-0.16238994896411896,0.9999374747276306,0.4751860201358795,0.425224632024765,-0.17199890315532684,0.9999135136604309,0.528721809387207,0.6179298162460327,-0.004085269290953875,0.9998016953468323,0.4856605529785156,0.614095151424408,0.004064268432557583,0.9995847940444946,0.5220464468002319,0.759533703327179,-0.02988532744348049,0.982195258140564,0.4899742603302002,0.7505910396575928,0.07015467435121536,0.9689556360244751,0.5230525732040405,0.8848659992218018,0.09757251292467117,0.874056339263916,0.48914995789527893,0.7637156844139099,0.38202103972435,0.8120463490486145,0.5611301064491272,0.622180700302124,-0.16214458644390106,0.6486435532569885,0.4569607675075531,0.6208106279373169,-0.18007659912109375,0.7827776670455933,178.52647748406997,0.5071911811828613,0.6160124838352203,124.13033413554481,118.22769992486033,0.7429935607763403,0.019975594147990734,0.01454872028510711,0.11774551779436887,-0.16018424335913745,-172.23110214751708,51.99146238674428,51,1762115393.2738771
0.5142534971237183,0.35275164246559143,-0.3295683264732361,0.9999663233757019,0.5514488816261292,0.43432289361953735,-0.15851104259490967,0.9999407529830933,0.47595447301864624,0.4244818687438965,-0.16735360026359558,0.999914288520813,0.5298798084259033,0.6198447942733765,-0.0028801318258047104,0.9998161792755127,0.48589444160461426,0.6148977279663086,0.002854853169992566,0.999595582485199,0.5227483510971069,0.7618939876556396,-0.028307592496275902,0.9835031032562256,0.4897397458553314,0.7575147747993469,0.06988830864429474,0.9701606035232544,0.5229114890098572,0.8847479224205017,0.10000759363174438,0.8857311606407166,0.4888167381286621,0.7696541547775269,0.3803688883781433,0.8016917705535889,0.5627164244651794,0.6194484829902649,-0.14564797282218933,0.6677837371826172,0.45660218596458435,0.6226973533630371,-0.1627383530139923,0.7903589606285095,178.22820082796568,0.5078871250152588,0.6173712611198425,123.5546636441763,117.3994494766873,0.7414817310172322,0.008540256822111628,0.016674200466364145,-0.14032844759045396,0.02608277532356459,-172.57312319799993,15.263899949569545,52,1762115393.355367
0.5160797238349915,0.3514629602432251,-0.36380720138549805,0.9999656081199646,0.5531171560287476,0.4340559244155884,-0.17705950140953064,0.9999405145645142,0.4758359491825104,0.4239767789840698,-0.18648386001586914,0.9999045729637146,0.5306733846664429,0.6225564479827881,-0.0014073059428483248,0.9998261332511902,0.48595720529556274,0.6171092391014099,0.001353634288534522,0.999590277671814,0.5231884717941284,0.7680256366729736,-0.03991914913058281,0.984388530254364,0.4882025122642517,0.7692479491233826,0.030487868934869766,0.9707562923431396,0.5227742195129395,0.8852675557136536,0.11462148278951645,0.8950796723365784,0.4869356155395508,0.7866471409797668,0.37334829568862915,0.7780436277389526,0.5634264349937439,0.6264886856079102,-0.15660889446735382,0.6622453927993774,0.4562007486820221,0.6246452331542969,-0.17119458317756653,0.7743386626243591,178.15062392899088,0.5083152949810028,0.619832843542099,112.33388393734315,103.74089417439578,0.7773493640611189,0.004727330399166079,0.027177790003474672,-0.04209768183448509,0.11596782140677042,-172.56932975666055,7.321107760591475,53,1762115393.4459403
0.5175163745880127,0.34824132919311523,-0.3605387806892395,0.9999626278877258,0.5548657178878784,0.4335160553455353,-0.17451976239681244,0.9999402761459351,0.47571611404418945,0.4239301085472107,-0.1817430853843689,0.99988853931427,0.532380998134613,0.6261142492294312,0.0018120979657396674,0.9998358488082886,0.4862355589866638,0.6206653118133545,-0.001877529313787818,0.9995943307876587,0.5242595672607422,0.7752012610435486,-0.0363190621137619,0.9852496981620789,0.4877011775970459,0.7882276177406311,0.00017485537682659924,0.9723257422447205,0.5227049589157104,0.8851561546325684,0.1583513468503952,0.9034327268600464,0.48479557037353516,0.7957054376602173,0.3480533957481384,0.7616128325462341,0.5653982162475586,0.624724268913269,-0.1520150601863861,0.6510639190673828,0.4538062512874603,0.626868724822998,-0.16573835909366608,0.7428575158119202,178.2396988351777,0.5093082785606384,0.6233897805213928,105.11163916947201,91.92880172244784,0.7868406311362574,0.011660110865365772,0.041767336711554075,0.08140818287326979,0.17131776957889155,-173.09444069322012,2.681464986842691,54,1762115393.531101
0.5180591344833374,0.3465201258659363,-0.36895322799682617,0.9999616742134094,0.5552225112915039,0.4333224892616272,-0.1806686967611313,0.9999402761459351,0.47565412521362305,0.42410582304000854,-0.1843244731426239,0.9998778700828552,0.5327107906341553,0.6275590062141418,0.0020007712300866842,0.9998422265052795,0.48624587059020996,0.6219912767410278,-0.0020702281035482883,0.9995905756950378,0.5242525339126587,0.7782912254333496,-0.029273465275764465,0.9855573177337646,0.4865207076072693,0.791634202003479,-0.007670881692320108,0.9733218550682068,0.522679328918457,0.8883028030395508,0.1671353280544281,0.9098943471908569,0.47846779227256775,0.7966635823249817,0.32322046160697937,0.7379891872406006,0.5674070119857788,0.6287950277328491,-0.15504559874534607,0.6466095447540283,0.45219263434410095,0.6288372278213501,-0.16704073548316956,0.7193388342857361,178.25882232436166,0.5094783306121826,0.6247751414775848,107.52713260130942,88.97796684481142,0.7895835262753704,0.001975400619277362,0.016092971922030876,-0.11250192187580553,-0.2982448941028962,-173.39268845959037,1.238037630769785,55,1762115393.6171858
0.5185088515281677,0.34531816840171814,-0.37435993552207947,0.9999626278877258,0.5562428832054138,0.43430355191230774,-0.18591828644275665,0.999941885471344,0.47556549310684204,0.4239785075187683,-0.19179245829582214,0.9998750686645508,0.5332944989204407,0.6313366293907166,0.0019487036624923348,0.9998481273651123,0.4862140119075775,0.6244520545005798,-0.0020231553353369236,0.9995896220207214,0.5240644216537476,0.7809303402900696,-0.031899746507406235,0.9858103394508362,0.48605018854141235,0.7944368720054626,-0.006970049347728491,0.9740167260169983,0.5225846171379089,0.8891627788543701,0.1672702133655548,0.9157634377479553,0.47902312874794006,0.8145458698272705,0.32323795557022095,0.7245537042617798,0.5696197748184204,0.63450026512146,-0.18343809247016907,0.6544458866119385,0.4481112062931061,0.6310663223266602,-0.19389654695987701,0.714655876159668,178.2276884106492,0.5097542554140091,0.6278943419456482,105.76416624567187,91.81867261200705,0.8005085117026515,0.0033564455645687537,0.037943042838954416,0.016799512586072235,0.26579188651820335,-172.70696467124594,1.4455355071038583,56,1762115393.6993933
0.5188864469528198,0.3454210162162781,-0.3708430826663971,0.9999639391899109,0.5573843121528625,0.43482449650764465,-0.1893068253993988,0.9999438524246216,0.47550421953201294,0.424243301153183,-0.19276803731918335,0.9998776912689209,0.5336169004440308,0.6347554326057434,0.001522540464065969,0.999843955039978,0.48614588379859924,0.6268487572669983,-0.001591914682649076,0.9995781779289246,0.523919939994812,0.7797980308532715,-0.029124990105628967,0.9850122332572937,0.484820693731308,0.8005662560462952,-0.007377508096396923,0.9731500148773193,0.5210488438606262,0.8873889446258545,0.17496219277381897,0.9177003502845764,0.4781617522239685,0.8490406274795532,0.27486640214920044,0.7194299101829529,0.5738511085510254,0.6461499929428101,-0.1836632788181305,0.6731458902359009,0.443260133266449,0.6330894827842712,-0.1901857703924179,0.7247533202171326,178.1323836171052,0.509881392121315,0.6308020949363708,105.8781622949044,97.84548990755081,0.7928505183576275,0.0015661804874323745,0.03582022920717345,-0.022054041594738644,-0.026150663793353596,-172.6365930114807,1.377013807107162,57,1762115393.7805696
0.5187456011772156,0.34561100602149963,-0.23598380386829376,0.9999666810035706,0.5583611130714417,0.4357537031173706,-0.12587037682533264,0.9999463558197021,0.47545990347862244,0.42490795254707336,-0.1236427053809166,0.9998835921287537,0.5338178873062134,0.6392083764076233,0.001298108254559338,0.9998329877853394,0.48597392439842224,0.6314143538475037,-0.0013412621337920427,0.9995896816253662,0.5236515998840332,0.7848679423332214,-0.0015072876121848822,0.9849937558174133,0.4845104217529297,0.8000274896621704,0.008568227291107178,0.9741748571395874,0.5207525491714478,0.8862645626068115,0.1620379388332367,0.9232677817344666,0.47800031304359436,0.8999587893486023,0.14574137330055237,0.7444816827774048,0.5792862176895142,0.6507256031036377,-0.0976843386888504,0.7027862668037415,0.4384593069553375,0.6342136263847351,-0.10762488842010498,0.7432237267494202,178.04005617887418,0.5098959058523178,0.6353113651275635,120.67747757523827,129.42355248950494,0.6724087024373788,0.00017742899197015403,0.055125402585289786,-0.016977355987184813,0.23600392288003869,-172.54647355391214,1.4906988837901511,58,1762115393.8623698
0.51841139793396,0.3473968803882599,-0.19965393841266632,0.9999693632125854,0.5592703819274902,0.4378220736980438,-0.11239928007125854,0.9999451637268066,0.47511833906173706,0.4284912645816803,-0.10405564308166504,0.9998903274536133,0.5341810584068298,0.647210955619812,0.0006642596563324332,0.9997504353523254,0.48557502031326294,0.6413218379020691,-0.0007868045940995216,0.9995958209037781,0.523095428943634,0.793647825717926,0.005101223476231098,0.9843041300773621,0.4843522012233734,0.8206557631492615,-0.009055432863533497,0.9748587012290955,0.5205451846122742,0.8858178853988647,0.15437138080596924,0.9249253273010254,0.4757237434387207,0.9560171961784363,0.049990344792604446,0.7669058442115784,0.5829890966415405,0.658744752407074,-0.09407911449670792,0.7304325103759766,0.43458861112594604,0.6380107998847961,-0.08760891854763031,0.7639079093933105,178.015124074957,0.5098780393600464,0.6442663967609406,123.39168540709805,153.63958933129587,0.6484144887165059,-0.00024061771524348346,0.12060225470238058,-0.005630061123732456,0.8818121832985132,-173.67286820930633,1.3087409106605399,59,1762115393.9366224
0.518192708492279,0.3482480049133301,-0.18063785135746002,0.999971866607666,0.5596510767936707,0.4393208920955658,-0.09345982223749161,0.9999443292617798,0.4749067723751068,0.4295887351036072,-0.09260959923267365,0.9998978972434998,0.5343180894851685,0.6508892774581909,0.0009254523320123553,0.9996513724327087,0.485095351934433,0.6455299854278564,-0.0010603629052639008,0.9996024370193481,0.5227082967758179,0.7966216802597046,0.012148573063313961,0.9834263324737549,0.4842238426208496,0.8241996765136719,-0.018763091415166855,0.9755933284759521,0.5204395651817322,0.8852214217185974,0.1590331345796585,0.9232223629951477,0.4751533567905426,0.9624525904655457,0.031510114669799805,0.7863752245903015,0.5823143720626831,0.661038339138031,-0.08216042816638947,0.7558054327964783,0.43281126022338867,0.6398881077766418,-0.08746360242366791,0.783902645111084,177.97116162658668,0.5097067207098007,0.6482096314430237,125.44205720688939,154.16672925240726,0.6386272340943809,-0.0021658322582978674,0.049850876505552005,-0.024338808153765764,-0.8944479599739305,-173.44877064111077,1.3353423342897404,60,1762115394.015723
0.5180195569992065,0.3514178693294525,-0.17238454520702362,0.9999743700027466,0.5607019662857056,0.4453858733177185,-0.09506861120462418,0.9999458193778992,0.4743088185787201,0.4345754384994507,-0.08121190965175629,0.9999053478240967,0.5346959829330444,0.664948046207428,2.4441411369480193e-05,0.9996157288551331,0.4847717881202698,0.6608997583389282,-0.00021137918520253152,0.999621570110321,0.5224873423576355,0.8001564145088196,-0.0011742956703528762,0.9827432036399841,0.4842475354671478,0.848725438117981,-0.02136322297155857,0.9759741425514221,0.5201119184494019,0.8850758075714111,0.15416774153709412,0.9166904091835022,0.4756545424461365,0.999785840511322,0.03264646232128143,0.8047695159912109,0.5860032439231873,0.6710132360458374,-0.09005279839038849,0.7790771126747131,0.43128329515457153,0.6456907987594604,-0.06753695756196976,0.8030979037284851,178.00355323754707,0.5097338855266571,0.6629239022731781,118.10588730123517,153.74891335171367,0.6483417185186169,0.00034268875514691067,0.1856230130443544,0.03164541649229726,1.712788446176609,-172.8676105698185,1.4168115862284871,61,1762115394.0949926
0.5178957581520081,0.3552681505680084,-0.16877125203609467,0.9999765157699585,0.5614432692527771,0.452961802482605,-0.08399681746959686,0.9999445080757141,0.47296142578125,0.441771537065506,-0.07269567251205444,0.9999128580093384,0.5346181988716125,0.6785054802894592,9.744015551405028e-05,0.9995176792144775,0.48415079712867737,0.6763217449188232,-0.00028443982591852546,0.9996399879455566,0.5201456546783447,0.8214245438575745,0.026255473494529724,0.9769896268844604,0.48426732420921326,0.8617665767669678,-0.023605942726135254,0.975527822971344,0.5200221538543701,0.8778541684150696,0.19666209816932678,0.8859883546829224,0.4790273606777191,1.0103892087936401,-0.001962874783203006,0.8178509473800659,0.587924599647522,0.6896854639053345,-0.0856686681509018,0.7995524406433105,0.428607314825058,0.6536906957626343,-0.07145935297012329,0.8199441432952881,178.05362566829672,0.509384498000145,0.6774136126041412,118.54293171932859,164.4091899381912,0.6464567248033137,-0.005533857854410471,0.2294987406207399,-0.09307708817411896,0.6949361990406211,-172.79209092099984,2.914137155305206,62,1762115394.158129
0.5168324112892151,0.3603505492210388,-0.1685541868209839,0.999978244304657,0.5616477131843567,0.4607265889644623,-0.08297181129455566,0.9999434351921082,0.47049522399902344,0.44897788763046265,-0.06677380204200745,0.9999183416366577,0.5346965193748474,0.6889520287513733,8.638687722850591e-05,0.9992927312850952,0.48260411620140076,0.6873283982276917,-0.00027191470144316554,0.9996200799942017,0.5197917222976685,0.8361990451812744,0.013887451961636543,0.9651800990104675,0.48497456312179565,0.877680778503418,-0.021716084331274033,0.9720561504364014,0.5197627544403076,0.8848676681518555,0.18361131846904755,0.8363462686538696,0.4833657741546631,1.0201719999313354,0.01403980515897274,0.8207862377166748,0.5891687870025635,0.7064834237098694,-0.08509986847639084,0.8182930946350098,0.4262024760246277,0.667382001876831,-0.06199060007929802,0.8340875506401062,178.17797175357094,0.5086503177881241,0.6881402134895325,111.2421730699106,159.43739836420644,0.6499150007328368,-0.011558998517295097,0.16888055779733863,-0.0948603501544627,-0.954378058553418,-172.6556028439831,9.051526046685238,63,1762115394.2216449
0.5154886245727539,0.3647209703922272,-0.17639659345149994,0.9999793767929077,0.5616415739059448,0.46816879510879517,-0.090998575091362,0.9999435544013977,0.4676249921321869,0.45443376898765564,-0.06520762294530869,0.9999215602874756,0.5346129536628723,0.7004003524780273,-0.0007103280513547361,0.9989485740661621,0.4805437922477722,0.6974154710769653,0.0005659569287672639,0.999505341053009,0.5190836787223816,0.8606541156768799,-0.011207113042473793,0.9317269921302795,0.4852737784385681,0.8911394476890564,-0.021529357880353928,0.954581618309021,0.5193511843681335,0.9446244239807129,0.1431056708097458,0.7686046957969666,0.48683294653892517,1.0515164136886597,0.033266033977270126,0.7965049147605896,0.5895231366157532,0.7241404056549072,-0.09388169646263123,0.8352885842323303,0.42472925782203674,0.6796331405639648,-0.05442162603139877,0.8452423810958862,178.29929892722765,0.5075783729553223,0.6989079117774963,114.67245084551062,154.61518003104547,0.6865049666023474,-0.013458565197999204,0.13519144363256472,-0.023849587439477595,-0.422976188302849,-171.688370146649,7.715876141115706,64,1762115394.3012927
0.5147980451583862,0.36940887570381165,-0.220698282122612,0.9999791383743286,0.5618299245834351,0.47037115693092346,-0.10440520942211151,0.9999430179595947,0.46657639741897583,0.4559169411659241,-0.08717180788516998,0.9999239444732666,0.5345564484596252,0.7009741067886353,-0.0017659820150583982,0.9985383749008179,0.4788505434989929,0.6972458958625793,0.001696878345683217,0.9993646144866943,0.5175231695175171,0.8642228841781616,-0.03088347241282463,0.8933030962944031,0.4851844906806946,0.8900943994522095,-0.02721492014825344,0.9345347881317139,0.517583966255188,0.9519656896591187,0.14556603133678436,0.7043184041976929,0.486677348613739,1.0527231693267822,0.042451657354831696,0.7667654156684875,0.5885911583900452,0.7213441729545593,-0.11101367324590683,0.8502843976020813,0.42596620321273804,0.6805813908576965,-0.06429784744977951,0.8554327487945557,178.1795909519651,0.5067034959793091,0.6991100013256073,106.23642069776473,148.25951780874672,0.706971324320953,-0.01375457298788533,0.003177195783855104,-0.004653752313296669,-2.0754913630833713,-171.37149650735392,9.64181211045741,65,1762115394.364899
0.5138595700263977,0.3710436224937439,-0.30040010809898376,0.9999778270721436,0.5614917278289795,0.4715360403060913,-0.1283332258462906,0.9999428987503052,0.4635433554649353,0.4576059579849243,-0.1219804659485817,0.9999251365661621,0.5339143872261047,0.7108615040779114,0.0021204326767474413,0.9979931116104126,0.47566428780555725,0.7065801620483398,-0.0020556142553687096,0.9989995360374451,0.5167828798294067,0.8865307569503784,-0.02272849902510643,0.8510698676109314,0.4845411777496338,0.9056718349456787,-0.026096707209944725,0.9038890600204468,0.5176509618759155,1.0224615335464478,0.16380414366722107,0.6522741913795471,0.48524707555770874,1.059354305267334,0.0797974020242691,0.7228707671165466,0.5871772170066833,0.7352997064590454,-0.12319038808345795,0.8634845018386841,0.4252062439918518,0.6870197653770447,-0.07730387151241302,0.8627625703811646,178.18699166565568,0.504789337515831,0.7087208330631256,117.86496429094363,138.49491747000127,0.7919127363120622,-0.020118785991008827,0.10101476477103578,-0.06689113877143897,1.0283229679725951,-171.90575383388014,9.807491014112786,66,1762115394.4600418
0.5128082633018494,0.3696731626987457,-0.28305500745773315,0.9999784231185913,0.5613850355148315,0.4709925353527069,-0.12385939061641693,0.9999444484710693,0.459900438785553,0.46054813265800476,-0.12006185203790665,0.9999271631240845,0.5331194996833801,0.7212221622467041,0.005487846210598946,0.9978236556053162,0.4728677272796631,0.7157688736915588,-0.005409895442426205,0.9987913966178894,0.517666757106781,0.9053094387054443,-0.020974176004529,0.8208500146865845,0.48281311988830566,0.9220530986785889,-0.025097021833062172,0.8799358606338501,0.5180269479751587,1.0490803718566895,0.16998127102851868,0.6044658422470093,0.48196941614151,1.0685979127883911,0.0900648683309555,0.6799208521842957,0.5864325761795044,0.7488844394683838,-0.09970275312662125,0.8750593066215515,0.4244266450405121,0.7021559476852417,-0.06624386459589005,0.8686473369598389,178.2663827001014,0.5029936134815216,0.7184955179691315,118.6791483246739,136.29716826118337,0.8035840612306093,-0.01878969709216461,0.1022781702790085,0.013907024320385519,0.013219741088173045,-174.1240269903174,31.50945735402582,67,1762115394.5556114
0.5124921798706055,0.36852696537971497,-0.28100818395614624,0.999977171421051,0.5611823201179504,0.46988216042518616,-0.1206439733505249,0.9999440312385559,0.457672119140625,0.4602256715297699,-0.10988567769527435,0.9999266266822815,0.5330733060836792,0.7271909713745117,0.00584635604172945,0.997821033000946,0.47174668312072754,0.7224690914154053,-0.00580163300037384,0.9986982345581055,0.5195855498313904,0.9241933822631836,-0.028676489368081093,0.8020952939987183,0.4813607335090637,0.9304095506668091,-0.02429007738828659,0.8617057204246521,0.518047571182251,1.06051766872406,0.21409769356250763,0.5615012049674988,0.47776666283607483,1.0780123472213745,0.15208818018436432,0.6410730481147766,0.5857328176498413,0.7591159343719482,-0.08520656079053879,0.8854030966758728,0.42106765508651733,0.7091792225837708,-0.015547221526503563,0.8749632239341736,178.45266902605235,0.5024099946022034,0.7248300313949585,109.35200847176688,124.7454238966099,0.8406166657585483,-0.005544877748229762,0.0601832870481532,0.12583709448415803,-0.39993733858260727,-174.67029029633161,2.7336024984564786,68,1762115394.660865
0.5113295316696167,0.3678918480873108,-0.3188210129737854,0.9999741911888123,0.5609529614448547,0.46946045756340027,-0.12921792268753052,0.9999418258666992,0.4549599289894104,0.46318599581718445,-0.11635394394397736,0.9999212622642517,0.5330604910850525,0.7362168431282043,0.0068882182240486145,0.9978213310241699,0.47090500593185425,0.733960747718811,-0.006871105171740055,0.9986220002174377,0.522468626499176,0.9491613507270813,-0.041943006217479706,0.7869516611099243,0.48089081048965454,0.9445471167564392,-0.02367299422621727,0.8444268703460693,0.5193936228752136,1.0638816356658936,0.27550822496414185,0.5200613141059875,0.47657838463783264,1.0911349058151245,0.20236194133758545,0.6101474165916443,0.5825982689857483,0.7668532729148865,-0.0938216969370842,0.8943735361099243,0.4173554480075836,0.7245523929595947,-0.06791454553604126,0.8804047107696533,178.72672952055802,0.5019827485084534,0.7350887954235077,96.97023776593197,118.31414823124553,0.9026767858987506,-0.0043917263013430055,0.1054513650622488,0.01185341566092273,0.4653173235144427,-176.6122195026572,1.6168221723356149,69,1762115394.7581494
0.5113703012466431,0.36742261052131653,-0.3416241705417633,0.9999704360961914,0.5609191656112671,0.4690939486026764,-0.14604255557060242,0.9999404549598694,0.45383256673812866,0.46366187930107117,-0.14004096388816833,0.9999136328697205,0.5327409505844116,0.7335562109947205,0.010021911934018135,0.9977422952651978,0.46933260560035706,0.7310059666633606,-0.010010517202317715,0.9984694123268127,0.5243405103683472,0.94904625415802,-0.029554804787039757,0.7683226466178894,0.4805153012275696,0.9431897401809692,-0.022115197032690048,0.8255583047866821,0.5202493667602539,1.063480257987976,0.27770549058914185,0.48060372471809387,0.47463458776474,1.087899923324585,0.2009337693452835,0.5736245512962341,0.5791203379631042,0.7617295980453491,-0.1088641881942749,0.9034613966941833,0.41685929894447327,0.7263357639312744,-0.10787157714366913,0.8853875994682312,178.63433669277447,0.5010367780923843,0.7322810888290405,100.03954739223855,119.57942534545697,0.9161509269632115,-0.00827052995593428,-0.024547513434416284,-0.033912013815179956,-1.1365679101386097,-177.09610622213353,1.2711407507120012,70,1762115394.8725278
0.5106046199798584,0.36590301990509033,-0.33000582456588745,0.9999678730964661,0.5607910752296448,0.4691223204135895,-0.1413256675004959,0.9999425411224365,0.4523184895515442,0.4647167921066284,-0.13426077365875244,0.9999090433120728,0.5326284766197205,0.7433807253837585,0.010809916071593761,0.9979063272476196,0.46897444128990173,0.7404257655143738,-0.010806714184582233,0.9985359311103821,0.5265064835548401,0.9723609685897827,-0.04146864265203476,0.7548675537109375,0.48010873794555664,0.9598181247711182,-0.036074571311473846,0.8029049038887024,0.5248821973800659,1.0975770950317383,0.2617121934890747,0.43976351618766785,0.4748900830745697,1.1042511463165283,0.20856158435344696,0.5251791477203369,0.5776224136352539,0.7624491453170776,-0.10141286998987198,0.912283718585968,0.4119388163089752,0.7411059141159058,-0.1189313530921936,0.8940191268920898,178.80140867708064,0.5008014589548111,0.7419032454490662,99.58420445041972,113.8926484577485,0.9272229994286935,-0.002326134962963312,0.09511523441642765,0.05876047808695574,1.1828689515465995,-177.67425543486814,1.6810439702314945,71,1762115394.973691
0.5105604529380798,0.3645508587360382,-0.20777416229248047,0.9999688267707825,0.5607863664627075,0.47396281361579895,-0.07224610447883606,0.9999443292617798,0.4502672553062439,0.46799761056900024,-0.08050858974456787,0.9999121427536011,0.5328410267829895,0.7577974796295166,0.01006376463919878,0.9980879426002502,0.4686903953552246,0.7560224533081055,-0.010040415450930595,0.9986398220062256,0.5263369083404541,0.9879302978515625,-0.04148002713918686,0.7671546936035156,0.4797578752040863,0.9826093912124634,-0.020024215802550316,0.8034836053848267,0.5247553586959839,1.1597964763641357,0.14791469275951385,0.42350056767463684,0.475125253200531,1.1434447765350342,0.195429265499115,0.48841995000839233,0.5771976709365845,0.7674042582511902,-0.018501397222280502,0.9202461838722229,0.4052106738090515,0.7557862401008606,-0.08229164779186249,0.9032212495803833,179.04603940849088,0.5007657110691071,0.756909966468811,119.59543956800289,124.10748678841327,0.8738254865879288,-0.0003837083726798359,0.1610781837398499,0.020849494489781028,0.7080288929980556,-176.91049233331788,1.5318430973124606,72,1762115395.0668552
0.5104423761367798,0.3641853630542755,-0.265939861536026,0.9999666810035706,0.5608838200569153,0.4799756705760956,-0.08847084641456604,0.9999389052391052,0.4481046199798584,0.471908837556839,-0.1222587451338768,0.999910831451416,0.5334885120391846,0.767362654209137,0.010851616971194744,0.9982450604438782,0.4682202935218811,0.7657126784324646,-0.01087100338190794,0.9987298846244812,0.5281599760055542,0.9992533922195435,-0.041208602488040924,0.76668781042099,0.4793420732021332,0.9873032569885254,-0.013890491798520088,0.7917441129684448,0.5247272253036499,1.1792570352554321,0.16729894280433655,0.3911738097667694,0.4741581082344055,1.16257905960083,0.22127631306648254,0.4463561773300171,0.5773084759712219,0.7832344770431519,-0.0443238839507103,0.9270443320274353,0.39862146973609924,0.7734353542327881,-0.12367336452007294,0.9116433262825012,179.2823862585809,0.5008544027805328,0.7665376663208008,118.15820905612223,125.79556560601522,0.9288422684764094,0.0010223768613030358,0.11098148178685091,0.01620838052546679,-0.5774802186244948,-175.90873434737455,0.8446310047514153,73,1762115395.1536057
0.5104912519454956,0.3627457916736603,-0.3058552145957947,0.9999616742134094,0.5608916878700256,0.4812138080596924,-0.11512511968612671,0.9999321103096008,0.44703659415245056,0.4729182720184326,-0.1470043808221817,0.9999036192893982,0.5339484810829163,0.7673008441925049,0.010657461360096931,0.9983656406402588,0.46765565872192383,0.7672735452651978,-0.010664627887308598,0.9987844228744507,0.5282742381095886,0.9979258179664612,-0.040333669632673264,0.7590699791908264,0.4789033532142639,0.9867925643920898,-0.0014916372019797564,0.7725529670715332,0.5251659750938416,1.1766177415847778,0.17492932081222534,0.3582099974155426,0.4743726849555969,1.1633992195129395,0.24075527489185333,0.4061910808086395,0.577392041683197,0.7829888463020325,-0.06327790021896362,0.9334446787834167,0.39749687910079956,0.7766061425209045,-0.1461888551712036,0.9192630052566528,179.37576514445695,0.50080206990242,0.7672871947288513,117.2353140668075,128.3642948727784,0.956908116150544,-0.0005745246103309732,0.008228527306277891,-0.017531219929278273,-1.1280499613659953,-175.83276609045683,0.8276664179421073,74,1762115395.2446947
0.5115536451339722,0.3626973330974579,-0.35492807626724243,0.9999593496322632,0.5612016916275024,0.48652079701423645,-0.13879595696926117,0.9999244213104248,0.44489264488220215,0.47762176394462585,-0.18283098936080933,0.9999005198478699,0.5356614589691162,0.7765666246414185,0.01428492646664381,0.9984617829322815,0.467846155166626,0.7805332541465759,-0.014225244522094727,0.9988282918930054,0.5292447805404663,1.0233969688415527,-0.02754109539091587,0.7540509700775146,0.47893962264060974,1.000429630279541,-0.0017589284107089043,0.755928635597229,0.5261220932006836,1.2040218114852905,0.2138073742389679,0.3289602994918823,0.4742448925971985,1.1935181617736816,0.24456457793712616,0.3699404001235962,0.5786606073379517,0.7948766946792603,-0.0739448219537735,0.9387066960334778,0.3897063136100769,0.7956300377845764,-0.1807418018579483,0.9259185194969177,179.75005395803416,0.5017538070678711,0.7785499393939972,117.19903599980061,131.20933195154865,1.019968621333447,0.011189025330257563,0.13240959786078868,0.13829727685018586,1.4599252760234742,-175.6247121147654,0.33080755856848926,75,1762115395.3297546
0.5125206112861633,0.3645850718021393,-0.40133315324783325,0.9999532699584961,0.5619097948074341,0.49372074007987976,-0.1659301221370697,0.9998981356620789,0.44293951988220215,0.48254597187042236,-0.21677109599113464,0.9998955130577087,0.5380078554153442,0.7892088890075684,0.017501000314950943,0.9984681606292725,0.46782365441322327,0.7945022583007812,-0.01737675443291664,0.9988075494766235,0.5326577425003052,1.0469752550125122,-0.008954357355833054,0.7497692108154297,0.47909221053123474,1.014981985092163,0.009205774404108524,0.7371456623077393,0.5302639603614807,1.2319605350494385,0.262162983417511,0.30097994208335876,0.47326549887657166,1.2313189506530762,0.2640901505947113,0.3365054428577423,0.580305278301239,0.804833710193634,-0.096893310546875,0.9408753514289856,0.38302552700042725,0.8225759863853455,-0.2155531942844391,0.9313071966171265,-179.90735681520826,0.5029157549142838,0.7918555736541748,118.44807607495805,137.03429698930748,1.0924313302988347,0.008168251076432128,0.09353583442135802,-0.02123541312688581,-0.27327445120658916,-174.6340041179463,0.11945222016576056,76,1762115395.4720063
0.5130547285079956,0.3688262104988098,-0.44485241174697876,0.9999501705169678,0.5632031559944153,0.5031381249427795,-0.1935945302248001,0.9998819231987,0.44146376848220825,0.4898890554904938,-0.2495228499174118,0.9998899102210999,0.5389450788497925,0.8056021928787231,0.018839653581380844,0.9984663724899292,0.4673653542995453,0.8090625405311584,-0.018714111298322678,0.9987838268280029,0.5338451266288757,1.0626803636550903,0.013678612187504768,0.7477582693099976,0.47869521379470825,1.028989553451538,0.014897932298481464,0.7298039793968201,0.5309185981750488,1.2450915575027466,0.3129158020019531,0.2766414284706116,0.47136712074279785,1.249462604522705,0.2741036117076874,0.30841386318206787,0.5863261222839355,0.8192496299743652,-0.13820365071296692,0.9449276328086853,0.3764870762825012,0.8470569849014282,-0.2650059759616852,0.9366958737373352,-179.84851962258952,0.5031552165746689,0.8073323667049408,120.21873725874458,138.87591686198184,1.1476046543636167,0.0024186654144391466,0.15632224389539084,-0.05807327972942207,0.6341696489008665,-173.78886456669045,0.16023879518171696,77,1762115395.571012
0.5140386819839478,0.37369880080223083,-0.48733821511268616,0.9999504089355469,0.564467191696167,0.509725034236908,-0.2151835858821869,0.999876081943512,0.43915921449661255,0.4996411204338074,-0.28441882133483887,0.9998871684074402,0.539379358291626,0.8179031610488892,0.020564284175634384,0.9983501434326172,0.46531301736831665,0.8267037868499756,-0.02042308822274208,0.9986571669578552,0.5349143147468567,1.0796219110488892,0.03155917301774025,0.7495539784431458,0.47071337699890137,1.0762461423873901,0.01911817118525505,0.7270825505256653,0.533338189125061,1.259628176689148,0.3589593768119812,0.26050224900245667,0.4675019383430481,1.2711561918258667,0.27722492814064026,0.2911369204521179,0.5910390615463257,0.830181360244751,-0.15953782200813293,0.9486406445503235,0.3689408004283905,0.876004695892334,-0.31125789880752563,0.9414616227149963,-179.9038545778507,0.5023461878299713,0.8223034739494324,121.20692577411054,136.0275869313695,1.2016740963736805,-0.008506333413550723,0.15741001865054297,-0.1148682085557692,0.011437139665076262,-175.39914894306577,0.22256084381987729,78,1762115395.666121
0.5146766901016235,0.377044677734375,-0.48596733808517456,0.9999482035636902,0.5655277967453003,0.5119345188140869,-0.21674326062202454,0.9998716711997986,0.4379507601261139,0.5021809339523315,-0.2749364972114563,0.9998822808265686,0.5403094291687012,0.823259711265564,0.01963156647980213,0.9980964660644531,0.4649333953857422,0.8324875831604004,-0.01948588714003563,0.9984198212623596,0.5362077355384827,1.0809170007705688,0.03393084555864334,0.7456497550010681,0.4679804742336273,1.0779016017913818,0.020966283977031708,0.7221333980560303,0.5359399318695068,1.2580195665359497,0.3696903884410858,0.24372664093971252,0.4665796756744385,1.2679553031921387,0.27953195571899414,0.27383625507354736,0.5930684804916382,0.830151379108429,-0.18509596586227417,0.9518299102783203,0.36793333292007446,0.8767553567886353,-0.30346548557281494,0.9451380372047424,-179.84245663813468,0.5026214122772217,0.8278736472129822,120.9827781644772,135.66698224179723,1.2008797204095678,0.002739952814066535,0.055452965972960656,0.11196059763225347,-1.015017074932103,-175.62809842263687,1.0560668801258593,79,1762115395.7665696
0.5151616334915161,0.3818388283252716,-0.5198965072631836,0.9999470710754395,0.5692050457000732,0.5234299302101135,-0.22066375613212585,0.999868631362915,0.4366389811038971,0.5127658843994141,-0.2883901000022888,0.9998786449432373,0.5409507751464844,0.8506571650505066,0.019646381959319115,0.9972932934761047,0.4618688225746155,0.8599612712860107,-0.019410690292716026,0.9974563121795654,0.5376878976821899,1.1155966520309448,0.0402822382748127,0.7240622043609619,0.46705326437950134,1.1158959865570068,0.01911884918808937,0.6815615296363831,0.5371900796890259,1.303123950958252,0.4109382629394531,0.2224338948726654,0.46585217118263245,1.3220508098602295,0.30338430404663086,0.24968469142913818,0.595726728439331,0.8462048172950745,-0.1901901364326477,0.9507771134376526,0.3655657470226288,0.9074514508247375,-0.3442566990852356,0.9457325339317322,179.74306042726343,0.5014097988605499,0.8553092181682587,121.28811390139747,134.4938724856092,1.2789485130342868,-0.012964462925877265,0.2935651236654464,-0.16803983253366644,2.547839267977662,-175.40084446404123,1.7781228676682868,80,1762115395.8600261
0.5158065557479858,0.38956519961357117,-0.5702865123748779,0.9999182224273682,0.5731394290924072,0.5341490507125854,-0.24621760845184326,0.9998525381088257,0.43566083908081055,0.5219811201095581,-0.31018489599227905,0.9998156428337097,0.5414758920669556,0.8731935024261475,0.019082168117165565,0.9960008859634399,0.46011558175086975,0.8787050843238831,-0.01890614628791809,0.9952580332756042,0.5373103022575378,1.140992283821106,0.08203144371509552,0.6840344667434692,0.45542627573013306,1.1355704069137573,0.07689862698316574,0.6266986727714539,0.5367265343666077,1.3327438831329346,0.49089866876602173,0.20132333040237427,0.45510345697402954,1.3418850898742676,0.43595704436302185,0.22563228011131287,0.59892737865448,0.8607966899871826,-0.21807125210762024,0.9476767182350159,0.36211535334587097,0.9338806867599487,-0.3600705862045288,0.9389797449111938,179.40638479135546,0.5007957369089127,0.8759492933750153,128.34949825934945,140.32644487810964,1.402565428603837,-0.006398833554862673,0.21507993689519384,0.06841715142262578,-0.8178550149966272,-174.9420552198181,7.934074729061196,81,1762115395.9559908
0.5173532366752625,0.3933018445968628,-0.5509710907936096,0.9998804330825806,0.5766571760177612,0.5420573949813843,-0.23042133450508118,0.9998466372489929,0.43618345260620117,0.5309612154960632,-0.2852369546890259,0.9997909665107727,0.5449021458625793,0.9021969437599182,0.017757516354322433,0.9946739673614502,0.4606357216835022,0.9053571820259094,-0.017338203266263008,0.9935609698295593,0.5426326990127563,1.1748168468475342,0.049092210829257965,0.6367046236991882,0.45790010690689087,1.1700704097747803,0.047173015773296356,0.5727011561393738,0.5412466526031494,1.3880966901779175,0.4018741548061371,0.18181268870830536,0.4563019871711731,1.3956795930862427,0.3425022065639496,0.20361746847629547,0.6033994555473328,0.8802498579025269,-0.2598331868648529,0.9471573829650879,0.3627091944217682,0.9548349976539612,-0.33481520414352417,0.9361996054649353,179.43038342640855,0.5027689337730408,0.9037770628929138,127.71232744635063,141.0722349629251,1.360052502402949,0.026687134616066737,0.3763656048162157,0.44748180099639784,2.181359807376568,-175.48351918528465,2.445530731541657,82,1762115396.029929
0.518412709236145,0.39383935928344727,-0.5728238224983215,0.9998679757118225,0.5835129022598267,0.5506150722503662,-0.24311690032482147,0.9998482465744019,0.4369998574256897,0.5349791049957275,-0.2685984671115875,0.9997780919075012,0.54949551820755,0.9218946695327759,-0.0008609617943875492,0.9892191886901855,0.4610859453678131,0.9231892228126526,0.0016119114588946104,0.9862943291664124,0.5460530519485474,1.2068291902542114,0.0010955292964354157,0.5926747918128967,0.45926183462142944,1.196635365486145,0.05600500851869583,0.523622989654541,0.5414116978645325,1.4348052740097046,0.390907347202301,0.1645933836698532,0.4561157822608948,1.4377213716506958,0.3615327477455139,0.18416984379291534,0.6089755296707153,0.9017577171325684,-0.3056398630142212,0.945173442363739,0.36381369829177856,0.9729074835777283,-0.3502076268196106,0.9243070483207703,179.25082734881258,0.5052907317876816,0.9225419461727142,120.7177850927474,139.52696141090897,1.409864556933738,0.031087613670430697,0.23132520470964443,0.05424716492465561,-1.7879940815799304,-173.90841368958655,1.2749746955497965,83,1762115396.111048
0.5191224813461304,0.39393603801727295,-0.5619277358055115,0.9998614192008972,0.5860146880149841,0.55302494764328,-0.22882704436779022,0.9998489618301392,0.4369622766971588,0.5360844135284424,-0.2568756341934204,0.9997711777687073,0.551761269569397,0.9230166077613831,-0.0027006433811038733,0.9850541949272156,0.4613272547721863,0.9251453876495361,0.0033607755322009325,0.9812272191047668,0.5508711338043213,1.2051361799240112,-0.04166058450937271,0.5616817474365234,0.45961636304855347,1.2003576755523682,0.03217306360602379,0.4834003448486328,0.548024594783783,1.437451720237732,0.29573941230773926,0.14997945725917816,0.45912161469459534,1.4456876516342163,0.35839781165122986,0.1680392622947693,0.6109002828598022,0.9040884375572205,-0.29562824964523315,0.9459319710731506,0.3660007119178772,0.9676388502120972,-0.3391534984111786,0.9197406768798828,179.25363034662976,0.5065442621707916,0.9240809977054596,116.68686364433329,132.9198177896511,1.3740788004111595,0.01476161163254935,0.01812391730984662,-0.19225549284054064,-2.510664796450381,-173.5158788517315,2.9576997915260015,84,1762115396.1959662
0.5201753377914429,0.3926745653152466,-0.6377130746841431,0.9998559355735779,0.591450572013855,0.5610970258712769,-0.29584819078445435,0.9998272061347961,0.4371459484100342,0.5361034274101257,-0.28448185324668884,0.9997788071632385,0.5552653670310974,0.942175567150116,-0.021648889407515526,0.9751968383789062,0.4608432650566101,0.9379270076751709,0.022314639762043953,0.9734534025192261,0.5494166016578674,1.2406946420669556,-0.023007037118077278,0.5414433479309082,0.45732131600379944,1.23138427734375,0.12070415914058685,0.45149970054626465,0.5456255674362183,1.4818565845489502,0.3024511933326721,0.13959157466888428,0.4550569951534271,1.4836723804473877,0.4384972155094147,0.15465079247951508,0.6155109405517578,0.9308360815048218,-0.3534497618675232,0.9240747094154358,0.3680526316165924,0.9684404134750366,-0.35906922817230225,0.900016725063324,179.08616593930947,0.5080543160438538,0.9400512874126434,126.28024861800553,146.97921818218595,1.484968352218491,0.019051361106933375,0.2014866897277786,0.05412096068403312,2.3133680547559687,-170.799383867373,2.0616074487464595,85,1762115396.2752285
0.5214136242866516,0.39194852113723755,-0.6982563734054565,0.9998526573181152,0.5958806872367859,0.5671233534812927,-0.3432101309299469,0.9997970461845398,0.43632635474205017,0.5374037027359009,-0.33501529693603516,0.9997853636741638,0.5573108196258545,0.9546159505844116,-0.026064688339829445,0.9613454341888428,0.4607045650482178,0.950916051864624,0.0265752375125885,0.9631359577178955,0.5480061769485474,1.2626413106918335,0.010260934010148048,0.5251202583312988,0.45072221755981445,1.254490852355957,0.13502655923366547,0.42754706740379333,0.5446184873580933,1.512025237083435,0.3813967704772949,0.13160282373428345,0.44500118494033813,1.5141311883926392,0.4642053246498108,0.14490443468093872,0.6233336925506592,0.9624094367027283,-0.39586156606674194,0.893990159034729,0.368537038564682,0.9817945957183838,-0.4221668243408203,0.8740705251693726,178.98497879801286,0.5090076923370361,0.9527660012245178,130.61818680235461,147.91639435079298,1.5856889001446193,0.010695104925030624,0.1426353888618456,-0.0937416183777393,-0.6602018974424994,-169.44862581697484,1.557687412452912,86,1762115396.3643699
0.5229424238204956,0.3902982473373413,-0.6946586966514587,0.9998533725738525,0.5992759466171265,0.5708770155906677,-0.3476509153842926,0.9997676610946655,0.43463850021362305,0.5388861894607544,-0.3232487142086029,0.9997923970222473,0.559084415435791,0.965382993221283,-0.03492928668856621,0.9526538252830505,0.4601430892944336,0.9638752341270447,0.0354594811797142,0.9556187391281128,0.5481645464897156,1.2798126935958862,0.033005960285663605,0.4909694790840149,0.4471457600593567,1.273958444595337,0.2025199681520462,0.3932790458202362,0.5435096025466919,1.537222981452942,0.43379849195480347,0.12040705978870392,0.4409072995185852,1.535337209701538,0.5802799463272095,0.13240604102611542,0.6326465606689453,0.9887294173240662,-0.3831304609775543,0.8608925342559814,0.36795225739479065,0.9821235537528992,-0.4120957851409912,0.8460198640823364,178.97325829282272,0.5096137523651123,0.9646291136741638,134.89342711155683,152.96973862195694,1.6608121068918704,0.006849905685798976,0.13408111021288063,-0.04345980746404273,-0.09668349543106533,-169.0038402447309,1.3479942045629352,87,1762115396.452847
0.5241513848304749,0.3867548108100891,-0.7900288105010986,0.999860405921936,0.6051591634750366,0.578953206539154,-0.41224607825279236,0.9997411370277405,0.43213486671447754,0.5419601798057556,-0.3733433187007904,0.9997965097427368,0.5596617460250854,0.9814063906669617,-0.041722215712070465,0.9285399317741394,0.457942396402359,0.9774526953697205,0.04233226552605629,0.9352238178253174,0.5475011467933655,1.312667965888977,0.055713504552841187,0.44906866550445557,0.4381079077720642,1.2994409799575806,0.18557307124137878,0.3589330315589905,0.540621817111969,1.5750460624694824,0.5073657035827637,0.10897266864776611,0.43097415566444397,1.5635484457015991,0.5725107789039612,0.11986009776592255,0.6378412842750549,1.0233913660049438,-0.4899316430091858,0.8266831636428833,0.3645048141479492,0.9937161803245544,-0.47102993726730347,0.8170053362846375,178.65392244078723,0.5088020712137222,0.9794295430183411,136.5396097391785,148.2338117129497,1.780081450958298,-0.010142638594275092,0.18494381152131945,-0.2123361311702808,0.6355722273660835,-167.93171634243114,1.4049070892686608,88,1762115396.5328736
0.5246120691299438,0.3834628164768219,-0.7353299856185913,0.9998622536659241,0.6066616773605347,0.5810750722885132,-0.36870789527893066,0.9997329115867615,0.4314534664154053,0.5429413914680481,-0.33055034279823303,0.9997995495796204,0.5605725049972534,0.9896256327629089,-0.04213371127843857,0.9200940132141113,0.4575558602809906,0.9803813695907593,0.04281143099069595,0.9258416891098022,0.5472662448883057,1.3212006092071533,0.05145341902971268,0.41164618730545044,0.4343338906764984,1.3070645332336426,0.18713988363742828,0.3276364505290985,0.5397763252258301,1.5878106355667114,0.5145644545555115,0.09870420396327972,0.4275381565093994,1.5752719640731812,0.5920411348342896,0.10852984338998795,0.6349912285804749,1.0065668821334839,-0.44781360030174255,0.8059667348861694,0.36452382802963257,0.9874266982078552,-0.4191073477268219,0.7932987213134766,178.646621901053,0.509064182639122,0.9850035011768341,135.68505061691155,147.25523589045122,1.7600124410657552,0.0022129438216722057,0.04705959021161731,0.10431521528994453,-1.1641233692426602,-167.72119434371106,1.3988845709800508,89,1762115396.6513183
0.5260473489761353,0.3811607360839844,-0.7804805040359497,0.9998629093170166,0.6091945767402649,0.5843067169189453,-0.4073919653892517,0.9997178316116333,0.42930489778518677,0.5457298755645752,-0.35032838582992554,0.9998058080673218,0.5615462064743042,0.99317467212677,-0.040847428143024445,0.8900355100631714,0.4555915892124176,0.9775384664535522,0.04161742329597473,0.8992947936058044,0.548014760017395,1.3346800804138184,0.0843869000673294,0.3731028437614441,0.4323853850364685,1.318636417388916,0.18183180689811707,0.2966984212398529,0.5395222902297974,1.608850121498108,0.5436207056045532,0.08906599879264832,0.42641934752464294,1.5945245027542114,0.5652288198471069,0.09789510071277618,0.6334941983222961,1.0334744453430176,-0.4773699641227722,0.7588553428649902,0.36052370071411133,0.9910858273506165,-0.4177693724632263,0.7547456622123718,178.5444214806475,0.5085688978433609,0.9853565692901611,140.97208345098167,147.98101604959274,1.8092851575964848,-0.0037242090845692835,0.0026548351299652386,-0.04464340310693973,-0.3338939407962912,-167.89639593761842,1.4772426994716779,90,1762115396.784309
0.5261409878730774,0.3789057433605194,-0.7539131045341492,0.9998597502708435,0.6115128993988037,0.5879817605018616,-0.3870261311531067,0.9997022151947021,0.42750459909439087,0.5494233965873718,-0.33057013154029846,0.9998154044151306,0.5622115731239319,0.9973850846290588,-0.039240043610334396,0.8716539144515991,0.45412391424179077,0.9795339107513428,0.040086209774017334,0.8827627897262573,0.5496065616607666,1.342048168182373,0.09863597899675369,0.3372108042240143,0.43146568536758423,1.3249309062957764,0.19929642975330353,0.268147349357605,0.5393886566162109,1.6177005767822266,0.5768849849700928,0.0802810937166214,0.4255109429359436,1.603897213935852,0.6118465662002563,0.08822400122880936,0.6331950426101685,1.0372817516326904,-0.4106386601924896,0.7041844129562378,0.3592250943183899,0.9857761859893799,-0.2960221767425537,0.7132775783538818,178.45235734432276,0.5081677436828613,0.9884594976902008,141.7646365463495,148.71783174150335,1.826834857460847,-0.0040577309866491745,0.031386558979009105,-0.003373621141334734,0.29062544438508087,-168.16508883781154,1.4023187312646113,91,1762115396.8831706
0.5262027978897095,0.37887054681777954,-0.7712417840957642,0.999858558177948,0.6127589344978333,0.5958141088485718,-0.3990163505077362,0.9996960163116455,0.423346608877182,0.5591460466384888,-0.32614728808403015,0.9998165965080261,0.5624796748161316,1.0116102695465088,-0.039045549929142,0.8598511815071106,0.45107120275497437,0.9998313188552856,0.039935365319252014,0.8709062337875366,0.5542972683906555,1.3633832931518555,0.07686743140220642,0.3058536946773529,0.43478450179100037,1.3510417938232422,0.18753556907176971,0.2427968829870224,0.5434892773628235,1.6451985836029053,0.5448658466339111,0.07252439856529236,0.42908698320388794,1.640012502670288,0.5945050120353699,0.07965202629566193,0.6325849294662476,1.1135241985321045,-0.42909401655197144,0.6538970470428467,0.3572239279747009,0.9983990788459778,-0.27201083302497864,0.662355899810791,178.49151597880592,0.506775438785553,1.0057207942008972,139.30153701947575,148.13424041968528,1.8430152233037242,-0.0162681631788906,0.20168684952419158,-0.14267083580053647,1.989846420390734,-169.04371791725498,1.3663275884746588,92,1762115396.9687552
0.5258826017379761,0.3794812560081482,-0.7421231865882874,0.9998590350151062,0.6145094037055969,0.6053983569145203,-0.3553691804409027,0.9996768832206726,0.41999951004981995,0.5672166347503662,-0.27419161796569824,0.9998225569725037,0.5618959665298462,1.0172502994537354,-0.03654339909553528,0.8297735452651978,0.4464487135410309,0.9999813437461853,0.03742820769548416,0.8437286615371704,0.5539000034332275,1.3759682178497314,0.09778982400894165,0.27628540992736816,0.4324279725551605,1.3626629114151,0.16940264403820038,0.21938224136829376,0.5434530973434448,1.6634974479675293,0.543434739112854,0.0653691217303276,0.426595538854599,1.656445026397705,0.5459500551223755,0.07177218794822693,0.6321877241134644,1.0891220569610596,-0.3073859214782715,0.5966293215751648,0.3581683039665222,0.991015613079071,-0.09425410628318787,0.6118356585502625,178.22567916684434,0.5041723400354385,1.0086158215999603,143.3673900547902,147.93725262113662,1.8158244236980827,-0.0315752581821547,0.03511631572402345,-0.1856731238972727,-2.0204794804839463,-168.89421422300526,1.6070074097990805,93,1762115397.0511963
0.5258151888847351,0.37966930866241455,-0.7176817655563354,0.9998612999916077,0.6155063509941101,0.6069372892379761,-0.3550608158111572,0.9996752142906189,0.4181854724884033,0.5709226131439209,-0.27139267325401306,0.9998305439949036,0.5614628791809082,1.023167371749878,-0.03637253865599632,0.8048001527786255,0.44373899698257446,1.0110337734222412,0.03742808476090431,0.8203564286231995,0.5539459586143494,1.3932294845581055,0.09421784430742264,0.24962985515594482,0.4309534430503845,1.379158616065979,0.17397448420524597,0.19824795424938202,0.5437278151512146,1.685143232345581,0.5519824028015137,0.05892663076519966,0.42630863189697266,1.676409363746643,0.5611391663551331,0.06467442214488983,0.6308225989341736,1.100035548210144,-0.32624292373657227,0.5462128520011902,0.3571777939796448,1.008385419845581,-0.18294915556907654,0.5684594511985779,178.09450742295132,0.5026009380817413,1.0171005725860596,141.96949877804667,147.84719428010038,1.8216031035270623,-0.01911774303490885,0.10322584153964409,0.15155865937304425,0.8286233892664673,-169.65632679909464,1.9165848839738628,94,1762115397.1333923
0.5249507427215576,0.38116174936294556,-0.6767512559890747,0.9998587369918823,0.6144855618476868,0.6051913499832153,-0.2867109179496765,0.9996320009231567,0.41325387358665466,0.5776214599609375,-0.25656208395957947,0.9998237490653992,0.5612224340438843,1.0313798189163208,-0.02938314899802208,0.7834093570709229,0.4402903914451599,1.0161964893341064,0.03066868521273136,0.7979532480239868,0.5535420775413513,1.398627519607544,0.08454813808202744,0.2260674089193344,0.4283444285392761,1.389400601387024,0.12432871013879776,0.17982715368270874,0.5440647602081299,1.6949490308761597,0.5258833169937134,0.05320948362350464,0.4252718389034271,1.6889514923095703,0.4613505005836487,0.058387789875268936,0.6240143179893494,1.073524832725525,-0.2939656972885132,0.5045126080513,0.35896652936935425,1.0079293251037598,-0.11393803358078003,0.5323863625526428,178.2628619246903,0.5007564127445221,1.0237881541252136,141.12037547716022,145.69796266714107,1.7577118194250676,-0.024070876308707082,0.08727228885673838,-0.0646379076331265,-0.20819231135832414,-172.1987206537891,2.0894522250621432,95,1762115397.2100213
0.5201712250709534,0.38425225019454956,-0.6805523633956909,0.9998664259910583,0.6132543683052063,0.6096007227897644,-0.27532249689102173,0.9996026754379272,0.4061737060546875,0.5845662951469421,-0.2670292258262634,0.9998225569725037,0.5611172318458557,1.0401941537857056,-0.022657696157693863,0.7417119145393372,0.4337986409664154,1.0247012376785278,0.024170804768800735,0.7548401355743408,0.5534359216690063,1.418225646018982,0.09028603881597519,0.20380927622318268,0.4216840863227844,1.410252332687378,0.11499625444412231,0.1622355729341507,0.5437422394752502,1.716734528541565,0.5391192436218262,0.047933489084243774,0.4172836244106293,1.7129452228546143,0.47016388177871704,0.05259693041443825,0.6125102639198303,1.0664427280426025,-0.2691727876663208,0.46234130859375,0.36586567759513855,1.0025585889816284,-0.10893242061138153,0.4936645030975342,178.38747087319138,0.49745793640613556,1.0324476957321167,140.26829927055542,143.6826393791285,1.7823357853703488,-0.04216413759684016,0.11069417099945751,-0.23128459332880766,0.29939989259575955,-173.10684079949996,1.7389295514752452,96,1762115397.2882507
0.5142704844474792,0.3979758024215698,-0.7270001173019409,0.9998735189437866,0.6129263639450073,0.6169446110725403,-0.2933043837547302,0.9995788931846619,0.4003286361694336,0.5917448997497559,-0.28917568922042847,0.9998148679733276,0.5560666918754578,1.063625693321228,-0.02281660959124565,0.68918776512146,0.426848828792572,1.0366414785385132,0.02428123727440834,0.6991565227508545,0.5475949048995972,1.4404966831207275,0.09404696524143219,0.18381671607494354,0.4135267734527588,1.4293437004089355,0.12905250489711761,0.1463499367237091,0.5366230607032776,1.7441502809524536,0.533027172088623,0.043187882751226425,0.41006404161453247,1.7367701530456543,0.4991990625858307,0.04737861454486847,0.6133742332458496,1.0725592374801636,-0.2704903781414032,0.4231207072734833,0.3655884861946106,0.9965254068374634,-0.05493614077568054,0.4544216990470886,178.05103504719236,0.4914577603340149,1.0501335859298706,141.9090228076595,144.62725450090952,1.8301010713583312,-0.06563689130225,0.19346879800532574,-0.2567722288492684,0.9054849607851972,-173.24013655710309,2.101570301282693,97,1762115397.3796654
0.5089868903160095,0.40882882475852966,-0.7980919480323792,0.9998803734779358,0.6104413866996765,0.6222306489944458,-0.34556347131729126,0.9995598793029785,0.39230743050575256,0.600243866443634,-0.3370579183101654,0.9997955560684204,0.5561346411705017,1.0914736986160278,-0.0250006802380085,0.6217464804649353,0.42096376419067383,1.083073377609253,0.02688327059149742,0.6306395530700684,0.5480259656906128,1.464772343635559,0.09293532371520996,0.16547757387161255,0.415935218334198,1.4586654901504517,0.13127568364143372,0.1317482888698578,0.5366407036781311,1.7773642539978027,0.5137983560562134,0.038876231759786606,0.40974053740501404,1.7736607789993286,0.4991927742958069,0.04264471307396889,0.6139256954193115,1.101935625076294,-0.36312609910964966,0.3847276568412781,0.36543038487434387,1.03408944606781,-0.25212225317955017,0.4153381884098053,178.45673011592945,0.48854920268058777,1.0872735381126404,144.14352626835566,146.10397735720622,1.8897233304950192,-0.035266361394653695,0.4503231951804025,0.36824371770881453,3.1143683832118114,-174.24431895544907,1.4589065571056572,98,1762115397.4621394
0.506951630115509,0.4109728932380676,-0.7742905020713806,0.9998854994773865,0.6089130640029907,0.6225125789642334,-0.3405015170574188,0.9995327591896057,0.389818012714386,0.6025501489639282,-0.32384175062179565,0.9997774362564087,0.5570318698883057,1.1044139862060547,-0.027118166908621788,0.5612150430679321,0.42056208848953247,1.0990055799484253,0.029224932193756104,0.5691762566566467,0.5499557256698608,1.4811220169067383,0.05064390227198601,0.14898252487182617,0.41775017976760864,1.4756430387496948,0.13192525506019592,0.1186135932803154,0.5382070541381836,1.8000941276550293,0.45192962884902954,0.0349980928003788,0.41111820936203003,1.798119068145752,0.4952753484249115,0.03838568925857544,0.6172789335250854,1.1207131147384644,-0.3601648211479187,0.35028454661369324,0.36542409658432007,1.0561821460723877,-0.2648283541202545,0.3805657625198364,178.76233369060537,0.48879697918891907,1.10170978307724,140.15150149832346,146.84112642659792,1.866867611185651,0.002761135539407787,0.1608725108598908,0.4237652470223888,-3.2255381140275503,-174.79397807902623,1.149841160573348,99,1762115397.5518765
0.5045422315597534,0.4117244780063629,-0.7511807084083557,0.999889075756073,0.6024850606918335,0.6204501390457153,-0.2852586507797241,0.9993882179260254,0.3872644603252411,0.5978959798812866,-0.30955421924591064,0.9995108842849731,0.5546110272407532,1.1150834560394287,-0.02720395103096962,0.5134720206260681,0.4122087061405182,1.1137213706970215,0.029271360486745834,0.5205362439155579,0.547286868095398,1.4896502494812012,0.017433755099773407,0.13442791998386383,0.41471952199935913,1.4823970794677734,0.10396758466959,0.10701952874660492,0.5375351309776306,1.811812162399292,0.3770952820777893,0.031555745750665665,0.40898194909095764,1.8092339038848877,0.43201184272766113,0.034596990793943405,0.6169734001159668,1.118301510810852,-0.2769591212272644,0.33150172233581543,0.4581372141838074,0.40838584303855896,-0.3740581274032593,0.39975640177726746,178.70004127143002,0.4834098666906357,1.114402413368225,138.65603585894752,146.33027576976318,1.8147555680951852,-0.06767315738558255,0.15944541117204325,-0.8847988587529874,-0.017927292554480122,-174.0174942115423,1.480170985995948,100,1762115397.6314814
0.5009447932243347,0.4107699990272522,-0.6997883915901184,0.9998889565467834,0.5991554856300354,0.6200082302093506,-0.257712185382843,0.9993464350700378,0.38301047682762146,0.5952367782592773,-0.3063783645629883,0.9992272257804871,0.5537413358688354,1.1248234510421753,-0.021469786763191223,0.4739464223384857,0.40995144844055176,1.1283533573150635,0.02339649386703968,0.4789244830608368,0.5472502112388611,1.504461646080017,0.022130025550723076,0.12183480709791183,0.415900319814682,1.5060521364212036,0.03169591724872589,0.0969468206167221,0.5385285019874573,1.8355473279953003,0.3907623589038849,0.028530212119221687,0.41034698486328125,1.8402917385101318,0.3073907792568207,0.031225016340613365,0.6163910031318665,1.1176517009735107,-0.16981062293052673,0.3115224540233612,0.47944873571395874,0.19752056896686554,-0.13300587236881256,0.4127849042415619,178.98035361969613,0.4818463921546936,1.1265884041786194,138.4860810656612,141.70747613288364,1.7713204460094938,-0.017220953683983856,0.13422308999283084,0.5557078437971681,-0.27781227953806187,-173.46210094522456,1.2939077505020824,101,1762115397.7222705
0.4973582625389099,0.40999576449394226,-0.6162808537483215,0.9998701810836792,0.5962292551994324,0.623551070690155,-0.19405122101306915,0.9991386532783508,0.381441205739975,0.594012439250946,-0.2714370787143707,0.9989721775054932,0.5534063577651978,1.1404110193252563,-0.015552805736660957,0.4377792775630951,0.4067113399505615,1.1421536207199097,0.017521090805530548,0.4421076476573944,0.54642254114151,1.5215942859649658,-0.03192004933953285,0.11052128672599792,0.4144838750362396,1.5182009935379028,-0.06500279158353806,0.08818836510181427,0.5370485782623291,1.8652770519256592,0.3017462491989136,0.025837412104010582,0.4112638831138611,1.869970679283142,0.15699562430381775,0.02826300449669361,0.611160159111023,1.1080644130706787,0.007260328624397516,0.29049181938171387,0.49617117643356323,0.18089334666728973,0.28728947043418884,0.4065013527870178,179.0557679463356,0.48005884885787964,1.141282320022583,133.39705765302364,135.34031805669713,1.6853323014183919,-0.021626260149703622,0.17777160823225696,-0.053296781027140715,0.5268636492657541,-172.16954256664516,1.393523833657687,102,1762115397.8049266
0.4951961636543274,0.4092365801334381,-0.6409546136856079,0.9998197555541992,0.5963016152381897,0.6248082518577576,-0.20706593990325928,0.9985162615776062,0.37949270009994507,0.5928348302841187,-0.26868894696235657,0.9982017278671265,0.5535074472427368,1.1610075235366821,-0.01478560734540224,0.4013625979423523,0.40403398871421814,1.159700870513916,0.016762571409344673,0.40519002079963684,0.5455478429794312,1.5488611459732056,-0.05990946292877197,0.10034871101379395,0.4098517894744873,1.5359846353530884,-0.11336995661258698,0.08037833124399185,0.536878228187561,1.8994200229644775,0.2805989980697632,0.023379681631922722,0.408943235874176,1.9002293348312378,0.11664430052042007,0.025601202622056007,0.6116163730621338,1.1214677095413208,-0.014337576925754547,0.26925262808799744,0.4656509459018707,0.17804796993732452,0.20629222691059113,0.3984972834587097,179.0519894850061,0.4787707179784775,1.160354197025299,129.20654039835333,128.6435387982656,1.7109172458074668,-0.01577689216851462,0.23359035307241036,0.07164244671784564,0.6836621436586102,-171.61089727287722,1.9052775101611386,103,1762115397.8865733
0.4948256015777588,0.4086456298828125,-0.6520212292671204,0.9997466206550598,0.5965626835823059,0.626011073589325,-0.20796890556812286,0.9978432655334473,0.3795846104621887,0.5917561650276184,-0.25931960344314575,0.9969284534454346,0.5551059246063232,1.1570030450820923,-0.013943463563919067,0.36845090985298157,0.4061904549598694,1.1541823148727417,0.015946846455335617,0.3713591992855072,0.5455073118209839,1.549039602279663,-0.02825208567082882,0.09175338596105576,0.4106641411781311,1.534062385559082,-0.08434341847896576,0.07384005934000015,0.5369024872779846,1.903544306755066,0.3303222954273224,0.021219870075583458,0.40960031747817993,1.9003862142562866,0.1771457940340042,0.023241866379976273,0.6140104532241821,1.1136212348937988,-0.09052033722400665,0.2507443428039551,0.4646679759025574,0.1835160106420517,0.31741154193878174,0.37738344073295593,179.22185082887404,0.4806481897830963,1.155592679977417,132.5915362358301,129.68556456643063,1.7466715723482515,0.025426742244939474,-0.06448558448309821,0.5580239283531153,-4.036864902576419,-171.02860675906336,1.5356689753582748,104,1762115397.9604118
0.49325260519981384,0.4081977307796478,-0.6465882658958435,0.9997618794441223,0.597700834274292,0.6315305233001709,-0.19384393095970154,0.99751216173172,0.37703344225883484,0.5978007316589355,-0.2159084528684616,0.9968791604042053,0.5590146780014038,1.1752899885177612,-0.014515487477183342,0.3321453928947449,0.4055554270744324,1.168380856513977,0.016471832990646362,0.33483120799064636,0.548324704170227,1.5885560512542725,-0.017387233674526215,0.08270247280597687,0.41148853302001953,1.5690038204193115,-0.07203467190265656,0.06654142588376999,0.539760947227478,1.9515490531921387,0.3489278554916382,0.019116070121526718,0.40951839089393616,1.948350191116333,0.21131901443004608,0.02093147300183773,0.6098923683166504,1.1267434358596802,-0.15643560886383057,0.2338189333677292,0.4039369225502014,0.7034555077552795,-0.25662270188331604,0.3539007604122162,179.4774052879532,0.4822850525379181,1.1718354225158691,134.34857073182042,130.77380997606107,1.7989274339043055,0.022033125908619732,0.21863677354548636,-0.04568005216284788,3.810991815662837,-171.30940371949413,0.9647179980452353,105,1762115398.0347028
0.49081745743751526,0.40784522891044617,-0.6535810828208923,0.9997750520706177,0.5980769991874695,0.6330461502075195,-0.19844107329845428,0.9971467852592468,0.37066102027893066,0.6040420532226562,-0.22153206169605255,0.9967571496963501,0.5607349276542664,1.1802467107772827,-0.015178367495536804,0.29921773076057434,0.4062415063381195,1.1754857301712036,0.0174910519272089,0.30160775780677795,0.552416205406189,1.6050559282302856,-0.031719714403152466,0.07465153932571411,0.41398921608924866,1.5943684577941895,-0.06148248910903931,0.05999089032411575,0.5454792976379395,1.9791059494018555,0.318852037191391,0.017224937677383423,0.41200846433639526,1.9799562692642212,0.20534861087799072,0.018849758431315422,0.6095053553581238,1.1307525634765625,-0.15842995047569275,0.21245251595973969,0.3706062436103821,0.9347341656684875,-0.2914615273475647,0.3203677535057068,179.9097735221831,0.48348821699619293,1.1778662204742432,134.6309532481872,134.623156194991,1.8190147654235962,0.014402714473672945,0.07219284150681686,-0.09134132616563982,-1.75303560959504,-172.73186951283037,0.19749469919188847,106,1762115398.11824
