nose_x,nose_y,nose_z,nose_visibility,left_shoulder_x,left_shoulder_y,left_shoulder_z,left_shoulder_visibility,right_shoulder_x,right_shoulder_y,right_shoulder_z,right_shoulder_visibility,left_hip_x,left_hip_y,left_hip_z,left_hip_visibility,right_hip_x,right_hip_y,right_hip_z,right_hip_visibility,left_knee_x,left_knee_y,left_knee_z,left_knee_visibility,right_knee_x,right_knee_y,right_knee_z,right_knee_visibility,left_ankle_x,left_ankle_y,left_ankle_z,left_ankle_visibility,right_ankle_x,right_ankle_y,right_ankle_z,right_ankle_visibility,left_wrist_x,left_wrist_y,left_wrist_z,left_wrist_visibility,right_wrist_x,right_wrist_y,right_wrist_z,right_wrist_visibility,trunk_lateral_inclination,center_mass_x,center_mass_y,left_knee_angle,right_knee_angle,person_height,center_mass_velocity_x,center_mass_velocity_y,center_mass_acceleration_x,center_mass_acceleration_y,body_orientation,torso_leg_ratio,frame,timestamp
0.5236449241638184,0.39004820585250854,-0.6447699666023254,0.9993593096733093,0.6252519488334656,0.5998619198799133,-0.20811137557029724,0.9807352423667908,0.3957289457321167,0.5670197010040283,-0.23242072761058807,0.9938524961471558,0.563187301158905,1.231215000152588,-0.03094365820288658,0.16906079649925232,0.408112108707428,1.2146341800689697,0.032173819839954376,0.13732890784740448,0.5449880361557007,1.682027816772461,-0.03638998419046402,0.08447428047657013,0.4021349549293518,1.6717349290847778,0.10001937299966812,0.08613070100545883,0.5307230949401855,2.100241184234619,0.25976255536079407,0.01538895070552826,0.39817360043525696,2.0811877250671387,0.33528974652290344,0.026980489492416382,0.513397753238678,0.27334141731262207,0.21912197768688202,0.27131563425064087,0.5119407773017883,0.5753674507141113,0.361594021320343,0.09714339673519135,177.77546434140635,0.4856497049331665,1.2229245901107788,144.01847314615776,158.5599883986219,1.9451714314186384,0.0,0.0,0.0,0.0,-171.85687886048234,2.72551452372243,0,1762115335.898738
0.5268244743347168,0.38990318775177,-0.5404518842697144,0.9992650747299194,0.6255585551261902,0.6025320291519165,-0.12030152976512909,0.9797133803367615,0.3965340554714203,0.5687069892883301,-0.18792614340782166,0.9929138422012329,0.5622470378875732,1.233383297920227,-0.021127555519342422,0.17689362168312073,0.4078552722930908,1.2191888093948364,0.022231493145227432,0.1416676789522171,0.5398229360580444,1.6873831748962402,-0.01262647844851017,0.0962090715765953,0.39718371629714966,1.6756534576416016,0.013552266173064709,0.09148958325386047,0.5225175619125366,2.1054301261901855,0.26063695549964905,0.016627565026283264,0.3932653069496155,2.0826990604400635,0.16753870248794556,0.02707025595009327,0.5033902525901794,0.2410333901643753,0.19249257445335388,0.2832210958003998,0.5468860864639282,0.3626789152622223,0.373430460691452,0.09360192716121674,177.67648888109957,0.48505115509033203,1.2262860536575317,147.91929087638178,158.1757752238351,1.8650061766905244,-0.007690940895708942,0.04319242210260919,-0.09882313489746616,0.5549919852297851,-171.59861812973756,2.449393702427489,1,1762115335.9765632
0.5261887907981873,0.39029544591903687,-0.5716807842254639,0.9992515444755554,0.6236163973808289,0.6025215983390808,-0.13509711623191833,0.9801301956176758,0.398578941822052,0.562868058681488,-0.21789047122001648,0.9927846789360046,0.5586915016174316,1.2139077186584473,-0.011361153796315193,0.1797613799571991,0.4076021611690521,1.1938997507095337,0.012437702156603336,0.14296865463256836,0.536938488483429,1.665198564529419,-0.014894376508891582,0.09519841521978378,0.394925057888031,1.6491321325302124,0.004452322609722614,0.08825543522834778,0.519560694694519,2.0859742164611816,0.23739907145500183,0.016143783926963806,0.3871237337589264,2.0635082721710205,0.13607922196388245,0.025616446509957314,0.4842684268951416,0.1608322113752365,0.05140642076730728,0.3219864070415497,0.5409857630729675,0.41598257422447205,0.17085669934749603,0.09003518521785736,177.42375609121734,0.4831468313932419,1.2039037346839905,148.62427848527514,161.36808191842348,1.848746889948706,-0.03355435618233834,-0.39437848941988984,-0.45571572204103844,-7.710039129740103,-170.0065771720152,2.219983902160481,2,1762115336.0333166
0.5204582810401917,0.39140400290489197,-0.581147313117981,0.9991850256919861,0.6167008876800537,0.5899661779403687,-0.24051205813884735,0.9813798666000366,0.3995601534843445,0.5530356764793396,-0.26604968309402466,0.9930201768875122,0.5571848750114441,1.1788893938064575,-0.010994828306138515,0.20163513720035553,0.4162757992744446,1.1283553838729858,0.011859705671668053,0.16429896652698517,0.5371349453926086,1.6261800527572632,-0.02386784367263317,0.09274212270975113,0.3970766067504883,1.6103649139404297,0.010598474182188511,0.0846085324883461,0.5196429491043091,2.0416409969329834,0.20926538109779358,0.01614385098218918,0.38750049471855164,2.0251870155334473,0.1303914487361908,0.024290962144732475,0.4593346118927002,0.12089312821626663,-0.09469597041606903,0.37332046031951904,0.5604665279388428,0.34710174798965454,0.02164560742676258,0.09743290394544601,177.8946176107452,0.48673033714294434,1.1536223888397217,149.07529727964214,163.7180820619879,1.8068301544196188,0.04943758921934308,-0.6936750475288298,1.1449463156639694,-4.129057221627622,-170.34770360276846,1.5810932993760574,3,1762115336.105802
0.5130631923675537,0.39370909333229065,-0.5130013227462769,0.9991243481636047,0.6071013808250427,0.5814754962921143,-0.17076444625854492,0.9826351404190063,0.39948350191116333,0.5482417345046997,-0.20294301211833954,0.9934396743774414,0.5551060438156128,1.1569640636444092,-0.0112233841791749,0.2408027946949005,0.41592293977737427,1.1337287425994873,0.011886285617947578,0.20316167175769806,0.536949634552002,1.5944859981536865,-0.056772273033857346,0.09491265565156937,0.3971492052078247,1.5820105075836182,-0.0051863547414541245,0.08437185734510422,0.5199584364891052,2.0114493370056152,0.1504279375076294,0.016122130677103996,0.3877579867839813,1.993950366973877,0.0923437625169754,0.02390301786363125,0.440671443939209,0.12780256569385529,0.07991716265678406,0.3997569978237152,0.5560339093208313,0.18919637799263,0.07142733037471771,0.10593387484550476,178.2458146138759,0.48551449179649353,1.1453464031219482,147.65608230094713,164.4653125416258,1.7305500790641908,-0.017570917648355965,-0.11960128311586288,-0.9683805258198386,8.296287737603375,-170.90571353392218,1.3476098348086702,4,1762115336.1749985
0.5025991201400757,0.39495497941970825,-0.5512577891349792,0.9989964365959167,0.5978203415870667,0.5824719071388245,-0.09082983434200287,0.9842451810836792,0.3983139395713806,0.5473814010620117,-0.20730474591255188,0.9939165115356445,0.553587794303894,1.1396821737289429,-0.011832968331873417,0.2870681583881378,0.41635775566101074,1.1365596055984497,0.012498830445110798,0.25232967734336853,0.5363183617591858,1.5864561796188354,-0.08487747609615326,0.10628602653741837,0.3984033763408661,1.5754884481430054,-0.025034639984369278,0.09468250721693039,0.5193989872932434,2.013768434524536,0.1610274314880371,0.019866997376084328,0.38820067048072815,1.9963858127593994,0.08604470640420914,0.027809739112854004,0.6001638174057007,0.9884145259857178,0.03456245735287666,0.3880669176578522,0.5621109008789062,0.13593612611293793,-0.03802881017327309,0.16153520345687866,178.69133119944468,0.4849727749824524,1.1381208896636963,140.82144963989114,160.3132086580784,1.7464883168935512,-0.007299554404711038,-0.09736273127102281,0.13840510920866803,0.299661215723442,-170.02447202830152,0.9655159134874526,5,1762115336.2492108
0.5011321306228638,0.3956410586833954,-0.565106987953186,0.9989258646965027,0.5974570512771606,0.5830833911895752,-0.08608761429786682,0.9857139587402344,0.3984265923500061,0.5479543805122375,-0.2078806459903717,0.9943835139274597,0.5536774396896362,1.1334078311920166,-0.01099174004048109,0.323622465133667,0.41627806425094604,1.132458209991455,0.011778510175645351,0.29186761379241943,0.5355004072189331,1.583120584487915,-0.08749379217624664,0.10883042961359024,0.3982159495353699,1.5678373575210571,-0.036514636129140854,0.09550446271896362,0.5168609023094177,2.0108258724212646,0.1735554039478302,0.020743481814861298,0.38590532541275024,1.9923739433288574,0.09051664173603058,0.027942346408963203,0.5986901521682739,1.0678139925003052,-0.04915865138173103,0.3823140263557434,0.5616738796234131,0.1362554281949997,-0.05342817306518555,0.21969902515411377,178.69115477755437,0.48497775197029114,1.1329330205917358,138.97916289053637,157.01253913125467,1.7514528733215355,7.847449344009623e-05,-0.08179955640765385,0.11633283004259574,0.24539185211882214,-169.99034833250687,0.8376851769926861,6,1762115336.3126326
0.49496832489967346,0.3955767750740051,-0.5918118953704834,0.9990150332450867,0.5915951132774353,0.5837926864624023,-0.09756935387849808,0.9871166944503784,0.3963305354118347,0.5477253198623657,-0.22021326422691345,0.9948959350585938,0.5521091222763062,1.071784496307373,-0.009863665327429771,0.34064194560050964,0.4218347668647766,1.0954265594482422,0.010891349986195564,0.3117729127407074,0.5382812023162842,1.564062476158142,-0.0854649767279625,0.1012798622250557,0.40920954942703247,1.5657461881637573,-0.02224722132086754,0.08797670900821686,0.5216758251190186,2.0000555515289307,0.1842184066772461,0.019254708662629128,0.39834240078926086,1.9940720796585083,0.11079840362071991,0.02566467598080635,0.6180230379104614,1.0409362316131592,-0.03357536345720291,0.39014071226119995,0.561345636844635,0.13014383614063263,-0.06096869707107544,0.27481022477149963,179.22655930524886,0.4869719445705414,1.0836055278778076,139.5481957755597,158.71970673520502,1.764249810602977,0.025422170485146528,-0.6288319038095643,0.32308401913839,-6.973624109725492,-169.53483543667775,0.5088990300373754,7,1762115336.3910756
0.48930540680885315,0.39285171031951904,-0.6066988706588745,0.999071478843689,0.5833748579025269,0.5843004584312439,-0.10265479981899261,0.9883719682693481,0.3909638524055481,0.544465184211731,-0.22042910754680634,0.9952667355537415,0.547037661075592,1.0495073795318604,-0.007839499041438103,0.36415916681289673,0.42124199867248535,1.0811469554901123,0.008991720154881477,0.33164408802986145,0.5354898571968079,1.5524815320968628,-0.08517847955226898,0.09755692631006241,0.4071137011051178,1.545225739479065,-0.06305181980133057,0.08331865072250366,0.5196380019187927,1.9809521436691284,0.18910931050777435,0.018242040649056435,0.3972882926464081,1.9754706621170044,0.07832811772823334,0.023894507437944412,0.613338828086853,1.0612305402755737,-0.08170031756162643,0.4031777083873749,0.5476812124252319,0.1555517166852951,0.018873386085033417,0.30333730578422546,179.6535006379645,0.4841398298740387,1.0653271675109863,138.6456184632776,152.98964820927026,1.7500099427307272,-0.04037136729915,-0.26055526667278417,-0.9378769451252768,5.249727846087833,-168.30317785985892,0.23595110132897967,8,1762115336.4612272
0.48135271668434143,0.38789597153663635,-0.6418838500976562,0.9991499185562134,0.5747185945510864,0.5844597220420837,-0.10309463739395142,0.9894659519195557,0.3853602707386017,0.5443024635314941,-0.20618721842765808,0.9956552386283875,0.5362417697906494,1.045785903930664,-0.005128807388246059,0.3409217298030853,0.4195398688316345,1.0521644353866577,0.006599613931030035,0.31024110317230225,0.5268935561180115,1.532974123954773,-0.08316706120967865,0.08920089900493622,0.3988928198814392,1.5043948888778687,-0.05452693626284599,0.0763900950551033,0.513117790222168,1.9477323293685913,0.18796488642692566,0.016646603122353554,0.3869067430496216,1.9346264600753784,0.08871335536241531,0.021834230050444603,0.5990297198295593,1.0396428108215332,-0.19135403633117676,0.40755030512809753,0.37412771582603455,0.9514110088348389,-0.30266624689102173,0.29507145285606384,179.74596125913024,0.47789081931114197,1.0489751696586609,137.73547124682187,153.88230048327154,1.7385107135176725,-0.0876638036563585,-0.2293928478256507,-0.6634386057634304,0.43715979350273027,-168.02666425206704,0.16679292420887565,9,1762115336.532511
0.4816853106021881,0.3872852027416229,-0.6800751090049744,0.999229371547699,0.5691084265708923,0.5835866928100586,-0.1215345710515976,0.9904937744140625,0.3833332359790802,0.5428747534751892,-0.24190230667591095,0.9960396885871887,0.5330995321273804,1.0274789333343506,-2.1366997316363268e-05,0.3210565745830536,0.41893187165260315,1.03531014919281,0.0017607571789994836,0.29048919677734375,0.5251255035400391,1.517024040222168,-0.06943656504154205,0.08182082325220108,0.3972044587135315,1.4886561632156372,-0.04005605727434158,0.07008574903011322,0.5127544403076172,1.9241554737091064,0.1904313862323761,0.015214219689369202,0.38545745611190796,1.9104340076446533,0.10738937556743622,0.01992754638195038,0.5987981557846069,1.0171507596969604,-0.21584446728229523,0.41625502705574036,0.3653886020183563,0.9740486741065979,-0.29292812943458557,0.28454023599624634,179.97489543871768,0.47601570188999176,1.0313945412635803,139.38531616525142,155.4475364524011,1.7404618764855466,-0.022547489901407924,-0.21139958315534774,0.7829959928088397,0.2163613589586062,-167.63924697108519,0.01700902364080344,10,1762115336.615674
0.47720199823379517,0.38180771470069885,-0.7174233198165894,0.9992899298667908,0.5659300088882446,0.5800356268882751,-0.18643292784690857,0.9913597702980042,0.381637841463089,0.5357024073600769,-0.2398931086063385,0.9962607622146606,0.526240348815918,1.0116405487060547,-0.004224470816552639,0.3041068911552429,0.41826948523521423,1.011804223060608,0.0057822903618216515,0.27426648139953613,0.5191838145256042,1.48910653591156,-0.1006045714020729,0.07829844206571579,0.3949260413646698,1.4579544067382812,-0.06790430843830109,0.06733029335737228,0.5107365846633911,1.8926986455917358,0.13007505238056183,0.014353879727423191,0.38289114832878113,1.8831241130828857,0.038340725004673004,0.018993910402059555,0.590827226638794,0.9983131289482117,-0.23889859020709991,0.4231506884098053,0.3697982728481293,0.9474854469299316,-0.3180968165397644,0.2686990201473236,179.8069742598856,0.4722549170255661,1.0117223858833313,138.84187093056292,156.56904306773174,1.706424414276317,-0.047857340064684076,-0.25033525282006786,-0.3220769466788121,-0.4954704007178787,-166.47396306147297,0.14928714865720671,11,1762115336.6942573
0.47294682264328003,0.3678194284439087,-0.7125910520553589,0.999350368976593,0.5593980550765991,0.5727377533912659,-0.2008119821548462,0.9921461343765259,0.380229115486145,0.5250513553619385,-0.25364524126052856,0.9964843988418579,0.5199357867240906,0.9909481406211853,-0.004659649915993214,0.2927384078502655,0.4167739748954773,0.9856356978416443,0.006158686242997646,0.26262256503105164,0.5122979879379272,1.4582626819610596,-0.0953732281923294,0.07458441704511642,0.39024046063423157,1.4258536100387573,-0.0542590506374836,0.06429038196802139,0.5047821402549744,1.8525694608688354,0.14945055544376373,0.013530058786273003,0.3785030245780945,1.8388198614120483,0.06475179642438889,0.01802046224474907,0.5868062973022461,0.9891612529754639,-0.2371259480714798,0.42718133330345154,0.36914360523223877,0.9181283116340637,-0.3133887052536011,0.25326186418533325,179.80979106970037,0.46835488080978394,0.9882919192314148,137.18409736124946,156.06051453557663,1.6902634432242478,-0.05197698711532656,-0.31226506521773667,-0.054903808535017355,-0.8253577359159617,-165.0960492348305,0.1515121242931189,12,1762115336.7692912
0.46947765350341797,0.35085242986679077,-0.6987262964248657,0.9994052648544312,0.5534711480140686,0.5572757124900818,-0.19879570603370667,0.9928730726242065,0.3793724775314331,0.5052160620689392,-0.25272178649902344,0.996731162071228,0.5132137537002563,0.9762824177742004,-0.004089473746716976,0.2859867215156555,0.41279006004333496,0.9691093564033508,0.005577346310019493,0.25511327385902405,0.5069588422775269,1.4118167161941528,-0.07304942607879639,0.06906918436288834,0.38718411326408386,1.3829240798950195,-0.045039597898721695,0.060039371252059937,0.49961477518081665,1.7956719398498535,0.15071089565753937,0.012460935860872269,0.3783286511898041,1.777652621269226,0.06905250251293182,0.0166049525141716,0.5779958963394165,0.9645417332649231,-0.20306198298931122,0.42569443583488464,0.36576300859451294,0.8732723593711853,-0.2093980312347412,0.24182480573654175,179.55613941617415,0.46300190687179565,0.9726958870887756,140.76790064067256,156.81344683453182,1.6481284628765713,-0.07061332192717883,-0.20573379419229645,-0.24583970048368553,1.405298629019295,-163.3520821040848,0.42217075497772016,13,1762115336.845098
0.4683620035648346,0.3349573612213135,-0.6877322196960449,0.9994441866874695,0.5509898066520691,0.5320816040039062,-0.22547535598278046,0.9935137033462524,0.3786550760269165,0.48969271779060364,-0.2537582516670227,0.9970044493675232,0.5125404596328735,0.9624547362327576,-0.005917234346270561,0.2971232235431671,0.4121023118495941,0.9482542872428894,0.007189556024968624,0.272199809551239,0.5075836777687073,1.3699116706848145,-0.05227000266313553,0.06799288094043732,0.38801050186157227,1.3494616746902466,-0.005886451341211796,0.05984435975551605,0.5009401440620422,1.748146891593933,0.1779029220342636,0.012267354875802994,0.38363128900527954,1.7349271774291992,0.13757489621639252,0.016302548348903656,0.5617493391036987,0.940259575843811,-0.2560843229293823,0.4237467348575592,0.3669295907020569,0.8977295160293579,-0.26365622878074646,0.247956782579422,179.67759517683717,0.4623213857412338,0.9553545117378235,142.19033671322367,157.556229368961,1.6413310999701225,-0.008588893135054133,-0.21886641430402676,0.7828135920166456,-0.16574749211650866,-166.18137139873826,0.45371666078244594,14,1762115336.9243307
0.4682844579219818,0.3279387056827545,-0.6840577125549316,0.999470055103302,0.5476526021957397,0.5217305421829224,-0.22842231392860413,0.9940953254699707,0.3789823055267334,0.48219218850135803,-0.25652244687080383,0.9971814155578613,0.5078909993171692,0.942394495010376,-0.010067574679851532,0.3200533390045166,0.41000065207481384,0.9291818141937256,0.011098083108663559,0.29422932863235474,0.5028504729270935,1.3330624103546143,-0.04865306243300438,0.06640221178531647,0.3883507549762726,1.3120429515838623,-0.0013693912187591195,0.0585642084479332,0.49885693192481995,1.6998800039291382,0.18618153035640717,0.011915456503629684,0.38486042618751526,1.683326005935669,0.14397646486759186,0.01577514410018921,0.5589306354522705,0.9256651997566223,-0.23974895477294922,0.43417805433273315,0.3650265336036682,0.892833948135376,-0.25693464279174805,0.24818038940429688,179.4226558338695,0.4589458256959915,0.9357881546020508,141.733584250424,156.60969997563512,1.6066461325972874,-0.04984202281208196,-0.2889081532070689,-0.6091254200411058,-1.034205258213002,-166.80737585287957,1.1679679949771171,15,1762115336.992056
0.4673500955104828,0.32037168741226196,-0.6831366419792175,0.9994686245918274,0.5449312925338745,0.5048624277114868,-0.230198472738266,0.9946202635765076,0.37922772765159607,0.4711165428161621,-0.25605329871177673,0.9973445534706116,0.5011228322982788,0.9082635641098022,-0.008947568014264107,0.37603163719177246,0.40770015120506287,0.8942576050758362,0.00973992608487606,0.35329487919807434,0.4953792095184326,1.275989055633545,-0.05367622897028923,0.08310697972774506,0.38872218132019043,1.2550760507583618,-0.05472669005393982,0.07762155681848526,0.494375616312027,1.62554931640625,0.16825705766677856,0.01574208028614521,0.39118364453315735,1.6243501901626587,0.06970871239900589,0.02359010837972164,0.5536376237869263,0.9107290506362915,-0.20971591770648956,0.4660213887691498,0.35864681005477905,0.8625137209892273,-0.2303001880645752,0.2734532356262207,178.93703024028738,0.45441149175167084,0.9012605845928192,140.6480058387232,151.06666723786597,1.5316407455156043,-0.06682305135484597,-0.5088371549640207,-0.25025155983327685,-3.241121443477309,-168.48900575028694,10.50507004952647,16,1762115337.0599117
0.46636003255844116,0.3109636604785919,-0.7267908453941345,0.9995076060295105,0.5410110354423523,0.48246705532073975,-0.2927660644054413,0.9951401352882385,0.37937864661216736,0.4611629843711853,-0.2868677079677582,0.9975495934486389,0.5035272240638733,0.8594627380371094,-0.006514421198517084,0.4356933832168579,0.40865713357925415,0.8534533977508545,0.0070984200574457645,0.41489821672439575,0.4979553818702698,1.20113205909729,-0.1223079115152359,0.13343046605587006,0.4010066092014313,1.1866095066070557,-0.0922556221485138,0.1300530880689621,0.49543556571006775,1.5243772268295288,0.14313378930091858,0.03234565258026123,0.4033520221710205,1.531696081161499,0.06417633593082428,0.04621897265315056,0.5536822080612183,0.8624468445777893,-0.17690739035606384,0.5132943391799927,0.355305016040802,0.8343596458435059,-0.08303045481443405,0.31698694825172424,179.38889753306339,0.4560921788215637,0.8564580678939819,121.88728568280008,138.97935532675038,1.4734975164321265,0.02411464123834773,-0.6428303258359702,1.3047817593240494,-1.922545429097413,-172.49137159075335,46.514603181996826,17,1762115337.1296074
0.4666948914527893,0.3103237450122833,-0.6939906477928162,0.9995333552360535,0.5390450954437256,0.46972373127937317,-0.28613048791885376,0.9955955147743225,0.38032862544059753,0.4526800513267517,-0.2773692011833191,0.9976933002471924,0.5052546262741089,0.8404360413551331,-0.004133786074817181,0.48968270421028137,0.41054123640060425,0.8328203558921814,0.004564161878079176,0.470782607793808,0.4993147850036621,1.139685869216919,-0.11948351562023163,0.1893313080072403,0.4187494218349457,1.1404757499694824,-0.07296814024448395,0.18597792088985443,0.49591153860092163,1.4537804126739502,0.13113494217395782,0.05698058381676674,0.41404661536216736,1.4685286283493042,0.07363797724246979,0.07362175732851028,0.5538202524185181,0.8329939842224121,-0.18562790751457214,0.5544338822364807,0.3555419147014618,0.7943462133407593,-0.07376232743263245,0.3530714213848114,179.72698420489385,0.45789793133735657,0.8366281986236572,120.3367593240194,141.71314690687223,1.3995589417730334,0.023961589324356818,-0.26313416686703534,-0.0020309356217326348,5.038411050062766,-173.87081194875677,0.44127218513989447,18,1762115337.2049677
0.4673302173614502,0.30715155601501465,-0.7368109226226807,0.9995665550231934,0.5378308296203613,0.4613916575908661,-0.3437592387199402,0.9960159063339233,0.3832205533981323,0.44371455907821655,-0.33475056290626526,0.9978469610214233,0.5058980584144592,0.8199633359909058,-0.0013429672690108418,0.5394682884216309,0.4126196503639221,0.8160645365715027,0.0016932121943682432,0.5223830938339233,0.5003134608268738,1.1025482416152954,-0.11118821799755096,0.24851852655410767,0.41695165634155273,1.112164855003357,-0.06653012335300446,0.24715831875801086,0.49288854002952576,1.3800594806671143,0.19205360114574432,0.09341349452733994,0.4192117750644684,1.400599479675293,0.13622799515724182,0.11446735262870789,0.5569987297058105,0.8300337791442871,-0.2537723481655121,0.5964570641517639,0.3541228175163269,0.7799437046051025,-0.21263031661510468,0.40333953499794006,179.8013901243675,0.4592588543891907,0.8180139362812042,111.23410600582793,131.91970817993402,1.4089413253555567,0.0169436875163259,-0.2317502404359906,-0.08737388575737724,0.3907343929301033,-173.47750862999212,0.4903757108579885,19,1762115337.285288
0.4677553176879883,0.3054618537425995,-0.7201237678527832,0.9995937943458557,0.5390268564224243,0.4626310467720032,-0.3530544340610504,0.9964007139205933,0.383782297372818,0.442900687456131,-0.32012587785720825,0.9979733824729919,0.5066373944282532,0.8234496116638184,-0.0011889165034517646,0.5844088792800903,0.4130445420742035,0.8195260763168335,0.0015783871058374643,0.568533718585968,0.49697524309158325,1.0743122100830078,-0.08213882148265839,0.2951635718345642,0.4227726459503174,1.0944104194641113,-0.02716546319425106,0.290435791015625,0.48950305581092834,1.3446968793869019,0.2704891562461853,0.11525380611419678,0.4206150472164154,1.3530621528625488,0.2639925181865692,0.13205258548259735,0.5600708723068237,0.8317914605140686,-0.27268022298812866,0.6332904696464539,0.355288565158844,0.7482279539108276,-0.049846284091472626,0.4330563247203827,179.757032005532,0.45984096825122833,0.8214878439903259,109.6164577299447,125.60672772003291,1.436582916746934,0.007781277288749227,0.0464366869147858,-0.12247647627644659,3.718601739261605,-172.7569889978345,0.3246767824845114,20,1762115337.3600976
0.46826237440109253,0.30682721734046936,-0.6735585927963257,0.9996058344841003,0.5393167734146118,0.45977362990379333,-0.31346219778060913,0.9967414736747742,0.3862822949886322,0.4432918429374695,-0.3155141770839691,0.9980129599571228,0.5071547627449036,0.8168792128562927,0.0021905354224145412,0.6243056654930115,0.4145165979862213,0.813951849937439,-0.0017627289053052664,0.6091506481170654,0.4979934096336365,1.0872962474822998,-0.07940809428691864,0.3351275324821472,0.4273439049720764,1.0858598947525024,-0.02998853102326393,0.32708263397216797,0.4896170198917389,1.3397101163864136,0.2654145359992981,0.13193847239017487,0.4232989251613617,1.3541299104690552,0.24115879833698273,0.14778059720993042,0.5650786757469177,0.8243176937103271,-0.2551112771034241,0.6664998531341553,0.3583773374557495,0.7134703993797302,-0.23188766837120056,0.4546995162963867,179.6907810825391,0.46083568036556244,0.8154155313968658,109.43722411838813,128.67787218760466,1.3931886104525975,0.013289096069131806,-0.08112452261658666,0.07358303156172069,-1.7041847020148801,-173.85294841286853,0.3161547803504926,21,1762115337.4349494
0.46863889694213867,0.30884966254234314,-0.6450935006141663,0.999630868434906,0.5400452613830566,0.4552063047885895,-0.3021176755428314,0.9970588088035583,0.39240843057632446,0.44055163860321045,-0.27581334114074707,0.9981122016906738,0.507495641708374,0.8012915849685669,0.003135531675070524,0.6607418656349182,0.4175593852996826,0.8018642067909241,-0.0026373625732958317,0.6464802622795105,0.4975093901157379,1.0682635307312012,-0.07250106334686279,0.37221255898475647,0.42460188269615173,1.07999587059021,-0.03843933343887329,0.3647082448005676,0.4888368248939514,1.306104063987732,0.2684282064437866,0.14529967308044434,0.4273478388786316,1.3222795724868774,0.24068422615528107,0.1574978530406952,0.5696789622306824,0.8172459006309509,-0.25512319803237915,0.6981244087219238,0.3601837158203125,0.6923219561576843,-0.24342557787895203,0.48542916774749756,179.40076603226572,0.4625275135040283,0.8015778958797455,109.11063233381188,123.62295200707476,1.349145541887446,0.02310156819720804,-0.18894953250338578,0.13398690975843403,-1.4723241687553426,-174.33129895263437,1.247959665120665,22,1762115337.508184
0.47017550468444824,0.310065895318985,-0.6438873410224915,0.9996546506881714,0.5406140685081482,0.4499043822288513,-0.2940475642681122,0.9973434209823608,0.3984813094139099,0.44083893299102783,-0.2760682702064514,0.9982218146324158,0.5077475905418396,0.7886379957199097,0.005728386342525482,0.6937615871429443,0.4206423759460449,0.7878580093383789,-0.005255959928035736,0.6805716156959534,0.49494776129722595,1.014258861541748,-0.07412973046302795,0.40390047430992126,0.4262077212333679,1.058237910270691,-0.04681427776813507,0.3988569378852844,0.488562673330307,1.2757956981658936,0.25722169876098633,0.15642715990543365,0.42917880415916443,1.2935459613800049,0.22636857628822327,0.16848447918891907,0.5740337371826172,0.8100664019584656,-0.24674947559833527,0.7267885208129883,0.3591897785663605,0.7106761336326599,-0.21141929924488068,0.5198759436607361,179.10561769401477,0.46419498324394226,0.7882480025291443,108.81146737066021,122.00437053856567,1.3169722961400119,0.024954151190463448,-0.19948558349300136,0.02772442281858902,-0.15767495088628627,-176.35052917828835,3.1338980198506916,23,1762115337.5750053
0.4723314642906189,0.3109113276004791,-0.631787896156311,0.9996842741966248,0.5425735712051392,0.4529429078102112,-0.3068166971206665,0.9976040720939636,0.4071122109889984,0.44180506467819214,-0.2759690582752228,0.9983667135238647,0.5082151889801025,0.7689578533172607,0.007777252700179815,0.7241853475570679,0.4261033535003662,0.7666154503822327,-0.00733820628374815,0.7121680378913879,0.4944005608558655,0.9802829027175903,-0.2547338902950287,0.43816784024238586,0.4301357865333557,1.0110173225402832,-0.06266193091869354,0.4348113238811493,0.48566946387290955,1.1937254667282104,0.07016263902187347,0.17384697496891022,0.43438705801963806,1.2330944538116455,0.20943507552146912,0.18402747809886932,0.5770670175552368,0.799315333366394,-0.2581455409526825,0.752876877784729,0.35997462272644043,0.7143341302871704,-0.14905010163784027,0.5611557364463806,178.62628829088993,0.4671592712402344,0.7677866518497467,72.2133060815339,116.47188091630532,1.1874347429851844,0.04590189505395716,-0.31684329347308415,0.32437507477074073,-1.8172799991150552,-175.29962522913377,3.4287902831278028,24,1762115337.639584
0.47368016839027405,0.3113486170768738,-0.6362887024879456,0.9997126460075378,0.5438977479934692,0.45345640182495117,-0.31906023621559143,0.9978381991386414,0.40876030921936035,0.44100552797317505,-0.29005593061447144,0.9985092878341675,0.5083610415458679,0.7621118426322937,0.008102921769022942,0.7514594793319702,0.4274938702583313,0.7584445476531982,-0.007736338768154383,0.7406282424926758,0.4943322539329529,0.9790802001953125,-0.13519074022769928,0.4531494081020355,0.4350764751434326,1.0008575916290283,-0.049507997930049896,0.45792344212532043,0.485741525888443,1.1820054054260254,0.2185754030942917,0.17900580167770386,0.4344639778137207,1.2123278379440308,0.22142553329467773,0.19687339663505554,0.5791274309158325,0.7997442483901978,-0.25691577792167664,0.7766364812850952,0.35831722617149353,0.7490431666374207,-0.24014906585216522,0.5992903113365173,178.46266286430227,0.4679274559020996,0.760278195142746,86.46819086118867,118.17737733826897,1.2321075551086662,0.010665942803798956,-0.1042519771056299,-0.4892373800135975,2.951747064896995,-174.7359210568734,1.8253920708650642,25,1762115337.7116063
0.4751606583595276,0.31171566247940063,-0.6112197637557983,0.9997395873069763,0.5465115904808044,0.4523084759712219,-0.3254506587982178,0.998049795627594,0.41458210349082947,0.44039949774742126,-0.289787232875824,0.9986473321914673,0.5086945295333862,0.7555570006370544,0.007773589342832565,0.7761129140853882,0.4312021732330322,0.7484243512153625,-0.007575237657874823,0.7663905024528503,0.4927940368652344,0.9618902206420898,-0.06944002211093903,0.4759308397769928,0.4382230341434479,0.9892763495445251,-0.02592933177947998,0.4863069951534271,0.4807456135749817,1.1454658508300781,0.2546452283859253,0.19423596560955048,0.43559688329696655,1.1769769191741943,0.22910985350608826,0.2179085910320282,0.5793943405151367,0.7954334616661072,-0.2522914707660675,0.7981746792793274,0.358686238527298,0.7519920468330383,-0.21791604161262512,0.6362187266349792,178.01396277675906,0.46994835138320923,0.7519906759262085,99.11890585752941,121.96098928744124,1.2040446934968445,0.02846958653813858,-0.11675133510227387,0.25081078201563706,-0.17608607544673283,-174.8420180062082,1.444273779952604,26,1762115337.7825906
0.4781160354614258,0.3118845820426941,-0.5686936974525452,0.9997650384902954,0.5486791133880615,0.4502878487110138,-0.31637483835220337,0.9982409477233887,0.4201693534851074,0.44028380513191223,-0.2888708710670471,0.9987754225730896,0.5093711614608765,0.7465890049934387,0.005947088822722435,0.7983788251876831,0.43582767248153687,0.7369670271873474,-0.00598786910995841,0.789662778377533,0.49175745248794556,0.9470697045326233,0.01339110266417265,0.4962993264198303,0.4407412111759186,0.9693748354911804,0.0229681096971035,0.5133398771286011,0.48168253898620605,1.0993512868881226,0.33939647674560547,0.21347865462303162,0.4350501000881195,1.134257435798645,0.27099841833114624,0.2472432553768158,0.5791806578636169,0.7937425374984741,-0.2499299794435501,0.8175772428512573,0.35911649465560913,0.7550520300865173,-0.22678761184215546,0.6702502369880676,177.7161179074684,0.47259941697120667,0.7417780160903931,117.19749012885568,130.66581701440077,1.1882641270702836,0.03328327092369261,-0.12821664077489725,0.06043425039007318,-0.1439432040657769,-175.54869756242456,1.4998475425035906,27,1762115337.8622422
0.48198503255844116,0.3120717406272888,-0.5041003227233887,0.9997879862785339,0.5508409738540649,0.4492340087890625,-0.2756667137145996,0.9984130263328552,0.42647671699523926,0.4385436177253723,-0.2689303159713745,0.998891294002533,0.5110849142074585,0.7419744729995728,0.004426785744726658,0.8184224963188171,0.44177499413490295,0.7299891114234924,-0.004557485692203045,0.8106095194816589,0.489937961101532,0.9389228820800781,0.027529653161764145,0.5183354616165161,0.44692039489746094,0.9537644386291504,0.031081631779670715,0.5394709706306458,0.4787207543849945,1.0071526765823364,0.30603015422821045,0.23664067685604095,0.4412569999694824,1.0817086696624756,0.24730610847473145,0.2749248147010803,0.5788698196411133,0.7898374199867249,-0.22268564999103546,0.8352288603782654,0.367317795753479,0.7472124099731445,-0.22758150100708008,0.701657772064209,177.60263011004076,0.4764299541711807,0.7359817922115326,110.57262004713894,129.59953965036985,1.0707160294566378,0.06031329889670137,-0.0912638006179073,0.4255983093789863,0.5818368487547012,-175.08691404114148,1.44869748288395,28,1762115337.9277802
0.4860621392726898,0.3122147023677826,-0.46098852157592773,0.9998080134391785,0.5536701083183289,0.4473969340324402,-0.22439107298851013,0.9985656142234802,0.43078556656837463,0.4359273314476013,-0.24840791523456573,0.9989942312240601,0.5135594606399536,0.7338219285011292,0.006193349603563547,0.8364630937576294,0.44528859853744507,0.7247145175933838,-0.006289376411587,0.8294734954833984,0.4899679124355316,0.924485445022583,0.039982859045267105,0.5331739187240601,0.4502982497215271,0.9370121359825134,0.02359311655163765,0.5620179176330566,0.4791606068611145,0.9737641215324402,0.3200831711292267,0.255153626203537,0.44512900710105896,1.0574486255645752,0.24068498611450195,0.3022593855857849,0.578567624092102,0.7799031734466553,-0.15643252432346344,0.851032555103302,0.37886375188827515,0.7310477495193481,-0.22211262583732605,0.7301298379898071,177.45095772250298,0.47942402958869934,0.7292682230472565,110.13918352266526,126.97560875116817,1.0222354005777707,0.03436206264382441,-0.0770495234811732,-0.2978341829963275,0.16313279169632058,-174.6676660771754,1.6026246813525793,29,1762115338.012886
0.4872494339942932,0.31164559721946716,-0.39712777733802795,0.9998263120651245,0.5549894571304321,0.446627676486969,-0.19433268904685974,0.998701810836792,0.43163689970970154,0.4325944781303406,-0.20915600657463074,0.9990885853767395,0.5145691633224487,0.7324517369270325,0.0060537997633218765,0.8526808023452759,0.4461275041103363,0.7218408584594727,-0.006077457685023546,0.8464453220367432,0.4902626574039459,0.931874692440033,0.039369527250528336,0.5542358756065369,0.451286256313324,0.9439745545387268,0.020750941708683968,0.585943877696991,0.4789997637271881,0.9951398372650146,0.3061552047729492,0.2760922312736511,0.4434936046600342,1.0959265232086182,0.19947227835655212,0.32835912704467773,0.5783228874206543,0.7741749286651611,-0.11711239814758301,0.8651856780052185,0.3831729292869568,0.7271955013275146,-0.16962291300296783,0.755908727645874,177.4183055332912,0.4803483337163925,0.7271462976932526,112.93647310852803,137.14205967647922,0.9806585060549338,0.013956262622262702,-0.032039397659324,-0.3081114706574425,0.6796173659838267,-173.50965250058692,1.3605996448275985,30,1762115338.0791147
0.4898974299430847,0.30968430638313293,-0.33526337146759033,0.9998433589935303,0.5560939311981201,0.44489821791648865,-0.16294865310192108,0.9988282322883606,0.4342004656791687,0.4290332794189453,-0.17972174286842346,0.9991763830184937,0.5157551169395447,0.7219914793968201,0.005928086582571268,0.8673447966575623,0.4487472176551819,0.7137601375579834,-0.005932292900979519,0.861768901348114,0.49047747254371643,0.9104865789413452,0.03318449482321739,0.5689886212348938,0.45436105132102966,0.9323588013648987,0.014894858002662659,0.6119962930679321,0.47940754890441895,0.9583290815353394,0.30017727613449097,0.2848024070262909,0.44691023230552673,1.093423843383789,0.14899137616157532,0.35828372836112976,0.5781465172767639,0.7661346197128296,-0.1164940819144249,0.878190279006958,0.39200690388679504,0.7186810970306396,-0.15838709473609924,0.7792381048202515,177.3715084040977,0.4822511672973633,0.7178758084774017,108.52933271104736,145.4890174495838,0.9094369678195722,0.03322922825190897,-0.1618907744960072,0.33656425890486324,-2.2675976937139652,-172.58440355804686,1.3924537398827328,31,1762115338.1363785
0.49419933557510376,0.3055839240550995,-0.43601831793785095,0.9998587369918823,0.556593120098114,0.4395599365234375,-0.19678696990013123,0.9989439249038696,0.4377632737159729,0.41782447695732117,-0.20834186673164368,0.9992563724517822,0.5159145593643188,0.7110223174095154,0.0058203148655593395,0.8805638551712036,0.4493067264556885,0.7034133672714233,-0.005802522413432598,0.8755698800086975,0.4917854368686676,0.9009589552879333,0.023658622056245804,0.5819891095161438,0.45645809173583984,0.9244641661643982,0.01097374688833952,0.6364967823028564,0.4811455309391022,0.9423430562019348,0.352626234292984,0.281513512134552,0.45246902108192444,1.0907676219940186,0.17560866475105286,0.3891391456127167,0.5774177312850952,0.7493531107902527,-0.1524881273508072,0.8899436593055725,0.4019937515258789,0.7055443525314331,-0.19688990712165833,0.7996504902839661,177.0060223515749,0.48261064291000366,0.7072178423404694,102.66432123457,139.53428274079707,0.9982087811734985,0.004687621446004135,-0.13898164125044693,-0.37218727352339964,0.298738886686833,-169.63447401958922,1.9913303686764632,32,1762115338.2130647
0.4981656074523926,0.29909563064575195,-0.46481871604919434,0.9998726844787598,0.5565037131309509,0.43080708384513855,-0.21175377070903778,0.9990481734275818,0.4402386546134949,0.4040050208568573,-0.21212927997112274,0.9993294477462769,0.516025185585022,0.6955307722091675,0.008522292599081993,0.8924556374549866,0.4514167904853821,0.6903263330459595,-0.008572458289563656,0.887995719909668,0.49343475699424744,0.8795130252838135,0.0831247940659523,0.6016322374343872,0.45818376541137695,0.9116309881210327,0.01627168618142605,0.66510409116745,0.4832128882408142,0.9471418857574463,0.39809513092041016,0.301116943359375,0.4543147087097168,1.0615534782409668,0.18253856897354126,0.43133974075317383,0.5757702589035034,0.7326330542564392,-0.18690399825572968,0.9004985094070435,0.40907755494117737,0.6860570311546326,-0.24902133643627167,0.818146824836731,176.956311538388,0.483720988035202,0.6929285526275635,124.16895072111929,138.3602221446236,1.0336704723178172,0.017449931618487364,-0.22456722933098525,0.20056956593921388,-1.3450436496189526,-167.0186415290993,2.079085124476563,33,1762115338.276695
0.5023869872093201,0.29225990176200867,-0.465571790933609,0.9998852014541626,0.5565232038497925,0.4203900098800659,-0.2140740156173706,0.9991418719291687,0.44143134355545044,0.39110326766967773,-0.2223753035068512,0.9993945360183716,0.5163496136665344,0.6818199753761292,0.009520793333649635,0.9031521081924438,0.4520377218723297,0.6777668595314026,-0.009584525600075722,0.899165689945221,0.49581918120384216,0.8537943363189697,0.08915576338768005,0.6256678104400635,0.4578112065792084,0.8887255191802979,0.03463052958250046,0.6921349167823792,0.4873957633972168,0.9346937537193298,0.4083995819091797,0.33519262075424194,0.4557798504829407,1.022015929222107,0.24624764919281006,0.4719052016735077,0.5746134519577026,0.7135854363441467,-0.20385003089904785,0.9098546504974365,0.4115510880947113,0.6610100269317627,-0.24652838706970215,0.8343470692634583,176.91214032902872,0.48419366776943207,0.6797934174537659,128.98395533722558,134.0027224577611,1.048979495235031,0.005969847574195414,-0.16589404870880708,-0.14499109422368803,0.7410301725294022,-165.72328405414373,2.827565379241723,34,1762115338.3558729
0.503527820110321,0.287842333316803,-0.420258104801178,0.9998964071273804,0.5570327043533325,0.417290061712265,-0.1908150017261505,0.9992261528968811,0.4438888430595398,0.38681599497795105,-0.19422833621501923,0.9994524717330933,0.5163189172744751,0.6841338276863098,0.009286883287131786,0.9127814173698425,0.4520540237426758,0.6758164167404175,-0.009329922497272491,0.9092207551002502,0.49597102403640747,0.8623508810997009,0.08334045857191086,0.6481336951255798,0.45800405740737915,0.8838384747505188,0.03787923604249954,0.717309832572937,0.4890034794807434,0.9331288933753967,0.3975425958633423,0.3626362085342407,0.4560035169124603,1.0122419595718384,0.24102285504341125,0.5075243711471558,0.5729868412017822,0.7069629430770874,-0.19912640750408173,0.9183569550514221,0.41308626532554626,0.657794177532196,-0.2244757115840912,0.8483896255493164,176.64875399188594,0.48418647050857544,0.6799751222133636,125.18460460515888,135.03829152177914,1.0084112308023923,-8.94460345961706e-05,0.0022581882937178143,-0.07530361849552578,2.0897604113514263,-164.92572414795126,3.628572774079371,35,1762115338.4363377
0.5035983324050903,0.2841656506061554,-0.3952292501926422,0.9999057650566101,0.557287871837616,0.4121719002723694,-0.18634125590324402,0.9993005990982056,0.4447961747646332,0.37961938977241516,-0.1935804933309555,0.9995005130767822,0.5161958932876587,0.6818378567695618,0.007652724627405405,0.9214603900909424,0.451315701007843,0.6722328066825867,-0.007808404508978128,0.918253481388092,0.4969004690647125,0.8523193597793579,0.08650122582912445,0.6729943752288818,0.4569021761417389,0.869681715965271,0.08800946921110153,0.7347617745399475,0.49007925391197205,0.9385150671005249,0.4265836775302887,0.3997427821159363,0.4544939398765564,0.9587749242782593,0.37422338128089905,0.5327147245407104,0.5700958967208862,0.7029422521591187,-0.16007104516029358,0.9255683422088623,0.4125913083553314,0.643811047077179,-0.14832527935504913,0.8609607815742493,176.48152662572298,0.48375579714775085,0.6770353317260742,128.9371100674505,133.14075050545537,1.0370847336617015,-0.006803723568539123,-0.046442440244370956,-0.10607131171506777,-0.7693664023074369,-163.8607723300454,3.745072225546744,36,1762115338.4996374
0.5037471055984497,0.2835993766784668,-0.35200896859169006,0.9999140501022339,0.5572496652603149,0.40659549832344055,-0.1581009328365326,0.9993672966957092,0.44729238748550415,0.37467411160469055,-0.17484742403030396,0.9995445609092712,0.5163120031356812,0.6732869744300842,0.006127911154180765,0.9292489290237427,0.45176196098327637,0.6630946397781372,-0.006290561519563198,0.92636638879776,0.4989530146121979,0.83722323179245,0.07137899100780487,0.6984180808067322,0.45558398962020874,0.8587379455566406,0.07768338918685913,0.7525521516799927,0.4904152750968933,0.9468514323234558,0.40144139528274536,0.43372660875320435,0.45240315794944763,0.9427257180213928,0.32406800985336304,0.5530500411987305,0.5682733058929443,0.6839113235473633,-0.11182521283626556,0.9322901964187622,0.4121147692203522,0.6424784660339355,-0.15281881392002106,0.8730580806732178,176.24135421835672,0.48403698205947876,0.6681908071041107,130.01058257947156,132.023183157355,0.9742196882041966,0.004396551724137931,-0.13829123951537745,0.17512529156076997,-1.4361296782016015,-163.81160779175667,3.111460017427962,37,1762115338.5635931
0.5036042332649231,0.2833578288555145,-0.3604459762573242,0.999921441078186,0.5572131872177124,0.40314555168151855,-0.16629181802272797,0.9994282722473145,0.44852542877197266,0.37339550256729126,-0.17631790041923523,0.99958336353302,0.516295313835144,0.6665734648704529,0.005150101147592068,0.936276912689209,0.4520641267299652,0.6559305191040039,-0.005317345727235079,0.9336763024330139,0.4996683597564697,0.828440248966217,0.06779594719409943,0.721755862236023,0.4545808434486389,0.8493238091468811,0.08182109892368317,0.7682520747184753,0.49061933159828186,0.9430963397026062,0.38513562083244324,0.46750232577323914,0.45204001665115356,0.9481277465820312,0.3363223671913147,0.5727454423904419,0.5666347146034241,0.6767482161521912,-0.1320672333240509,0.9385086297988892,0.4098598062992096,0.6364652514457703,-0.16329500079154968,0.8836890459060669,176.08337496554196,0.4841797202825546,0.6612519919872284,130.97081045394344,135.45604822636437,0.9796507690249179,0.001955121401629574,-0.095042698757409,-0.03344088619897161,0.5923861584027891,-164.6919357571409,3.224606895748114,38,1762115338.6366005
0.5037988424301147,0.2821967601776123,-0.3518627882003784,0.9999285936355591,0.5559936165809631,0.3987787961959839,-0.1614350825548172,0.9994834661483765,0.4484716057777405,0.37057825922966003,-0.17166642844676971,0.9996187686920166,0.5163439512252808,0.6583495736122131,0.003956708591431379,0.9426145553588867,0.45287418365478516,0.6498875617980957,-0.004157806746661663,0.9402638673782349,0.5001428127288818,0.8181172609329224,0.06389567255973816,0.7461016774177551,0.4522152841091156,0.8367397785186768,0.0707782655954361,0.7855233550071716,0.49159979820251465,0.9285194277763367,0.37431785464286804,0.506889283657074,0.4498489499092102,0.8918892741203308,0.35103708505630493,0.5939549207687378,0.5642424821853638,0.6640452146530151,-0.1408916413784027,0.9441732168197632,0.40885648131370544,0.6287024021148682,-0.17096683382987976,0.893642008304596,176.25772628227932,0.48460906744003296,0.6541185677051544,130.09256885965053,122.98517584624672,0.9518693370930675,0.0062077931255580185,-0.10313989844496,0.06148801927118908,-0.11707481854980319,-165.3036567678458,3.230314451756912,39,1762115338.705763
0.5035778880119324,0.2798760235309601,-0.36223217844963074,0.99993497133255,0.5553954243659973,0.39941927790641785,-0.17258921265602112,0.9995333552360535,0.4487592279911041,0.37061530351638794,-0.17227861285209656,0.999650239944458,0.5163770914077759,0.6573442816734314,0.001020523952320218,0.9483197331428528,0.4534110426902771,0.6478896737098694,-0.0012437388068065047,0.9461941123008728,0.5001348853111267,0.8212422132492065,0.05585106089711189,0.7682136297225952,0.45078253746032715,0.8370072841644287,0.06576351076364517,0.8018792867660522,0.49183541536331177,0.9265648126602173,0.3676857352256775,0.5441457629203796,0.44792041182518005,0.8906691670417786,0.3430022597312927,0.6163836717605591,0.5642361044883728,0.6673479676246643,-0.1564304083585739,0.9493494629859924,0.40839582681655884,0.6245580911636353,-0.15977343916893005,0.9024744033813477,176.32593586843373,0.4848940670490265,0.6526169776916504,127.12422166751772,120.46823388870109,0.9546551520127181,0.0045142219469641465,-0.023784280330208987,-0.026825146217403915,1.256945138183143,-164.8843146866155,3.078445291541992,40,1762115338.7688968
0.504340648651123,0.27925965189933777,-0.36678722500801086,0.9999408721923828,0.5544620156288147,0.397988498210907,-0.17593258619308472,0.9995786547660828,0.4498758912086487,0.36811208724975586,-0.18001197278499603,0.9996793866157532,0.5163642764091492,0.6502025127410889,-0.0006014966638758779,0.9534627199172974,0.45424970984458923,0.6406805515289307,0.0004068094422109425,0.9515317678451538,0.5002481937408447,0.8110542297363281,0.05447809025645256,0.7884814739227295,0.4507601261138916,0.8213988542556763,0.06878328323364258,0.8156701922416687,0.4927245080471039,0.9290532469749451,0.33091068267822266,0.5778840184211731,0.4481094777584076,0.8811428546905518,0.35987117886543274,0.623785674571991,0.5645846128463745,0.6586650609970093,-0.1676557958126068,0.9540100693702698,0.4081271290779114,0.6204966902732849,-0.163770854473114,0.910837709903717,176.32307647693136,0.4853069931268692,0.6454415321350098,131.9530287885786,122.32607917194777,0.9486950203141369,0.006041508966662365,-0.10498372710370352,0.022345690231965743,-1.1880266519688119,-164.05730820832648,3.3139557350020143,41,1762115338.837245
0.5041682720184326,0.27991074323654175,-0.3776681423187256,0.9999458193778992,0.5516377687454224,0.3931579291820526,-0.19066861271858215,0.9996196627616882,0.4494627118110657,0.36751559376716614,-0.1885358989238739,0.9997048377990723,0.5159534215927124,0.6418863534927368,-0.00175563246011734,0.9580919146537781,0.4545658528804779,0.6336538791656494,0.0015921697486191988,0.9563139081001282,0.5002676248550415,0.8007649183273315,0.05269620940089226,0.8070837259292603,0.45080676674842834,0.8069219589233398,0.06667684763669968,0.8265325427055359,0.4931733012199402,0.9190908670425415,0.3221132159233093,0.6074620485305786,0.455829918384552,0.8290859460830688,0.39288586378097534,0.6063472032546997,0.5639804601669312,0.6454633474349976,-0.18683752417564392,0.9581261277198792,0.4069054126739502,0.6136717200279236,-0.18545463681221008,0.9185787439346313,176.60083309995179,0.48525963723659515,0.6377701163291931,132.55839526130057,114.44610247289857,0.9457265605614521,-0.0008016571954408963,-0.12986442962771624,-0.11584352784207144,-0.421189298534422,-165.91174494861158,14.75092568218082,42,1762115338.8963175
0.503954291343689,0.2804364562034607,-0.32801753282546997,0.9999504685401917,0.5485501885414124,0.3918818235397339,-0.17392376065254211,0.999656617641449,0.44890832901000977,0.36642196774482727,-0.1777074635028839,0.9997298717498779,0.5141837000846863,0.6374940872192383,-0.0025265193544328213,0.9622616171836853,0.45442086458206177,0.6296971440315247,0.0023883082903921604,0.960624098777771,0.5002036690711975,0.7927512526512146,0.051815323531627655,0.8240870833396912,0.45118817687034607,0.7916982769966125,0.08828031271696091,0.83443284034729,0.49331849813461304,0.9158669114112854,0.26738959550857544,0.6357624530792236,0.45670247077941895,0.8032000064849854,0.38682639598846436,0.5870361328125,0.5620426535606384,0.6329817175865173,-0.17810609936714172,0.961760938167572,0.4063825011253357,0.6086804866790771,-0.17794421315193176,0.925841212272644,176.75480004226978,0.484302282333374,0.6335956156253815,138.96292543204547,120.10555135556082,0.8748602978386368,-0.01201521711809836,-0.05239178506026404,-0.14073501549342868,0.9723151174755026,-165.66681811140688,21.017143055393095,43,1762115338.975996
0.502712607383728,0.28163450956344604,-0.31546130776405334,0.9999546408653259,0.5449733138084412,0.3884769082069397,-0.1676630824804306,0.9996899962425232,0.44859281182289124,0.36496806144714355,-0.17284798622131348,0.9997527599334717,0.5120704174041748,0.6303330063819885,-0.0024239339400082827,0.9660189151763916,0.45431238412857056,0.6224236488342285,0.0022978601045906544,0.9645085334777832,0.4996558129787445,0.7881518602371216,0.045357126742601395,0.8394246697425842,0.4523567259311676,0.7808080315589905,0.08677101135253906,0.8409399390220642,0.493476003408432,0.914851725101471,0.2207358330488205,0.6635900139808655,0.4584868848323822,0.7782034277915955,0.3776922821998596,0.5639921426773071,0.5600398778915405,0.6304040551185608,-0.16560101509094238,0.9649989008903503,0.4051543176174164,0.6036912202835083,-0.1659429520368576,0.9324193000793457,176.88380268617178,0.4831914007663727,0.6263783276081085,142.64764583721865,117.53613972509308,0.8352511819311274,-0.01683932908318154,-0.10940346083788707,-0.07312643519095413,-0.8642130705206703,-166.29224939546995,526.2918094451567,44,1762115339.0419655
0.5020166635513306,0.282745897769928,-0.2666035592556,0.9999586343765259,0.544141411781311,0.3882259726524353,-0.14268845319747925,0.9997200965881348,0.44836655259132385,0.36501309275627136,-0.1485907882452011,0.9997742772102356,0.5109759569168091,0.626861035823822,-0.002212634775787592,0.9694069623947144,0.4541930556297302,0.6196256279945374,0.0020933770574629307,0.9680269360542297,0.4993348717689514,0.7826600670814514,0.03275524079799652,0.8534802794456482,0.4532849192619324,0.7774779200553894,0.08652958273887634,0.8495665788650513,0.4934617578983307,0.9156518578529358,0.15581640601158142,0.69075608253479,0.45942768454551697,0.7874366044998169,0.3378523290157318,0.547804594039917,0.5592439770698547,0.62953120470047,-0.13426056504249573,0.9679052829742432,0.40426892042160034,0.6020100116729736,-0.13816939294338226,0.9384044408798218,176.8275457102664,0.48258450627326965,0.6232433319091797,149.8234851530756,120.39234480414063,0.766683750294451,-0.007847640775052796,-0.0405380512694033,0.11626986338704123,0.8904859119039655,-166.37598162235608,100.63982928640972,45,1762115339.1193001
0.5007939338684082,0.2864550054073334,-0.23631715774536133,0.999962329864502,0.5408894419670105,0.3884695768356323,-0.12617991864681244,0.999747097492218,0.4475153088569641,0.3659827411174774,-0.12992604076862335,0.9997937083244324,0.5096547603607178,0.62479168176651,-0.00320938928052783,0.9724569320678711,0.45411497354507446,0.6188127398490906,0.0030820309184491634,0.9711976051330566,0.49890583753585815,0.7799733281135559,0.015519997105002403,0.8659846782684326,0.4558809697628021,0.7705068588256836,0.08089929819107056,0.8557287454605103,0.49362677335739136,0.9176186323165894,0.09671823680400848,0.7158414125442505,0.4603897035121918,0.7986193895339966,0.2969546914100647,0.5383397340774536,0.5574564337730408,0.6264790296554565,-0.11804439127445221,0.9704681038856506,0.40249425172805786,0.6034918427467346,-0.12199672311544418,0.9438872337341309,177.1168662300792,0.4818848669528961,0.6218022108078003,156.28415654566368,124.57407809990578,0.7176263335719701,-0.010876615554542456,-0.022403715358470563,-0.047088540111388855,0.2819169739271413,-166.45957462092025,31.896991223845163,46,1762115339.1836252
0.4979344308376312,0.29141849279403687,-0.21145927906036377,0.9999656081199646,0.5366004705429077,0.3889165222644806,-0.11822114884853363,0.9997711777687073,0.44471684098243713,0.36648476123809814,-0.11887556314468384,0.999810516834259,0.5072822570800781,0.6212636232376099,-0.004653956741094589,0.9752029776573181,0.4537000060081482,0.615637481212616,0.004516401328146458,0.9740525484085083,0.49813908338546753,0.7765899896621704,0.014358381740748882,0.8769955635070801,0.45650744438171387,0.7595017552375793,0.08627323806285858,0.8599112629890442,0.49368375539779663,0.9127241969108582,0.08192181587219238,0.7386818528175354,0.4609306752681732,0.7921921610832214,0.27093690633773804,0.5345669984817505,0.5545355081558228,0.6223815679550171,-0.10962177813053131,0.9725983142852783,0.401771605014801,0.6029910445213318,-0.10932467877864838,0.9487730860710144,177.58168032045734,0.48049113154411316,0.6184505522251129,160.5246376723935,129.6562822616772,0.6823845020833542,-0.02196180751226623,-0.052813812561518986,-0.17467508572852997,-0.47918758251671745,-166.28060953110705,596.3864291851164,47,1762115339.247087
0.4960610270500183,0.29640084505081177,-0.22619827091693878,0.9999686479568481,0.5331742167472839,0.3896534740924835,-0.12248598039150238,0.999792754650116,0.4423440396785736,0.36826929450035095,-0.12943419814109802,0.9998257756233215,0.5060145854949951,0.6148278117179871,-0.004446119070053101,0.9776754379272461,0.45368272066116333,0.61025071144104,0.004309036768972874,0.9766202569007874,0.4972599148750305,0.7720311284065247,0.008907938376069069,0.8876746892929077,0.4585171639919281,0.7581250667572021,0.06358630955219269,0.8663883805274963,0.49448269605636597,0.9139018654823303,0.05418141931295395,0.7615872621536255,0.4649495482444763,0.7724568843841553,0.26659664511680603,0.5222963094711304,0.5518642663955688,0.6199802160263062,-0.11643081903457642,0.9743247032165527,0.40168699622154236,0.6051652431488037,-0.1199566125869751,0.953234851360321,178.06033137773605,0.4798486530780792,0.6125392615795135,166.98379056642852,115.91568512884018,0.6698385324832412,-0.00769970369820076,-0.07084313148428058,0.17092241886202408,-0.21607014230776708,-166.7520847111245,4.326014383467006,48,1762115339.330529
0.4931008815765381,0.29810160398483276,-0.25780364871025085,0.9999708533287048,0.5293833017349243,0.39271557331085205,-0.14085349440574646,0.9998093843460083,0.4401096701622009,0.3710651695728302,-0.15163397789001465,0.9998389482498169,0.5037224888801575,0.6105996370315552,-0.005582131445407867,0.9798930883407593,0.45318156480789185,0.6050061583518982,0.005389602854847908,0.978917121887207,0.4957927167415619,0.7713595628738403,-0.0011269700480625033,0.8968191742897034,0.4622347354888916,0.7574869990348816,0.05070728063583374,0.8697397708892822,0.49472910165786743,0.9141120314598083,0.0811568945646286,0.7812579274177551,0.46690884232521057,0.7797406315803528,0.2847949266433716,0.5084835886955261,0.5484398603439331,0.6247599124908447,-0.1277785748243332,0.972552478313446,0.4021620750427246,0.6035251021385193,-0.1327427327632904,0.9565494060516357,178.4040165197251,0.47845202684402466,0.6078028976917267,151.53143284808385,112.00983375872596,0.7040213397095704,-0.01863031800704138,-0.06318080190314446,-0.1458091045553577,0.10221176810985556,-166.36796718451788,3.484829605473826,49,1762115339.4054942
0.4926088750362396,0.2994985282421112,-0.26430144906044006,0.9999729990959167,0.5281206965446472,0.39380955696105957,-0.14232662320137024,0.9998247623443604,0.4390285611152649,0.3731732666492462,-0.15201513469219208,0.9998508095741272,0.501994788646698,0.6118983626365662,-0.006560945417732,0.9818907976150513,0.4523216187953949,0.6059996485710144,0.006350758485496044,0.9809905886650085,0.49504223465919495,0.773219645023346,-0.0043800389394164085,0.9053670167922974,0.4637395739555359,0.7600179314613342,0.05540939420461655,0.8743029236793518,0.49468937516212463,0.9151362776756287,0.07968677580356598,0.7996227741241455,0.4676598608493805,0.7866929173469543,0.2825098931789398,0.5098365545272827,0.5479120016098022,0.6235722303390503,-0.12782013416290283,0.9721194505691528,0.4023338854312897,0.602684497833252,-0.13644923269748688,0.9597792625427246,178.3698270453971,0.47715820372104645,0.6089490056037903,150.04763240934875,114.3741380207096,0.7089226973866809,-0.014953342169365239,0.013246125739856934,0.04249659545633713,0.8833031190294822,-166.95864109727353,3.595212562501291,50,1762115339.4920182
0.48896852135658264,0.2998034358024597,-0.26805537939071655,0.9999720454216003,0.5235098600387573,0.3938172161579132,-0.1410924643278122,0.9998319149017334,0.43657103180885315,0.37444478273391724,-0.16087524592876434,0.9998594522476196,0.4996758997440338,0.6081022620201111,-0.0041670165956020355,0.9836854934692383,0.45148760080337524,0.6028553247451782,0.003954258281737566,0.9828478693962097,0.4926373362541199,0.7674944400787354,0.01831386797130108,0.9127505421638489,0.46272844076156616,0.7553500533103943,0.05727935954928398,0.8780061602592468,0.4929800033569336,0.9136286973953247,0.11630050837993622,0.8166152238845825,0.4665212035179138,0.7670902013778687,0.2992019057273865,0.5067943930625916,0.5398535132408142,0.6086882948875427,-0.12274664640426636,0.966413676738739,0.40265411138534546,0.600615382194519,-0.15207748115062714,0.962029218673706,178.84602464452396,0.47558175027370453,0.6054787933826447,154.0569230923054,112.0600340171366,0.7201928085843327,-0.021793065374664227,-0.04797259438704043,-0.09455308382814512,-0.8462943020158735,-167.43810365841068,2.1552972748180674,51,1762115339.5643556
0.48614272475242615,0.3000490367412567,-0.305941641330719,0.9999722242355347,0.5220049619674683,0.39245572686195374,-0.14247797429561615,0.9998435974121094,0.4359474778175354,0.37440693378448486,-0.16772207617759705,0.9998684525489807,0.4982924461364746,0.6008777022361755,-0.002781620481982827,0.9852989912033081,0.4506402015686035,0.5969581604003906,0.00262458180077374,0.9845128059387207,0.4906742572784424,0.7580578923225403,0.0026387409307062626,0.9196574091911316,0.46217894554138184,0.7512014508247375,0.030835822224617004,0.883307933807373,0.4927820563316345,0.9037802219390869,0.11748041212558746,0.831142783164978,0.4658462405204773,0.7681264877319336,0.3018558919429779,0.5020731687545776,0.5361560583114624,0.6039486527442932,-0.14219048619270325,0.9635745882987976,0.4039478898048401,0.5951447486877441,-0.19003090262413025,0.964091956615448,178.80103779008448,0.47446632385253906,0.5989179313182831,143.58180707628446,103.9568654410794,0.7437025794096802,-0.014371446256493118,-0.08453186580941643,0.09562208521249982,-0.47103923168167483,-168.1550656074608,1.5613026254228901,52,1762115339.6419697
0.48334813117980957,0.2997516393661499,-0.307820588350296,0.9999711513519287,0.5202510356903076,0.3885180950164795,-0.14110104739665985,0.9998537302017212,0.4352288842201233,0.37267303466796875,-0.16601063311100006,0.9998745918273926,0.49590951204299927,0.5945323705673218,-0.0017703801859170198,0.9867517352104187,0.449185311794281,0.5888872146606445,0.00163393619004637,0.9860195517539978,0.4887257516384125,0.7484735250473022,0.0017471213359385729,0.9261493682861328,0.46108993887901306,0.7423260807991028,0.03315725922584534,0.8901848196983337,0.4926754832267761,0.8873566389083862,0.12391368299722672,0.8451963067054749,0.4643605351448059,0.772391676902771,0.3121228814125061,0.5158835649490356,0.5309542417526245,0.5951554775238037,-0.14263655245304108,0.959602952003479,0.4054655134677887,0.585067629814148,-0.184560164809227,0.964583158493042,178.59104183406134,0.47254741191864014,0.5917097926139832,139.79261614511702,107.7596535862843,0.7466992249412028,-0.02859990689972532,-0.10743176496089434,-0.2120642654486097,-0.3413053888380601,-169.44324024607837,1.4379153484667617,53,1762115339.7090647
0.4809351861476898,0.2927740812301636,-0.3070841133594513,0.9999696016311646,0.5187526941299438,0.3831765353679657,-0.1408187299966812,0.9998623132705688,0.434701532125473,0.3673478066921234,-0.15919199585914612,0.9998787641525269,0.49512943625450134,0.581743597984314,-0.0015035142423585057,0.9880609512329102,0.44831958413124084,0.5769662261009216,0.0013619130477309227,0.9873850345611572,0.4882933497428894,0.7347652912139893,-0.0009831171482801437,0.9323873519897461,0.460584819316864,0.7306944131851196,0.03970801457762718,0.897655189037323,0.49226468801498413,0.8673993349075317,0.13961437344551086,0.8584641218185425,0.4624241292476654,0.7785260677337646,0.3131628632545471,0.5477257966995239,0.5261228084564209,0.5763903856277466,-0.13735514879226685,0.9540170431137085,0.407640278339386,0.5760761499404907,-0.18060488998889923,0.963239312171936,178.59588023053414,0.4717245101928711,0.5793549120426178,133.38560363522157,113.88276524750592,0.7521343111666954,-0.013426617496032116,-0.20158452758846046,0.247570209905191,-1.5362139735624245,-169.3348237858164,1.7212818530269296,54,1762115339.7703536
0.48021745681762695,0.2906285524368286,-0.2990899384021759,0.9999672770500183,0.5188544988632202,0.3816666901111603,-0.12757398188114166,0.9998704195022583,0.4349181652069092,0.3644753396511078,-0.1509919911623001,0.9998832941055298,0.4942874312400818,0.5805924534797668,0.000821950554382056,0.9892439246177673,0.4477037787437439,0.5754069685935974,-0.000979162286967039,0.9886218309402466,0.4881718158721924,0.7327432632446289,-0.0010803765617311,0.9377904534339905,0.46053165197372437,0.7290511131286621,0.025523629039525986,0.9041043519973755,0.4913644790649414,0.8624125719070435,0.1508868932723999,0.8696304559707642,0.46138614416122437,0.7713828086853027,0.3122406303882599,0.563042938709259,0.5252422094345093,0.5724780559539795,-0.11802981048822403,0.9504010677337646,0.40859976410865784,0.572519063949585,-0.1641927808523178,0.9631170630455017,178.35347177405922,0.47099560499191284,0.5779997110366821,129.6629900805372,108.13624626027433,0.7473736128024863,-0.009049803892547916,-0.016825649374676236,0.054340817891950555,2.293894477695813,-168.42509205052943,2.9096078021039413,55,1762115339.8508973
0.479829877614975,0.2848326861858368,-0.2675657272338867,0.9999673962593079,0.5193403363227844,0.37712016701698303,-0.1282224953174591,0.9998785257339478,0.4349810481071472,0.36058396100997925,-0.13100378215312958,0.9998846650123596,0.4951036870479584,0.5752097368240356,-0.0023711586836725473,0.9902973771095276,0.4477320611476898,0.5698156952857971,0.0021797805093228817,0.9897244572639465,0.48852309584617615,0.7202349901199341,0.03364504128694534,0.9431148171424866,0.46045953035354614,0.7075520157814026,0.0894029289484024,0.91108638048172,0.4909222722053528,0.8293971419334412,0.1987997591495514,0.881129801273346,0.4607457220554352,0.7734063863754272,0.28574007749557495,0.602594792842865,0.526902437210083,0.5608270168304443,-0.10100029408931732,0.9510517120361328,0.41034674644470215,0.5668229460716248,-0.11910952627658844,0.9612324237823486,178.38480300584445,0.4714178740978241,0.5725127160549164,137.29835049721922,140.681046874813,0.7258043571473899,0.006544379288556828,-0.08503813282193967,0.2416805965763242,-1.057165579115595,-168.90943663175955,4.273934933099126,56,1762115339.9154212
0.47925305366516113,0.280834823846817,-0.27556633949279785,0.9999644160270691,0.5184226632118225,0.36901283264160156,-0.12396768480539322,0.9998860955238342,0.4349178671836853,0.35491088032722473,-0.12250815331935883,0.9998798370361328,0.49551525712013245,0.5658254623413086,-0.002359789563342929,0.9912375211715698,0.4478332996368408,0.561228334903717,0.0021713939495384693,0.9907040596008301,0.48866063356399536,0.7117185592651367,0.03275514766573906,0.9475797414779663,0.460212767124176,0.7010462880134583,0.08075036108493805,0.9174850583076477,0.48864299058914185,0.8081380128860474,0.2396169900894165,0.8906015157699585,0.46025604009628296,0.7754465937614441,0.26133862137794495,0.6374024748802185,0.526170551776886,0.548317015171051,-0.1012006625533104,0.9506321549415588,0.411433607339859,0.5574541687965393,-0.11611846834421158,0.9547972679138184,178.58015874530972,0.47167427837848663,0.5635268986225128,128.47500036321497,141.51191191420602,0.7333642086582135,0.003291819712274258,-0.11536348331802877,-0.04175764812072326,-0.389328860995251,-170.4145602600208,361.634984864086,57,1762115339.9933126
0.4792547821998596,0.278871089220047,-0.29827678203582764,0.9999548196792603,0.5182673335075378,0.36799147725105286,-0.1272382289171219,0.999884307384491,0.4347860813140869,0.35437706112861633,-0.129209965467453,0.9998647570610046,0.4958582818508148,0.5620170831680298,-0.0012852221261709929,0.9920612573623657,0.44818028807640076,0.5599182844161987,0.0011381293879821897,0.9915714263916016,0.4887565076351166,0.7106810808181763,0.027584638446569443,0.9502529501914978,0.46008214354515076,0.698084831237793,0.04854057356715202,0.9219199419021606,0.48749518394470215,0.7869744896888733,0.29377371072769165,0.8950088024139404,0.4601808488368988,0.7779173851013184,0.27414825558662415,0.6669394373893738,0.524965226650238,0.5527127981185913,-0.10418067127466202,0.940163791179657,0.4129522740840912,0.5575419664382935,-0.11076885461807251,0.9374483823776245,178.70753797500615,0.4720192849636078,0.5609676837921143,116.96351241649639,128.27396906364805,0.7698167212286804,0.004364998567183988,-0.03237900245841063,0.013577781891809727,1.0499136992516773,-170.73754389566918,7.740599757596294,58,1762115340.072352
0.4795403480529785,0.27952155470848083,-0.3210495114326477,0.9999507665634155,0.5180485844612122,0.36885499954223633,-0.12897881865501404,0.9998805522918701,0.43488073348999023,0.3545833230018616,-0.13282661139965057,0.9998616576194763,0.49605312943458557,0.5603636503219604,-0.000654426054097712,0.9927664399147034,0.4493470788002014,0.5582813024520874,0.0005493718199431896,0.9923344254493713,0.48908132314682007,0.7095292806625366,-0.0011085132136940956,0.9498563408851624,0.4599880278110504,0.6962417364120483,0.017235057428479195,0.9218721389770508,0.4843459725379944,0.7731028199195862,0.28757429122924805,0.8830389976501465,0.46019381284713745,0.7819422483444214,0.2556632161140442,0.6831289529800415,0.5257794857025146,0.5538756251335144,-0.1036076545715332,0.931419849395752,0.4126247465610504,0.5567800998687744,-0.12203498929738998,0.9326513409614563,178.90858604327664,0.4727001041173935,0.5593224763870239,102.273397362461,116.5858056840165,0.7741534134069741,0.00993799114631549,-0.024015271213692586,0.08134957808094151,0.1220862935450441,-170.26283093492734,1.6614809154941113,59,1762115340.1408587
0.4796563982963562,0.27941787242889404,-0.3274683356285095,0.9999502301216125,0.5180509090423584,0.3691939115524292,-0.1299077868461609,0.9998785257339478,0.43492189049720764,0.35441774129867554,-0.13484226167201996,0.9998617768287659,0.49624568223953247,0.5588240027427673,-0.0005110888159833848,0.9934305548667908,0.44985276460647583,0.5570554733276367,0.0004164303245488554,0.9930531978607178,0.48917102813720703,0.7087211012840271,-0.02286362461745739,0.9467753171920776,0.4599170684814453,0.6940990090370178,0.008431149646639824,0.9196370244026184,0.4818696081638336,0.7592217326164246,0.29374900460243225,0.8539138436317444,0.46022695302963257,0.782315731048584,0.24989168345928192,0.6930283904075623,0.5264245867729187,0.5565529465675354,-0.1069522276520729,0.9259927272796631,0.41221994161605835,0.5546881556510925,-0.13257548213005066,0.9313688278198242,178.99601481608127,0.47304922342300415,0.557939738035202,90.64113482301191,113.35499087797967,0.7750139923219863,0.005178036585063986,-0.02050837538411488,-0.07059826960382833,0.05201326484595122,-169.92095335664814,0.9829581571576517,60,1762115340.2082818
0.47994285821914673,0.2786177098751068,-0.32475900650024414,0.9999529719352722,0.5173988342285156,0.36761346459388733,-0.1306881457567215,0.999883234500885,0.43540334701538086,0.3540962040424347,-0.1372370421886444,0.999863862991333,0.49644166231155396,0.556853711605072,0.00034401362063363194,0.9940311312675476,0.4509420394897461,0.5569154024124146,-0.0004167080332990736,0.9937016367912292,0.4897073209285736,0.7003316879272461,-0.009367870166897774,0.9459793567657471,0.4601992964744568,0.6930696964263916,0.012760424986481667,0.9201240539550781,0.4825431704521179,0.7491656541824341,0.2850883901119232,0.8423409461975098,0.46063628792762756,0.7826499938964844,0.2396649420261383,0.7086247205734253,0.5270925760269165,0.5595806241035461,-0.11171889305114746,0.9289361238479614,0.4120803773403168,0.5533335208892822,-0.1423461139202118,0.9318957328796387,179.20819089334736,0.47369185090065,0.5568845570087433,95.60089567727047,117.01172492678526,0.7630528999553452,0.009900367309458218,-0.01625619834710744,0.07275258272414921,0.06550935961442961,-170.63877455699622,0.8052238658422053,61,1762115340.2731912
0.48008623719215393,0.27895432710647583,-0.327186644077301,0.9999569058418274,0.5174027681350708,0.36674928665161133,-0.14144879579544067,0.9998885989189148,0.4374295175075531,0.3541666567325592,-0.14432448148727417,0.999868631362915,0.497053861618042,0.5517090559005737,0.00013932316505815834,0.9945553541183472,0.45281729102134705,0.5526348948478699,-0.0002069248876068741,0.9942871928215027,0.4899044930934906,0.6908853054046631,-0.011130696162581444,0.945238471031189,0.46157440543174744,0.6887524724006653,0.00780553137883544,0.9213988184928894,0.4809880256652832,0.7505260109901428,0.2595221698284149,0.8331930041313171,0.46134692430496216,0.7828500270843506,0.18817803263664246,0.7274793982505798,0.5280702114105225,0.5591708421707153,-0.14501264691352844,0.9336968660354614,0.4106091558933258,0.5501773357391357,-0.16065368056297302,0.9353247880935669,179.2586975490803,0.4749355763196945,0.5521719753742218,97.87807855108797,120.84257605267942,0.7359383080431239,0.01669460268185746,-0.06325727269817903,0.09119943866417776,-0.6308983075335136,-171.05863960582496,0.5424405105063306,62,1762115340.3476899
0.48111492395401,0.27858707308769226,-0.38041600584983826,0.9999597668647766,0.5176515579223633,0.36541032791137695,-0.19071494042873383,0.9998907446861267,0.4398435652256012,0.35322749614715576,-0.18287821114063263,0.9998718500137329,0.4977136254310608,0.5415142774581909,-0.0003465126210357994,0.995010495185852,0.4543493688106537,0.5428443551063538,0.0002826560812536627,0.9948214292526245,0.4900546967983246,0.6807292103767395,-0.008298798464238644,0.9413723945617676,0.46381959319114685,0.6824179291725159,-0.009172485210001469,0.9200642108917236,0.4816811978816986,0.7400675415992737,0.2542061507701874,0.815858006477356,0.4621414542198181,0.7830021977424622,0.1423228234052658,0.7431677579879761,0.5296551585197449,0.5574876666069031,-0.2062571793794632,0.9374998211860657,0.40789681673049927,0.5493331551551819,-0.20058707892894745,0.9370593428611755,179.14903618372654,0.47603149712085724,0.5421793162822723,99.54795210415945,119.58807068948587,0.753786702818093,0.014096012192803303,-0.1285281237925261,-0.033423732060699686,-0.8395302944194749,-171.1011318405518,0.5403147563886548,63,1762115340.4254367
0.48225218057632446,0.2786562442779541,-0.3969992697238922,0.9999629855155945,0.5176782011985779,0.36404964327812195,-0.20477862656116486,0.9998993873596191,0.4432249069213867,0.35293880105018616,-0.19447191059589386,0.9998811483383179,0.49944162368774414,0.5346288084983826,-5.60255502932705e-05,0.9954702258110046,0.4572039246559143,0.5361447930335999,-1.7068319721147418e-05,0.9953321218490601,0.49029073119163513,0.6702357530593872,0.051072657108306885,0.9332870841026306,0.4660634398460388,0.6741722822189331,-0.04513196274638176,0.9219170212745667,0.4856366217136383,0.7057138085365295,0.3403095006942749,0.7748454213142395,0.4632558822631836,0.7829122543334961,0.07410142570734024,0.7606290578842163,0.5320599675178528,0.5582472681999207,-0.22586452960968018,0.942036509513855,0.40796080231666565,0.5437756180763245,-0.21278274059295654,0.9359333515167236,179.31051818855678,0.4783227741718292,0.5353868007659912,117.65216320901683,114.1449263067524,0.7628633791414827,0.03084756629924697,-0.09144794281348903,0.22552692861595902,0.49921214924825247,-171.51225286407575,0.5704380623618157,64,1762115340.4997141
0.483067125082016,0.27888381481170654,-0.39053454995155334,0.9999663233757019,0.5180086493492126,0.36308056116104126,-0.2014501541852951,0.9999079704284668,0.4443429410457611,0.3526609241962433,-0.1910664439201355,0.9998914003372192,0.4999491274356842,0.5329629778862,-0.0010471455752849579,0.9959068298339844,0.4576883316040039,0.5347983241081238,0.0009208071860484779,0.9957965612411499,0.4904438555240631,0.6677230000495911,0.060917116701602936,0.9314906597137451,0.46567100286483765,0.6763888001441956,-0.042485956102609634,0.9256265759468079,0.4931052625179291,0.6738491654396057,0.3735617399215698,0.7433673143386841,0.4642271101474762,0.7836356163024902,0.07959792762994766,0.7783740162849426,0.533027172088623,0.5575559735298157,-0.22008761763572693,0.9457246661186218,0.4079732894897461,0.5395671129226685,-0.20827355980873108,0.935390293598175,179.23275999409296,0.47881872951984406,0.5338806509971619,115.72313833918788,114.18500147907416,0.7636899039002373,0.006204754859704644,-0.01884300700656511,-0.30829913347705834,0.9083394908226353,-171.94921187771422,3.865581113816657,65,1762115340.5796456
0.48441576957702637,0.2795763611793518,-0.3973829746246338,0.9999694228172302,0.5193837881088257,0.3617534935474396,-0.20324595272541046,0.9999162554740906,0.4473583698272705,0.35173875093460083,-0.19286027550697327,0.999901533126831,0.5024169683456421,0.5291138291358948,-0.0007883846992626786,0.9963039755821228,0.461287260055542,0.5301028490066528,0.0006170733831822872,0.9962160587310791,0.49125775694847107,0.6598281860351562,0.11587812006473541,0.9312882423400879,0.4664226174354553,0.6697466373443604,-0.0737605020403862,0.9309341311454773,0.4972721040248871,0.656714916229248,0.43627557158470154,0.7207353115081787,0.4650527536869049,0.7837974429130554,0.023790333420038223,0.7967997789382935,0.5354693531990051,0.5514718294143677,-0.22031660377979279,0.9492999911308289,0.40896862745285034,0.5317976474761963,-0.20713956654071808,0.9362273216247559,179.49654683294622,0.48185211420059204,0.5296083390712738,130.99152751228425,111.38595902204243,0.766720308962998,0.041242625368731564,-0.058087377224545364,0.4763832877159507,-0.5335758662606744,-172.08408696839777,0.6538126407757082,66,1762115340.6531954
0.4854668974876404,0.2797529995441437,-0.37846696376800537,0.9999721646308899,0.5216449499130249,0.3602638244628906,-0.19283661246299744,0.9999236464500427,0.45075932145118713,0.35098734498023987,-0.18496493995189667,0.9999105334281921,0.5042176246643066,0.527155339717865,-0.0013111644657328725,0.9966636300086975,0.4636502265930176,0.5266183018684387,0.0011376126203686,0.9965933561325073,0.49223774671554565,0.6572878956794739,0.08097431063652039,0.9306036829948425,0.4666455388069153,0.6658269166946411,-0.04813098534941673,0.9354771971702576,0.49771952629089355,0.6495718359947205,0.40010866522789,0.6931183934211731,0.4657209515571594,0.7794257998466492,0.06065168231725693,0.812626838684082,0.5370453596115112,0.5454806685447693,-0.21218359470367432,0.9526178240776062,0.41158047318458557,0.5237559676170349,-0.1949186623096466,0.9379457831382751,179.24121028026312,0.4839339256286621,0.5268868207931519,120.72306569269209,116.73550972241709,0.7481395597999329,0.03769306811019883,-0.04927553592858314,-0.06426792633709269,0.15954631128760793,-172.5443308789889,0.9950052077039179,67,1762115340.708426
0.4867440164089203,0.27991753816604614,-0.37657827138900757,0.9999744892120361,0.5235353112220764,0.3596721589565277,-0.19467613101005554,0.9999303221702576,0.4532065987586975,0.3506523668766022,-0.1803060621023178,0.9999184608459473,0.5061059594154358,0.526298999786377,-0.0008037631632760167,0.996986985206604,0.46590352058410645,0.5251073837280273,0.0006234233151189983,0.9969329833984375,0.492765337228775,0.651185154914856,0.09512486308813095,0.9295976161956787,0.46757298707962036,0.6617240905761719,-0.06508730351924896,0.9403113722801208,0.4982326030731201,0.6566006541252136,0.419609397649765,0.6837040781974792,0.46616727113723755,0.7726379632949829,0.04931250214576721,0.8286868333816528,0.5381379127502441,0.5425407886505127,-0.21632568538188934,0.9556081295013428,0.41657891869544983,0.5164064764976501,-0.19040122628211975,0.9375194907188416,179.20508563803435,0.4860047399997711,0.5257031917572021,128.21159235452996,108.4181602871025,0.7499034657351566,0.025046210321122083,-0.014315827719848667,-0.15296197694286867,0.422832783458083,-172.69160312345755,1.1646048640737519,68,1762115340.7911057
0.48711949586868286,0.27995967864990234,-0.3363370895385742,0.9999760985374451,0.5250760316848755,0.3601178526878357,-0.17782223224639893,0.9999344348907471,0.45475268363952637,0.34962892532348633,-0.14981219172477722,0.9999250173568726,0.5056474208831787,0.525749146938324,-0.0011479577515274286,0.9972718358039856,0.4656449258327484,0.5234084725379944,0.000978707685135305,0.9972378015518188,0.49312156438827515,0.6485398411750793,0.07437902688980103,0.9193591475486755,0.46767616271972656,0.6580834984779358,-0.0546732135117054,0.9436895847320557,0.4970296025276184,0.649752140045166,0.3717990219593048,0.6546880006790161,0.4660719931125641,0.7673559188842773,0.06629479676485062,0.8418847918510437,0.5379201173782349,0.5445749163627625,-0.1895928978919983,0.9550262689590454,0.4211371839046478,0.5082880258560181,-0.137688547372818,0.9343209862709045,178.55928347973625,0.48564617335796356,0.5245788097381592,121.61485584372615,109.62790944529216,0.7015522177166944,-0.0056352574190647485,-0.017670863309352518,-0.4821920071512912,-0.05272796460281161,-171.51671065623052,3.702018779189211,69,1762115340.854735
0.487104594707489,0.27983930706977844,-0.3295535445213318,0.9999779462814331,0.5253913998603821,0.3598290681838989,-0.17547643184661865,0.9999393820762634,0.4550355076789856,0.3491191565990448,-0.14374926686286926,0.9999306797981262,0.5055033564567566,0.525488555431366,-0.003822593716904521,0.9975337386131287,0.46561866998672485,0.5229752659797668,0.0036644660867750645,0.9975125789642334,0.49317941069602966,0.6489278674125671,0.05519743636250496,0.9155811667442322,0.46761345863342285,0.656704843044281,-0.04567502439022064,0.9470905661582947,0.4967908263206482,0.6461636424064636,0.3602328598499298,0.6400771737098694,0.46600228548049927,0.7652053833007812,0.07569283246994019,0.8544356226921082,0.537563681602478,0.5439195036888123,-0.18433333933353424,0.9560520052909851,0.422576904296875,0.5081129670143127,-0.1273374855518341,0.9272919297218323,178.43012514996974,0.4855610132217407,0.5242319107055664,114.8572367871761,111.53175262479509,0.6936504300155427,-0.0010842657576162317,-0.004416746603203128,0.057943594744770205,0.16875248830417938,-171.34460863586358,4.647229907179736,70,1762115340.9332767
0.487557590007782,0.2796671390533447,-0.32208648324012756,0.9999791383743286,0.5252065062522888,0.3596256971359253,-0.17400598526000977,0.999943733215332,0.455763578414917,0.34745490550994873,-0.13154786825180054,0.9999313354492188,0.5052629709243774,0.5231208801269531,-0.008300010114908218,0.9977705478668213,0.46541768312454224,0.5209662914276123,0.008206307888031006,0.9977583885192871,0.49318522214889526,0.644615888595581,-0.0020986103918403387,0.9164484739303589,0.46775585412979126,0.6532391309738159,-0.03169708326458931,0.9493102431297302,0.49658894538879395,0.6495733857154846,0.30073583126068115,0.6399010419845581,0.4658835530281067,0.7570570111274719,0.10067570209503174,0.8653410077095032,0.5374988317489624,0.5428765416145325,-0.1868983656167984,0.9576978087425232,0.43000245094299316,0.5052461624145508,-0.12481564283370972,0.9040663838386536,178.25119770328584,0.48534032702445984,0.5220435857772827,93.77684002089474,111.30215733563844,0.6729259796814169,-0.0027819771460859217,-0.02758609289436827,-0.02140140317593659,-0.29207350829346757,-170.05912150610294,6.7101096050886815,71,1762115341.0126038
0.48858922719955444,0.27836719155311584,-0.3285212814807892,0.9999798536300659,0.5251352787017822,0.3592911958694458,-0.17869965732097626,0.9999462366104126,0.45642128586769104,0.34585070610046387,-0.14132092893123627,0.9999337196350098,0.5051099061965942,0.5184698104858398,-0.008490904234349728,0.9979749917984009,0.46556925773620605,0.516386091709137,0.008388767950236797,0.9979787468910217,0.49346041679382324,0.6373738050460815,0.02090698853135109,0.9189983606338501,0.4682391285896301,0.6452633142471313,-0.026178400963544846,0.9517070055007935,0.4963608682155609,0.6594727635383606,0.31135690212249756,0.6517573595046997,0.4671989381313324,0.7477134466171265,0.09882983565330505,0.8757423162460327,0.5365089178085327,0.542354166507721,-0.1943250298500061,0.9588726758956909,0.4376203119754791,0.5088170170783997,-0.12965165078639984,0.8917992115020752,178.11047394127283,0.48533958196640015,0.5174279510974884,108.09523793698351,114.30685911820784,0.6823547754025369,-1.138927258082739e-05,-0.07055654363822568,0.04235237789859324,-0.6568644820040896,-168.9326502646321,5.840964746734742,72,1762115341.0780213
0.4892966151237488,0.2752287685871124,-0.3787340521812439,0.9999794363975525,0.5250167846679688,0.3547293245792389,-0.21847763657569885,0.9999470114707947,0.45655393600463867,0.3420441150665283,-0.17738652229309082,0.9999138116836548,0.5047312378883362,0.508162260055542,-0.008732223883271217,0.9981241822242737,0.46525055170059204,0.5062161684036255,0.008660942316055298,0.9981308579444885,0.49345365166664124,0.628527045249939,-0.0263181421905756,0.9227363467216492,0.4685184955596924,0.6341930627822876,0.0004523055686149746,0.9497313499450684,0.4939557909965515,0.6828041076660156,0.21939988434314728,0.6765742301940918,0.46743306517601013,0.732568621635437,0.1803179532289505,0.8816994428634644,0.5355013012886047,0.5379098057746887,-0.24289794266223907,0.9589828848838806,0.44106340408325195,0.5086691975593567,-0.13992518186569214,0.8632568717002869,177.9102897797618,0.4849908947944641,0.5071892142295837,94.1152944091642,114.9873729482208,0.7224011323826298,-0.005511318458112095,-0.16183256520313682,-0.08693139202748891,-1.4427006868093633,-169.50293661808345,19.80028741084125,73,1762115341.1412888
0.4893796443939209,0.27110639214515686,-0.3666923940181732,0.9999805688858032,0.5246427059173584,0.34768643975257874,-0.20665574073791504,0.9999505281448364,0.4567243456840515,0.33421751856803894,-0.1727522313594818,0.9999150037765503,0.5038093328475952,0.4977343678474426,-0.008177870884537697,0.9982727766036987,0.4652078151702881,0.49642103910446167,0.008086923509836197,0.998279333114624,0.49343356490135193,0.6160977482795715,-0.005431065801531076,0.9276672005653381,0.4684705138206482,0.6232061386108398,0.010381546802818775,0.9508348107337952,0.4919053912162781,0.6893301606178284,0.22824165225028992,0.7031229734420776,0.46764737367630005,0.7190923690795898,0.20045506954193115,0.8891124725341797,0.5351647138595581,0.5297933220863342,-0.22959096729755402,0.9611867666244507,0.4426203668117523,0.4953289031982422,-0.13444547355175018,0.8630924820899963,177.73506659951175,0.48450857400894165,0.49707770347595215,108.68799869600745,117.78861008242892,0.724762314328605,-0.007468775497395343,-0.15657754346325237,-0.03031137701512541,0.08137442711827964,-168.78317805755526,5.247877877197492,74,1762115341.205867
0.4894251823425293,0.2694658041000366,-0.31993186473846436,0.9999814629554749,0.5240589380264282,0.3444249927997589,-0.16838309168815613,0.9999524354934692,0.45656952261924744,0.3322463035583496,-0.14104631543159485,0.999916672706604,0.5037078261375427,0.4978991746902466,-0.008511251769959927,0.9983965754508972,0.4654983580112457,0.4962939918041229,0.008445288054645061,0.9984120726585388,0.49324527382850647,0.6148689985275269,-0.004698272794485092,0.9329652786254883,0.46840691566467285,0.6214979290962219,0.017997240647673607,0.9525275230407715,0.4916685223579407,0.6884955763816833,0.22117730975151062,0.7279039621353149,0.4675261080265045,0.7175611853599548,0.1863400638103485,0.8975408673286438,0.5339720845222473,0.5111990571022034,-0.19103659689426422,0.9623535871505737,0.44297099113464355,0.49522149562835693,-0.1389075666666031,0.8669507503509521,177.9397760739495,0.4846030920743942,0.49709658324718475,109.87334275006873,124.05388708095424,0.6799447688595976,0.0013089016039461434,0.0002614501548478265,0.12155470577877893,2.1719319933714964,-169.77086993422137,4.644034150805974,75,1762115341.2780788
0.48945364356040955,0.2683401107788086,-0.32005876302719116,0.9999825358390808,0.5233423709869385,0.3416626751422882,-0.16866755485534668,0.999954342842102,0.45657220482826233,0.32979461550712585,-0.14399227499961853,0.9999193549156189,0.5032699704170227,0.495311439037323,-0.008213305845856667,0.9985116720199585,0.46554726362228394,0.49425897002220154,0.008144841529428959,0.9985309839248657,0.49322834610939026,0.6132237911224365,-0.009796508587896824,0.9381190538406372,0.46835869550704956,0.6196137070655823,0.02284262143075466,0.954905092716217,0.491535484790802,0.6878090500831604,0.20945481956005096,0.7509735822677612,0.4674394726753235,0.7109292149543762,0.18935641646385193,0.9055517911911011,0.5313760042190552,0.5138610601425171,-0.18626539409160614,0.9634372591972351,0.4425833821296692,0.4912126362323761,-0.14946648478507996,0.8716284036636353,178.00205312837292,0.4844086170196533,0.49478520452976227,107.98708750889276,125.40769610950231,0.675076725411158,-0.0028534210443464177,-0.03391353550476977,-0.061071375214785,-0.5014299823764415,-169.921225466443,4.245212142294564,76,1762115341.3462338
0.48943910002708435,0.2685081362724304,-0.28781309723854065,0.9999833106994629,0.5225778818130493,0.3409735858440399,-0.14221486449241638,0.9999564290046692,0.456747829914093,0.33041661977767944,-0.1301882117986679,0.9999218583106995,0.5032574534416199,0.4974856972694397,-0.005626807454973459,0.9986364245414734,0.46583834290504456,0.49565815925598145,0.005550631321966648,0.9986445903778076,0.4942237436771393,0.6117908358573914,0.010097748599946499,0.9432555437088013,0.46829915046691895,0.6162440180778503,0.03998658433556557,0.9581376314163208,0.49151602387428284,0.6892431378364563,0.2237165868282318,0.7739989757537842,0.4673323631286621,0.6961126327514648,0.22447101771831512,0.9132853150367737,0.5302784442901611,0.5125618577003479,-0.14824338257312775,0.9632160067558289,0.44300419092178345,0.49047958850860596,-0.13556863367557526,0.8751340508460999,178.17893723172133,0.4845478981733322,0.49657192826271057,117.72699286809372,129.3286013321352,0.6648826573956514,0.0019518068465049147,0.025038129873774666,0.06733772982669678,0.8261150992759598,-170.8892231552507,2.7825093187171643,77,1762115341.417594
0.4893914759159088,0.2688784599304199,-0.2912156283855438,0.9999836087226868,0.5219684839248657,0.341068297624588,-0.14399133622646332,0.9999582767486572,0.4569893777370453,0.33104291558265686,-0.13459327816963196,0.9999227523803711,0.5031784772872925,0.49802014231681824,-0.003724426496773958,0.9987515211105347,0.4657793939113617,0.49530228972435,0.0036395720671862364,0.9987492561340332,0.49497073888778687,0.6082496047019958,0.029864873737096786,0.947731614112854,0.46825772523880005,0.6130771636962891,0.05245612934231758,0.9609096646308899,0.49193209409713745,0.6888207197189331,0.23293595016002655,0.7946088910102844,0.46637067198753357,0.6858963370323181,0.24056677520275116,0.9200604557991028,0.5300978422164917,0.5067502856254578,-0.1540040522813797,0.9630776047706604,0.44190579652786255,0.49244964122772217,-0.13839104771614075,0.8756009936332703,178.2168360958278,0.4844789355993271,0.4966612160205841,128.539154055795,133.64611948583322,0.673780061180378,-0.0009014694653514718,0.001167157527308993,-0.037297643083304466,-0.3120381306676339,-171.22920723640942,2.0293431899022836,78,1762115341.4940941
0.4886268079280853,0.2692461311817169,-0.28625044226646423,0.9999840259552002,0.5207549333572388,0.3418669104576111,-0.13801796734333038,0.9999606609344482,0.4568137228488922,0.3318980038166046,-0.13401302695274353,0.9999236464500427,0.5029273629188538,0.49835896492004395,-0.0020892578177154064,0.9988646507263184,0.46572303771972656,0.49647393822669983,0.0019967525731772184,0.9988521337509155,0.495535284280777,0.6057616472244263,0.005760797765105963,0.9515900015830994,0.46823325753211975,0.6144470572471619,0.03338947892189026,0.9626851677894592,0.49280261993408203,0.6863142848014832,0.21302445232868195,0.8117762804031372,0.4651756286621094,0.6670321226119995,0.2601231336593628,0.9215074181556702,0.5298742055892944,0.5061429738998413,-0.15053316950798035,0.9630861282348633,0.44065338373184204,0.49395331740379333,-0.14003963768482208,0.8760929703712463,178.40891316639247,0.48432520031929016,0.4974164515733719,115.40511024522336,117.93094441878034,0.6628988500124102,-0.0024197770155661297,0.011887327564208409,-0.02389799993656292,0.1687343403024939,-171.13850465547233,1.5396761237552465,79,1762115341.557627
0.48821821808815,0.2695014178752899,-0.28610509634017944,0.9999843239784241,0.5203107595443726,0.34229543805122375,-0.13801707327365875,0.9999629855155945,0.45668110251426697,0.33244848251342773,-0.13345608115196228,0.9999236464500427,0.5026997327804565,0.49858853220939636,-0.0013497715117409825,0.9989676475524902,0.46568870544433594,0.4964475929737091,0.001258241944015026,0.9989449977874756,0.4957406520843506,0.605017900466919,0.003734055208042264,0.9550912380218506,0.4682296812534332,0.612427294254303,0.03600258380174637,0.9642289280891418,0.4932482838630676,0.6851421594619751,0.2155773639678955,0.8275165557861328,0.46473535895347595,0.6629849672317505,0.2685755491256714,0.9235920310020447,0.5299817323684692,0.5035200715065002,-0.1532629281282425,0.9636419415473938,0.44004639983177185,0.49470260739326477,-0.14118686318397522,0.8757118582725525,178.46133822962005,0.48419421911239624,0.49751806259155273,113.44202097399348,118.90950826851169,0.6653806495190104,-0.0020367891860628936,0.0015800757064576645,0.005955552617236533,-0.16028023882002987,-171.20302141051238,1.4366118608622491,80,1762115341.6219347
0.48677077889442444,0.26965364813804626,-0.2893143594264984,0.9999834895133972,0.5193535089492798,0.3420412838459015,-0.14445537328720093,0.9999639987945557,0.45641788840293884,0.3318849503993988,-0.13567562401294708,0.999924898147583,0.5025134682655334,0.49684444069862366,-0.0016108916606754065,0.9990620613098145,0.46565675735473633,0.4949894845485687,0.0015243312809616327,0.9990312457084656,0.49568647146224976,0.60186368227005,0.005767465103417635,0.958036482334137,0.46816545724868774,0.6080198287963867,0.04793715849518776,0.9648605585098267,0.4936424791812897,0.6819546222686768,0.21679873764514923,0.8415730595588684,0.4646664559841156,0.6476929783821106,0.2924329936504364,0.9223796725273132,0.5292534232139587,0.5020994544029236,-0.1616545170545578,0.9593417048454285,0.4394095540046692,0.49312761425971985,-0.14376309514045715,0.8774971961975098,178.63031909112289,0.4840851128101349,0.4959169626235962,114.78097408297097,121.50937740375578,0.672367122283011,-0.00171866315141136,-0.025220830141060885,0.005011181590138754,-0.42217294830723345,-170.83283770184624,1.3708170567796878,81,1762115341.685418
0.48632901906967163,0.2693246603012085,-0.29368335008621216,0.9999821782112122,0.5180543661117554,0.33966681361198425,-0.14831200242042542,0.9999641180038452,0.45632022619247437,0.3303465247154236,-0.13667413592338562,0.9999237656593323,0.5020941495895386,0.4936771094799042,-0.002827215474098921,0.9991480708122253,0.46562910079956055,0.4918985664844513,0.0027367803268134594,0.9991042613983154,0.49563708901405334,0.5985974669456482,-0.0067280433140695095,0.9611797332763672,0.4676365852355957,0.6033443212509155,0.0706937238574028,0.9651259779930115,0.49394702911376953,0.6805490255355835,0.1740770936012268,0.8553065657615662,0.464682012796402,0.6357097029685974,0.3220682740211487,0.9202145934104919,0.5280757546424866,0.4957458972930908,-0.1646040827035904,0.9531365036964417,0.43749403953552246,0.4880926012992859,-0.14777573943138123,0.8799623250961304,178.7925130692584,0.48386162519454956,0.49278783798217773,112.23979415888493,128.68741617687118,0.6668717277425796,-0.0029297271786793686,-0.04102008732532591,-0.015875990204268494,-0.2071144436995169,-171.41462886229382,1.4314327945900025,82,1762115341.7617006
0.4855659604072571,0.2691386640071869,-0.2976795434951782,0.9999810457229614,0.5161870718002319,0.3368518352508545,-0.1503753811120987,0.9999656081199646,0.45553430914878845,0.3296383023262024,-0.14240142703056335,0.9999225735664368,0.5016021132469177,0.48743247985839844,-0.0032956351060420275,0.9992271065711975,0.4655093550682068,0.4864623248577118,0.0032026502303779125,0.9991729259490967,0.49562230706214905,0.5938325524330139,-0.0038523594848811626,0.96366947889328,0.4675455093383789,0.5966882705688477,0.08557484298944473,0.9644985198974609,0.4944404065608978,0.6806533336639404,0.17902931571006775,0.8676633238792419,0.4640393853187561,0.634782612323761,0.32731348276138306,0.9200142025947571,0.527584433555603,0.4901793301105499,-0.16567227244377136,0.9524129629135132,0.4347967207431793,0.4833959937095642,-0.15182584524154663,0.884096622467041,179.14084342544874,0.48355573415756226,0.4869474023580551,115.07240488783584,135.6945845082426,0.6741443907440932,-0.004348312359984681,-0.08302315315345848,-0.020165518866827756,-0.5970833669941732,-173.21757739887659,0.9829186635119724,83,1762115341.8320477
0.4835748076438904,0.2689482867717743,-0.2986159324645996,0.9999805688858032,0.5138541460037231,0.33624908328056335,-0.15110845863819122,0.9999659061431885,0.45357948541641235,0.32941490411758423,-0.14497408270835876,0.9999234676361084,0.5004560947418213,0.48476558923721313,-0.0034492164850234985,0.9992983937263489,0.46508485078811646,0.4837776720523834,0.0033465581946074963,0.9992374777793884,0.4955109655857086,0.5920541286468506,-0.004685382358729839,0.9660597443580627,0.4671076834201813,0.5949793457984924,0.07207239419221878,0.964152455329895,0.494546115398407,0.6806905269622803,0.1706441342830658,0.8788036704063416,0.4630264341831207,0.6335139870643616,0.31544557213783264,0.9183081388473511,0.5267510414123535,0.4881499111652374,-0.16482914984226227,0.9477620124816895,0.4317764639854431,0.4826600253582001,-0.15782378613948822,0.8890899419784546,179.64196460016305,0.48277047276496887,0.4842716306447983,116.1413004147519,130.68097665538698,0.6663954091973264,-0.010122115375750257,-0.03449102458903036,-0.07442502691928005,0.6255850719179048,-173.5312045170119,0.3749303908444495,84,1762115341.9096265
0.48330068588256836,0.2689647376537323,-0.2912682294845581,0.9999806880950928,0.5129695534706116,0.33569586277008057,-0.1433694064617157,0.9999669194221497,0.45292311906814575,0.32902324199676514,-0.14485637843608856,0.9999244213104248,0.4999323785305023,0.4838845431804657,-0.0027840600814670324,0.9993628263473511,0.4649119973182678,0.48199114203453064,0.0026749116368591785,0.9992974400520325,0.49522456526756287,0.5916668772697449,0.008289075456559658,0.9682283997535706,0.466874897480011,0.5929404497146606,0.06900501996278763,0.9641420245170593,0.4945811331272125,0.6807247996330261,0.1748996376991272,0.8888640999794006,0.4622131288051605,0.6317095756530762,0.3028920590877533,0.9172285795211792,0.5265313386917114,0.4827345907688141,-0.15781955420970917,0.9482669234275818,0.4306592047214508,0.4819639325141907,-0.157551571726799,0.8948323130607605,179.8005597840891,0.48242218792438507,0.48293784260749817,123.96318872300327,130.24553576230386,0.6565534664791407,-0.005186071073558648,-0.019860524353876738,0.07349925575425828,0.21785276078637383,-173.6590591799837,0.19752346415546718,85,1762115341.9767842
0.4816919267177582,0.26893216371536255,-0.29249781370162964,0.9999818801879883,0.5110503435134888,0.33547791838645935,-0.14575807750225067,0.9999691247940063,0.45093879103660583,0.3288658857345581,-0.14478008449077606,0.9999271631240845,0.4984113276004791,0.48330414295196533,-0.004609531722962856,0.9994218945503235,0.4638100564479828,0.4810328185558319,0.004496013280004263,0.9993529319763184,0.4930450916290283,0.5899941921234131,0.02263825014233589,0.9704335927963257,0.46598029136657715,0.5862411260604858,0.1022762879729271,0.9641720652580261,0.49460726976394653,0.6807594895362854,0.18059097230434418,0.8987098932266235,0.4614657461643219,0.6303073167800903,0.32260969281196594,0.9205888509750366,0.526422381401062,0.4830218553543091,-0.1602432131767273,0.9512139558792114,0.42992860078811646,0.4800918698310852,-0.15766187012195587,0.901350736618042,-179.95564261029202,0.48111069202423096,0.4821684807538986,134.10570068480666,144.15683548952362,0.6674703537898348,-0.020118691892999,-0.011802213094968143,-0.229070329069271,0.1236166131947617,-173.72292576344176,0.07861226891371058,86,1762115342.0419722
0.4792843759059906,0.2689547538757324,-0.2931576371192932,0.999983012676239,0.5083465576171875,0.33522775769233704,-0.1534305065870285,0.9999707341194153,0.44858771562576294,0.32840439677238464,-0.1489059180021286,0.9999291896820068,0.4963252544403076,0.48193439841270447,-0.005560821387916803,0.9994741678237915,0.46223482489585876,0.4800604581832886,0.005442152731120586,0.9994021058082581,0.49174413084983826,0.5876496434211731,0.03513368219137192,0.9726535677909851,0.4649510979652405,0.5833835601806641,0.11160548031330109,0.9651470184326172,0.4946003556251526,0.680455207824707,0.18384072184562683,0.9079362154006958,0.46101027727127075,0.6325556635856628,0.31721994280815125,0.9254366159439087,0.5253726243972778,0.4851313829421997,-0.16933318972587585,0.9530376195907593,0.42798036336898804,0.4797661304473877,-0.16472621262073517,0.906338632106781,-179.6877930625202,0.4792800396680832,0.4809974282979965,142.88298125351554,149.15216300623288,0.6676783108083308,-0.028587697514408685,-0.018287302485591315,-0.13225305729928788,-0.10127197183585392,-173.48608602865863,1.4962379899491898,87,1762115342.1060085
0.47772082686424255,0.26897141337394714,-0.29629653692245483,0.9999838471412659,0.5055763125419617,0.33363232016563416,-0.15870727598667145,0.9999725222587585,0.4464535117149353,0.32756632566452026,-0.1481286585330963,0.9999291896820068,0.4945197105407715,0.4790838956832886,-0.007078175432980061,0.9995195865631104,0.460889995098114,0.4769788980484009,0.0069654351100325584,0.9994404315948486,0.49053874611854553,0.5859028100967407,0.03627229109406471,0.9745956659317017,0.46453696489334106,0.5796273350715637,0.09863182157278061,0.9659104943275452,0.49438709020614624,0.6795692443847656,0.18741260468959808,0.916189968585968,0.46113863587379456,0.6341015696525574,0.3044925928115845,0.9298286437988281,0.5235931277275085,0.4836999773979187,-0.1756642907857895,0.9547486305236816,0.4266076683998108,0.4769590198993683,-0.16167707741260529,0.9086989164352417,-179.343275677286,0.47770485281944275,0.4780313968658447,143.7353660878646,146.49861128878987,0.666687786352227,-0.026492527587976773,-0.049884665816572034,0.03523794470821332,-0.5314252213798228,-174.14195572551867,7.4773644085317486,88,1762115342.1654663
0.47657185792922974,0.2689710259437561,-0.2969171106815338,0.9999841451644897,0.503412127494812,0.33201006054878235,-0.15849150717258453,0.9999735355377197,0.44452857971191406,0.3266868591308594,-0.14477483928203583,0.9999286532402039,0.4931751787662506,0.47563403844833374,-0.008143195882439613,0.9995569586753845,0.4598153233528137,0.4742259681224823,0.008038150146603584,0.9994683265686035,0.4895997941493988,0.5838015079498291,0.030370965600013733,0.9764206409454346,0.4639951288700104,0.5765236616134644,0.09023077040910721,0.966776430606842,0.49438777565956116,0.6772555708885193,0.1837548315525055,0.9236951470375061,0.46117478609085083,0.635699450969696,0.27884700894355774,0.9340482354164124,0.5206040740013123,0.4829693138599396,-0.17656713724136353,0.9532725811004639,0.4262807369232178,0.47426727414131165,-0.16056598722934723,0.9092983603477478,-179.00638870793156,0.47649525105953217,0.474930003285408,140.8140788092189,146.09718367501523,0.6551160407200178,-0.01644209142997887,-0.04215717808947252,0.13661536854343098,0.10503957909452945,-174.8343778771219,2.5638178376839904,89,1762115342.2390337
