nose_x,nose_y,nose_z,nose_visibility,left_shoulder_x,left_shoulder_y,left_shoulder_z,left_shoulder_visibility,right_shoulder_x,right_shoulder_y,right_shoulder_z,right_shoulder_visibility,left_hip_x,left_hip_y,left_hip_z,left_hip_visibility,right_hip_x,right_hip_y,right_hip_z,right_hip_visibility,left_knee_x,left_knee_y,left_knee_z,left_knee_visibility,right_knee_x,right_knee_y,right_knee_z,right_knee_visibility,left_ankle_x,left_ankle_y,left_ankle_z,left_ankle_visibility,right_ankle_x,right_ankle_y,right_ankle_z,right_ankle_visibility,left_wrist_x,left_wrist_y,left_wrist_z,left_wrist_visibility,right_wrist_x,right_wrist_y,right_wrist_z,right_wrist_visibility,trunk_lateral_inclination,center_mass_x,center_mass_y,left_knee_angle,right_knee_angle,person_height,center_mass_velocity_x,center_mass_velocity_y,center_mass_acceleration_x,center_mass_acceleration_y,body_orientation,torso_leg_ratio,frame,timestamp
0.5040162801742554,0.3352894186973572,-0.22774311900138855,0.9999957084655762,0.5618142485618591,0.4387834668159485,-0.132870152592659,0.9999743700027466,0.45068272948265076,0.4266282320022583,-0.11686210334300995,0.9999715089797974,0.5349633693695068,0.6832800507545471,0.004238812252879143,0.9986742734909058,0.4724227488040924,0.6843565702438354,-0.004364213440567255,0.9991961121559143,0.5283573865890503,0.8721635341644287,-0.06755062937736511,0.8959817886352539,0.47697949409484863,0.8968695998191833,-0.013744495809078217,0.9097428917884827,0.524088442325592,0.9361489415168762,0.17927801609039307,0.19286088645458221,0.47385841608047485,1.0297214984893799,0.08290914446115494,0.7204294800758362,0.5932862758636475,0.7298482060432434,-0.09839081764221191,0.9920748472213745,0.39567914605140686,0.6883545517921448,-0.10857753455638885,0.9780651926994324,179.4169532823234,0.5036930590867996,0.6838183104991913,83.75835675739157,141.36679890729937,0.7404284509951253,0.0,0.0,0.0,0.0,-173.75797106489486,0.6914021195847346,0,1762115320.5330186
0.5042935609817505,0.3352905809879303,-0.35554859042167664,0.9999952912330627,0.562400758266449,0.4385589063167572,-0.18952926993370056,0.9999727010726929,0.45334744453430176,0.42729225754737854,-0.1792571246623993,0.9999727010726929,0.534963071346283,0.6833512187004089,0.005599320866167545,0.998684823513031,0.473087877035141,0.6843526363372803,-0.0056635611690580845,0.999251663684845,0.5269724130630493,0.8622375726699829,0.04055789113044739,0.8751546144485474,0.47691959142684937,0.8918762803077698,-0.013765263371169567,0.9122130274772644,0.5176159143447876,0.9017711877822876,0.3246563971042633,0.19761691987514496,0.47466030716896057,1.0321166515350342,0.10050171613693237,0.7264024019241333,0.5920746326446533,0.7238356471061707,-0.17295779287815094,0.9915022253990173,0.401533842086792,0.682994544506073,-0.17053785920143127,0.9773781299591064,179.12128474709417,0.504025474190712,0.6838519275188446,109.03644703440038,138.55359095942995,0.8496007738673749,0.004861452525654034,0.0004916369418090147,0.07109701208227708,0.007190015207890312,-174.10151530618825,0.6625407304584737,1,1762115320.6013963
0.5045536756515503,0.33530187606811523,-0.3515239357948303,0.9999949336051941,0.5627543926239014,0.4383675754070282,-0.1871626079082489,0.9999716877937317,0.4543518126010895,0.42800000309944153,-0.17693553864955902,0.9999739527702332,0.5349465608596802,0.683391809463501,0.00644743163138628,0.9987077116966248,0.4733605980873108,0.6843456029891968,-0.006479804869741201,0.9993026256561279,0.5265812873840332,0.8587281703948975,0.026108091697096825,0.8541463613510132,0.476911723613739,0.8906465172767639,-0.013199083507061005,0.9134873151779175,0.5153475999832153,0.8787897825241089,0.31002405285835266,0.19340723752975464,0.4732677936553955,1.0230427980422974,0.10702518373727798,0.7294727563858032,0.5913175344467163,0.7205962538719177,-0.16828858852386475,0.9907143712043762,0.4036439061164856,0.681048572063446,-0.16502057015895844,0.9766939282417297,178.99456163654423,0.5041535794734955,0.6838687062263489,100.52830568506931,135.84163478920263,0.8323103207415367,0.0020393146270831987,0.00026710111319014563,-0.04492575927510655,-0.00357439747727292,-174.53687479873065,0.5913489618456019,2,1762115320.6642141
0.5047662854194641,0.33372682332992554,-0.3610350489616394,0.9999948740005493,0.5641915202140808,0.438260942697525,-0.19927988946437836,0.9999719858169556,0.4574851393699646,0.4279407560825348,-0.17965060472488403,0.9999758005142212,0.5353214144706726,0.6808961629867554,0.006405379623174667,0.9987813234329224,0.4756435453891754,0.6812121272087097,-0.00642684381455183,0.9993641972541809,0.52591472864151,0.8515299558639526,0.04390234127640724,0.8358170390129089,0.4781561493873596,0.8801056146621704,-0.02013605460524559,0.9170193076133728,0.5155237317085266,0.8565948605537415,0.3539663255214691,0.1923770010471344,0.47332072257995605,1.0128660202026367,0.08389891684055328,0.7366629242897034,0.5901562571525574,0.7130446434020996,-0.195400670170784,0.9898644685745239,0.410381555557251,0.675092875957489,-0.16937752068042755,0.9758417010307312,178.76259002651946,0.505482479929924,0.6810541450977325,103.40820210164891,137.9097797297066,0.8352693252223449,0.02311941075457924,-0.048966041445447306,0.3667388319117549,-0.8565285985460217,-174.47577791865618,0.7034017378823737,3,1762115320.721694
0.5070011019706726,0.3312000632286072,-0.349843829870224,0.9999950528144836,0.5657002329826355,0.43734461069107056,-0.1935301125049591,0.9999725818634033,0.46175140142440796,0.4257332384586334,-0.16914883255958557,0.9999775886535645,0.5360236167907715,0.6768006086349487,0.004536004737019539,0.9988511204719543,0.4780043661594391,0.6756235957145691,-0.004559776745736599,0.9994219541549683,0.5253328084945679,0.8453547954559326,0.0612538643181324,0.8241618275642395,0.47964614629745483,0.8688643574714661,-0.02732713893055916,0.9215829968452454,0.5163543224334717,0.8531255125999451,0.3633955419063568,0.1961519867181778,0.4733181595802307,1.0080488920211792,0.04837677627801895,0.7482033967971802,0.5895965099334717,0.7077407836914062,-0.1919122040271759,0.9894189238548279,0.4202063977718353,0.6670016050338745,-0.15982060134410858,0.9753876328468323,178.42866768802241,0.5070139914751053,0.6762121021747589,110.13252214955867,144.63489250752718,0.8174648291952886,0.024134630557788982,-0.07630430045311432,0.015998544028290856,-0.4308154145616279,-173.62632438819512,0.8768772464254769,4,1762115320.785151
0.5106552839279175,0.32513073086738586,-0.3808096647262573,0.999995231628418,0.5659024119377136,0.4304185211658478,-0.2019769698381424,0.9999736547470093,0.4633907377719879,0.4211163818836212,-0.17472220957279205,0.9999775290489197,0.5371136665344238,0.667657196521759,0.0023684166371822357,0.9988757371902466,0.47980862855911255,0.6661548018455505,-0.0023359176702797413,0.9994544386863708,0.5253593325614929,0.8353856205940247,0.03477855771780014,0.8241093754768372,0.4813807010650635,0.8555014133453369,-0.026448022574186325,0.9249671697616577,0.5165585875511169,0.8596416115760803,0.31384342908859253,0.22488360106945038,0.4747426509857178,1.001761794090271,0.0753798857331276,0.7577710151672363,0.5894979238510132,0.6949014067649841,-0.21213099360466003,0.9899755716323853,0.4299474358558655,0.6586150527000427,-0.17030902206897736,0.9751507639884949,178.53063234643145,0.5084611475467682,0.6669059991836548,105.98562461199418,137.82270004389508,0.8354944883236296,0.018192972859562097,-0.11699199724249554,-0.07469575629146767,-0.5115067945344128,-174.81505253852484,0.8011798967787574,5,1762115320.8646958
0.5122634172439575,0.31644243001937866,-0.3462952971458435,0.9999951124191284,0.5658507347106934,0.4225558936595917,-0.17963096499443054,0.9999744892120361,0.4645264148712158,0.4120066463947296,-0.1452890932559967,0.9999759793281555,0.5372449159622192,0.6570188999176025,0.0008907316369004548,0.9988916516304016,0.4803813397884369,0.6568701863288879,-0.0008201052551157773,0.9994747638702393,0.5249572992324829,0.8226625919342041,0.035390302538871765,0.8319509029388428,0.4827348291873932,0.8407238721847534,-0.01589501090347767,0.9295166730880737,0.5183863043785095,0.8731775283813477,0.29881927371025085,0.2683661878108978,0.4773910641670227,0.9832569360733032,0.1036660298705101,0.7706010341644287,0.5882391929626465,0.6762957572937012,-0.18434596061706543,0.9903806447982788,0.4398398995399475,0.6415988206863403,-0.12676802277565002,0.9721269607543945,178.47619508930345,0.5088131278753281,0.6569445431232452,112.66008608364633,135.2615306819965,0.8211411858443421,0.005624583293647014,-0.15918230307648348,-0.2008406386508273,-0.6741936128039584,-174.0561405927032,1.069996707637369,6,1762115320.9272747
0.5136700868606567,0.3125053942203522,-0.341196209192276,0.9999951124191284,0.5656628608703613,0.41971859335899353,-0.17793741822242737,0.9999754428863525,0.46474164724349976,0.4106041491031647,-0.1455341875553131,0.9999732375144958,0.5375689268112183,0.6547045111656189,-0.00022542786609847099,0.9988803863525391,0.48110517859458923,0.6552598476409912,0.0002774244057945907,0.9994605183601379,0.5249200463294983,0.8195083737373352,0.031718283891677856,0.8438754081726074,0.48318085074424744,0.8375179767608643,0.005505846347659826,0.9337136149406433,0.5199345946311951,0.8840608596801758,0.2754024267196655,0.3272586762905121,0.4780893325805664,0.9757054448127747,0.15588584542274475,0.7847874760627747,0.587394118309021,0.6730707883834839,-0.17699819803237915,0.9908525943756104,0.4421541094779968,0.6429054737091064,-0.12264226377010345,0.9698864817619324,178.59901936815263,0.5093370527029037,0.654982179403305,115.81671650088845,134.17867611619675,0.831529510478051,0.006065666533254206,-0.02271899195384849,0.005106579616096186,1.5798849295303765,-174.83947647657533,1.1638493684060105,7,1762115321.0136502
0.5134257078170776,0.30758219957351685,-0.33454757928848267,0.9999949336051941,0.5644447803497314,0.4097651541233063,-0.15319356322288513,0.9999760389328003,0.4654974043369293,0.40171435475349426,-0.13584473729133606,0.9999691843986511,0.5367375612258911,0.6418619155883789,-0.0003159725747536868,0.9988950490951538,0.4808388352394104,0.6406664848327637,0.000352339178789407,0.999439537525177,0.5249335765838623,0.8106069564819336,0.024744341149926186,0.8563533425331116,0.4834200441837311,0.8227151036262512,0.011952584609389305,0.9380470514297485,0.520642101764679,0.8864424824714661,0.274370402097702,0.3830532729625702,0.478618860244751,0.9522215723991394,0.1863623559474945,0.7993740439414978,0.5870822072029114,0.6553177833557129,-0.15416499972343445,0.9911243319511414,0.4451662003993988,0.6280477046966553,-0.12711170315742493,0.968173086643219,178.4962393495954,0.5087881982326508,0.6412642002105713,115.3488204653872,130.2000390426473,0.8328000603184553,-0.006656668922123137,-0.16637569832402235,-0.15430023737184673,-1.742310912231646,-175.34840682666007,1.3596758878126793,8,1762115321.096102
0.5133841037750244,0.3004004955291748,-0.31697672605514526,0.9999944567680359,0.5635082721710205,0.40163370966911316,-0.15041092038154602,0.999976396560669,0.46551600098609924,0.39485958218574524,-0.1356733739376068,0.9999642968177795,0.5355470180511475,0.6335591077804565,-0.00021506666962523013,0.9989498853683472,0.4806213974952698,0.6297468543052673,0.00022969584097154438,0.9994383454322815,0.524889349937439,0.7910146713256836,0.04812651872634888,0.8682733774185181,0.4834519028663635,0.8043223023414612,0.0494702123105526,0.9422841668128967,0.5213953852653503,0.8829406499862671,0.27423614263534546,0.43894657492637634,0.4800781309604645,0.9119532108306885,0.23665690422058105,0.8138033747673035,0.5863567590713501,0.6426880955696106,-0.14263790845870972,0.9911534190177917,0.4454679489135742,0.6206547617912292,-0.11294485628604889,0.9647437334060669,178.42249300887914,0.5080842077732086,0.6316529810428619,129.1567446034221,135.6143851864126,0.8272199086719226,-0.008661630976826049,-0.11825278674097976,-0.02466829089436387,0.5920860092238248,-176.04547984010492,1.8713756291465165,9,1762115321.177379
0.5131101012229919,0.2959649860858917,-0.31676697731018066,0.9999927878379822,0.5620476007461548,0.396179735660553,-0.15161436796188354,0.9999772310256958,0.4652755856513977,0.39012226462364197,-0.1328650861978531,0.9999558329582214,0.5344697833061218,0.6276969909667969,-0.000658242148347199,0.9990168213844299,0.4804680347442627,0.6234337687492371,0.0006400449783541262,0.9994233846664429,0.5248828530311584,0.7807992100715637,0.01765126734972,0.8774781823158264,0.4833407998085022,0.8034982681274414,0.02828238345682621,0.9437496066093445,0.521408200263977,0.8767141699790955,0.27273327112197876,0.4804031252861023,0.48024025559425354,0.8732403516769409,0.26919025182724,0.8111788034439087,0.5855779051780701,0.631479799747467,-0.14304842054843903,0.9911804795265198,0.4418967664241791,0.6181327104568481,-0.10804686695337296,0.9616585373878479,178.47371433944087,0.5074689090251923,0.625565379858017,117.41734099653924,114.85489067292767,0.8251249768236354,-0.008246551355013117,-0.08158917267669812,0.005563111299567871,0.4913846764944856,-176.4182279601423,1.883076998018549,10,1762115321.2519917
0.5129926800727844,0.29344427585601807,-0.3236983120441437,0.9999920725822449,0.5599231123924255,0.39153701066970825,-0.15887673199176788,0.9999786615371704,0.46510738134384155,0.38602179288864136,-0.13966618478298187,0.9999511241912842,0.5334367752075195,0.6223898530006409,-0.003031299449503422,0.9990974068641663,0.4801784157752991,0.6172405481338501,0.002930460497736931,0.9994297623634338,0.5247369408607483,0.7706243991851807,0.006303725298494101,0.8867760300636292,0.48291701078414917,0.7896080613136292,0.02004045620560646,0.9449150562286377,0.5221168398857117,0.8710774183273315,0.2714386284351349,0.5196659564971924,0.48077496886253357,0.844446063041687,0.3101382255554199,0.7933529615402222,0.5839585065841675,0.6210249662399292,-0.16982592642307281,0.9915756583213806,0.4390307366847992,0.6134381890296936,-0.1286802738904953,0.9626532196998596,178.58481745577487,0.5068075954914093,0.6198152005672455,114.34176526705684,106.36362211840668,0.8343749047009936,-0.009281194685083502,-0.08070080339426548,-0.014520686006643756,0.01246780512012207,-176.67098457496968,2.3960873972672094,11,1762115321.3232448
0.512898862361908,0.29252099990844727,-0.32843217253685,0.9999909400939941,0.5592254400253296,0.3908694088459015,-0.16459761559963226,0.9999797940254211,0.4650818407535553,0.3848516643047333,-0.14658549427986145,0.9999449253082275,0.5328423380851746,0.6222553849220276,-0.004084351472556591,0.9991720914840698,0.4800995886325836,0.6163749098777771,0.003957626409828663,0.9994331002235413,0.5245505571365356,0.7652283310890198,0.005149951204657555,0.8945644497871399,0.4823537766933441,0.7883912920951843,0.0180463045835495,0.9443868398666382,0.52220219373703,0.8683838844299316,0.2656855583190918,0.5532752275466919,0.48071879148483276,0.8274373412132263,0.3262752890586853,0.7634343504905701,0.5822901725769043,0.6242687702178955,-0.1753336489200592,0.9916966557502747,0.43748021125793457,0.6139901280403137,-0.13395386934280396,0.9626407623291016,178.5935557301929,0.5064709633588791,0.6193151473999023,115.27972071626208,101.89650557008166,0.8357508891767483,-0.005232208037649849,-0.00777222953067388,0.06293261526107562,1.1335146988951759,-176.3425774819651,2.8517841672028506,12,1762115321.3875833
0.5120804905891418,0.29146233201026917,-0.2932373583316803,0.9999905228614807,0.5571263432502747,0.38732126355171204,-0.15885029733181,0.9999808669090271,0.4649890065193176,0.3821008503437042,-0.14641188085079193,0.9999427795410156,0.5320082902908325,0.6189609169960022,-0.0048789288848638535,0.9992440938949585,0.47972869873046875,0.6132081151008606,0.004719228949397802,0.9994454383850098,0.5234185457229614,0.7604418396949768,0.00648569967597723,0.9013806581497192,0.4819087088108063,0.7746044397354126,0.04398294538259506,0.9382275342941284,0.5222536325454712,0.8675982356071472,0.2016773521900177,0.5846050381660461,0.4806205630302429,0.7847006916999817,0.336744099855423,0.7160874009132385,0.5800020694732666,0.6124356985092163,-0.15744033455848694,0.9917042255401611,0.43668490648269653,0.6069772243499756,-0.12420668452978134,0.964026153087616,178.71520138851886,0.5058684945106506,0.6160845160484314,123.30951987998186,105.64287032937946,0.776113044697222,-0.008078754619742445,-0.04332087548115657,-0.03817052353497355,-0.47668653498437713,-176.75714319494028,4.2273366650710305,13,1762115321.4621577
0.509846568107605,0.29338473081588745,-0.23726677894592285,0.9999908804893494,0.5533959269523621,0.38421639800071716,-0.12839098274707794,0.9999818801879883,0.46453672647476196,0.37991124391555786,-0.1229332685470581,0.9999438524246216,0.5301339626312256,0.6128637790679932,-0.004670570604503155,0.9993094801902771,0.4787484109401703,0.6080366969108582,0.004510239232331514,0.9994710087776184,0.5226952433586121,0.757615327835083,0.016610832884907722,0.9092321991920471,0.4815301299095154,0.7601485252380371,0.05923057720065117,0.9383435845375061,0.5226407051086426,0.8634673953056335,0.1738547533750534,0.6187487840652466,0.4804649353027344,0.7714733481407166,0.2971891164779663,0.7012857794761658,0.5755568742752075,0.600124716758728,-0.1206623911857605,0.9919278025627136,0.4316178858280182,0.6011918783187866,-0.11218307167291641,0.9661474227905273,178.86491717397215,0.5044411867856979,0.6104502379894257,132.24303238126646,112.5011652762378,0.7058779733244351,-0.018230816198504154,-0.07196590189295198,-0.1296709640413628,-0.3658792020704897,-177.22623626037398,8.068124064713244,14,1762115321.5404487
0.5063802003860474,0.2947343587875366,-0.19828860461711884,0.9999912977218628,0.5492712259292603,0.3831802308559418,-0.11143411695957184,0.9999828934669495,0.4623727798461914,0.3789435923099518,-0.10129427909851074,0.9999448657035828,0.5267209410667419,0.6040059328079224,-0.005017844028770924,0.9993728995323181,0.47692275047302246,0.5989280343055725,0.004839986562728882,0.9995052218437195,0.5201346278190613,0.7484546303749084,0.018235212191939354,0.9166890978813171,0.4810975193977356,0.7435240149497986,0.07733970880508423,0.9389585852622986,0.5225392580032349,0.8626227378845215,0.11434312164783478,0.6527543067932129,0.4791938364505768,0.7583388686180115,0.27698445320129395,0.6948925852775574,0.5712746977806091,0.5898681282997131,-0.11336727440357208,0.9921919703483582,0.4272266924381256,0.5943059921264648,-0.09321283549070358,0.9684969782829285,178.96024642899283,0.5018218457698822,0.6014669835567474,148.86026524485564,120.84250089895129,0.6490171666015488,-0.043036322861172045,-0.14759675650266374,-0.40755968276893834,-1.242630821109889,-177.20881712880077,15.906865863649834,15,1762115321.6013122
0.5027693510055542,0.2952045798301697,-0.18842491507530212,0.999991774559021,0.5452476739883423,0.3830551505088806,-0.10471101850271225,0.9999832510948181,0.45910748839378357,0.3785933554172516,-0.09906472265720367,0.9999459385871887,0.5238555669784546,0.5982410907745361,-0.0051024677231907845,0.9994308352470398,0.4748896062374115,0.5933846235275269,0.00491471728309989,0.9995402097702026,0.5179733037948608,0.7435821294784546,0.02423924021422863,0.9233494997024536,0.48057740926742554,0.7279091477394104,0.08995944261550903,0.9405455589294434,0.5225340127944946,0.8627596497535706,0.09682241082191467,0.6851765513420105,0.4781646728515625,0.7528847455978394,0.26531392335891724,0.7069693803787231,0.5667616724967957,0.5895189642906189,-0.11072027683258057,0.9920327067375183,0.42371106147766113,0.590359091758728,-0.10208964347839355,0.9704619646072388,179.25249418078624,0.49937258660793304,0.5958128571510315,159.6414114498602,130.33270707211017,0.6319080758572063,-0.03821251353050362,-0.0882137689380554,0.07525944260224564,0.9264732989662399,-177.03490570589386,2.6093305601230634,16,1762115321.665408
0.5021616220474243,0.29586464166641235,-0.20609185099601746,0.9999920725822449,0.5439850091934204,0.38259246945381165,-0.11433849483728409,0.9999833106994629,0.45804792642593384,0.37881118059158325,-0.11018195003271103,0.9999455213546753,0.5227998495101929,0.5935929417610168,-0.006186496466398239,0.9994834065437317,0.47376173734664917,0.5891074538230896,0.00598554452881217,0.999570369720459,0.5170666575431824,0.7416923642158508,0.01912001520395279,0.9299374222755432,0.47955209016799927,0.7249917984008789,0.08939854800701141,0.9417448043823242,0.5225586295127869,0.8642341494560242,0.07720618695020676,0.7148520350456238,0.4774169921875,0.7520591020584106,0.27126094698905945,0.7103269100189209,0.5650848150253296,0.5888147354125977,-0.11322928965091705,0.9916310906410217,0.42095670104026794,0.5892792344093323,-0.10304870456457138,0.9724031686782837,179.255945902072,0.498280793428421,0.5913501977920532,163.69484095056092,129.94117329078824,0.6380321153593133,-0.019317836668058773,-0.07896085652454535,0.3343163232505236,0.16371805032518255,-177.48057263261398,1.6289234964630894,17,1762115321.7219253
0.4994417726993561,0.29695114493370056,-0.21560804545879364,0.9999917149543762,0.5396924018859863,0.38344091176986694,-0.12169835716485977,0.9999775290489197,0.4558700621128082,0.3790075182914734,-0.11874260753393173,0.9999433159828186,0.5190973281860352,0.5921655297279358,-0.0066741108894348145,0.9995284080505371,0.4712448716163635,0.5882036089897156,0.006466989405453205,0.9995937347412109,0.515664279460907,0.7409840226173401,0.017353400588035583,0.935529887676239,0.47745180130004883,0.7250500917434692,0.09115195274353027,0.9416064620018005,0.5223629474639893,0.8647058010101318,0.05846548080444336,0.7414785027503967,0.47582778334617615,0.7493509650230408,0.26895296573638916,0.7090349793434143,0.5603706240653992,0.5913179516792297,-0.11919709295034409,0.985874354839325,0.41864103078842163,0.5879732370376587,-0.12220220267772675,0.9737105965614319,179.28435335721633,0.49517109990119934,0.5901845693588257,169.84507911838153,129.46861571087607,0.6356575329251326,-0.041090280162433095,-0.015402160523969593,-0.2876925958050557,0.8398398757178872,-176.97242676279132,1.0282891563913568,18,1762115321.7976048
0.4963688850402832,0.29703059792518616,-0.1868182122707367,0.9999914765357971,0.5347808599472046,0.38447487354278564,-0.10604723542928696,0.9999741315841675,0.4525708556175232,0.3797591030597687,-0.10777066648006439,0.9999406337738037,0.515594482421875,0.5902329087257385,-0.008466264232993126,0.9995706677436829,0.468303382396698,0.5860947966575623,0.008246166631579399,0.9996163249015808,0.5137346386909485,0.7348225712776184,0.007009637542068958,0.9405675530433655,0.4755946695804596,0.7178614139556885,0.09619906544685364,0.9393789172172546,0.5222822427749634,0.8640887141227722,0.028491413220763206,0.7656052112579346,0.4744536876678467,0.7481675744056702,0.2692374587059021,0.7030485272407532,0.5551369786262512,0.5890941619873047,-0.10491684824228287,0.9801754951477051,0.418173611164093,0.5863611102104187,-0.10937026888132095,0.9748989343643188,179.51980235664524,0.4919489324092865,0.5881638526916504,174.4029521177394,133.57230279370427,0.6098091081112469,-0.04883519668138555,-0.030625998222170832,-0.1173820176738925,-0.23073260781853225,-176.71696920256545,0.46619339821201766,19,1762115321.8635852
0.4932955801486969,0.29829052090644836,-0.185948446393013,0.9999918937683105,0.5314614176750183,0.3850085735321045,-0.10668295621871948,0.999973714351654,0.449458509683609,0.3800415098667145,-0.10464169830083847,0.9999403953552246,0.5134037137031555,0.5867331027984619,-0.01258210837841034,0.9996097683906555,0.4669046998023987,0.5835387706756592,0.012363110668957233,0.9996398687362671,0.5117551684379578,0.7271509170532227,-0.013272206299006939,0.9449995756149292,0.4749562740325928,0.7129675149917603,0.10681156069040298,0.9358358979225159,0.522266685962677,0.8641423583030701,-0.0007325962651520967,0.7875807285308838,0.47317272424697876,0.7564238905906677,0.2676110565662384,0.7113068103790283,0.5525239706039429,0.5884576439857483,-0.11119496822357178,0.9778839945793152,0.41881853342056274,0.5871168971061707,-0.11025393009185791,0.976197361946106,179.91353590266883,0.4901542067527771,0.5851359367370605,172.51084195797682,141.09685512838428,0.603460426945808,-0.027816732258004916,-0.046930140605657485,0.3257684511384923,-0.2527004401663899,-176.53372660292783,0.07004766470486373,20,1762115321.9281049
0.49004799127578735,0.2986188530921936,-0.24146029353141785,0.9999874234199524,0.5268998146057129,0.3851717710494995,-0.11519236862659454,0.9999657869338989,0.44646868109703064,0.3803059160709381,-0.1311693638563156,0.9999382495880127,0.5108934640884399,0.5822040438652039,-0.011608965694904327,0.9996369481086731,0.4655134677886963,0.5788711309432983,0.011403217911720276,0.9996460676193237,0.5094793438911438,0.7222968339920044,0.020092811435461044,0.9485969543457031,0.4740002751350403,0.7065830826759338,0.11742915213108063,0.9322554469108582,0.5221214294433594,0.8575831651687622,0.014310563914477825,0.8071985840797424,0.47234249114990234,0.7564175724983215,0.29346132278442383,0.7249877452850342,0.5440073609352112,0.5737483501434326,-0.1121566891670227,0.9626954793930054,0.41945791244506836,0.5857282280921936,-0.13024207949638367,0.9750218391418457,-179.5599412247198,0.4882034659385681,0.5805375874042511,163.70618580432276,145.34465539331643,0.644051257256926,-0.02672720739555091,-0.06300223761147225,0.014927640181263793,-0.2202046867666576,-176.53798761619447,0.27656588123321707,21,1762115322.001092
0.4897955358028412,0.2990257143974304,-0.23984506726264954,0.9999857544898987,0.5266435146331787,0.38541460037231445,-0.11623682826757431,0.9999616146087646,0.4457649290561676,0.38042086362838745,-0.1325337290763855,0.9999383091926575,0.5101702213287354,0.5790460109710693,-0.011432311497628689,0.9996652603149414,0.46523088216781616,0.5772690176963806,0.011198239400982857,0.9996605515480042,0.5089581608772278,0.7200413346290588,0.018497256562113762,0.952505886554718,0.4738978445529938,0.7096791863441467,0.10509230941534042,0.9322680830955505,0.5220826268196106,0.8559628129005432,0.06703963875770569,0.8253351449966431,0.4712981581687927,0.7567510604858398,0.2842005491256714,0.738336980342865,0.5442142486572266,0.5733581781387329,-0.10306377708911896,0.9544844627380371,0.41971272230148315,0.5851010084152222,-0.12997272610664368,0.9755065441131592,-179.56089015941444,0.48770055174827576,0.578157514333725,170.44949643711556,139.89324238433875,0.6557772551251316,-0.008719956842026937,-0.04126774478921216,0.31222512846379036,0.3768512462996452,-176.46683634003992,0.28429015642103056,22,1762115322.058766
0.4880465567111969,0.2985474467277527,-0.27890387177467346,0.9999769330024719,0.5240722894668579,0.385578453540802,-0.1291460394859314,0.9999462366104126,0.44466790556907654,0.38060450553894043,-0.14252999424934387,0.999928891658783,0.5079354643821716,0.5793921947479248,-0.008193707093596458,0.9996815323829651,0.4645840525627136,0.57767254114151,0.008021553047001362,0.9996563792228699,0.5086138248443604,0.7183663249015808,0.020649466663599014,0.9559445381164551,0.4734869599342346,0.7056360840797424,0.10666246712207794,0.9328004121780396,0.5214282274246216,0.8431013226509094,0.16287100315093994,0.8411703705787659,0.4713127017021179,0.7570895552635193,0.32248881459236145,0.7551403641700745,0.534997820854187,0.5634404420852661,-0.11615045368671417,0.9265912771224976,0.4199143946170807,0.5807351469993591,-0.14953242242336273,0.9697296023368835,-179.4460410784417,0.4862597584724426,0.5785323679447174,142.83079427715938,140.874516654709,0.7236499956364599,-0.018133473164935274,0.0047178162264671815,-0.11847622312814615,0.5787630679842882,-176.41563424501666,0.35512785631494787,23,1762115322.1382208
0.48591285943984985,0.298200786113739,-0.2686302065849304,0.9999716281890869,0.5234146118164062,0.3848904073238373,-0.12764166295528412,0.9999362230300903,0.4442010521888733,0.37934255599975586,-0.1416677087545395,0.9999229311943054,0.5078892707824707,0.5759921669960022,-0.005073097534477711,0.9996920824050903,0.46435800194740295,0.5756098031997681,0.004925195127725601,0.9996583461761475,0.5084367990493774,0.7132591009140015,0.024629363790154457,0.9592558145523071,0.47317036986351013,0.6992384791374207,0.09693692624568939,0.9366855025291443,0.517483651638031,0.8190935850143433,0.19877132773399353,0.8555943965911865,0.4710453152656555,0.7603352069854736,0.2998653054237366,0.775537371635437,0.5318103432655334,0.5563898086547852,-0.1225152388215065,0.9112496972084045,0.42030590772628784,0.5708761811256409,-0.1404825747013092,0.9646055102348328,-179.31497104098307,0.48612363636493683,0.5758009850978851,133.45662366258279,143.227810441539,0.7140910663035409,-0.0019006857865738968,-0.038138555520415465,0.22665993652216537,-0.5984075484576022,-175.9937381526689,0.668940476130163,24,1762115322.2098382
0.4843212068080902,0.29821741580963135,-0.27725356817245483,0.999971866607666,0.5229047536849976,0.381378710269928,-0.12892840802669525,0.9999369978904724,0.44440197944641113,0.375507652759552,-0.13735415041446686,0.9999201893806458,0.5086098909378052,0.5685827136039734,-0.003983331844210625,0.9996933341026306,0.46462154388427734,0.5696178674697876,0.003845521481707692,0.9996549487113953,0.5081171989440918,0.7057481408119202,0.03067838028073311,0.9618315100669861,0.47261637449264526,0.6922709345817566,0.06679212301969528,0.9402589201927185,0.5119853615760803,0.7860445380210876,0.23381248116493225,0.8668135404586792,0.47091221809387207,0.7627615332603455,0.25688397884368896,0.7936367392539978,0.5347998738288879,0.5535097122192383,-0.1256849467754364,0.9152670502662659,0.4211327135562897,0.5627155303955078,-0.1386437863111496,0.9633899331092834,-179.10983364236753,0.48661571741104126,0.5691002905368805,125.7376243516846,137.3628416313977,0.7070475135599507,0.009270498798481821,-0.12623688997686797,0.21045812289099888,-1.6597174595370743,-175.72293140835563,2.735311468554222,25,1762115322.2629185
0.4840560555458069,0.29826852679252625,-0.27656883001327515,0.9999719858169556,0.5223739147186279,0.3765854239463806,-0.12290038168430328,0.9999374151229858,0.44461512565612793,0.3725317716598511,-0.13003121316432953,0.9999174475669861,0.5087272524833679,0.5614047050476074,-0.002489123959094286,0.9996729493141174,0.4647901952266693,0.5629602074623108,0.0023860628716647625,0.9996366500854492,0.5080584287643433,0.7025747299194336,0.027124855667352676,0.9627010822296143,0.47233620285987854,0.6879587769508362,0.04195016622543335,0.9413279294967651,0.5071350336074829,0.7583349347114563,0.2546120584011078,0.8692452311515808,0.47098493576049805,0.7630038857460022,0.23205426335334778,0.805991530418396,0.5367867350578308,0.5515966415405273,-0.09986808151006699,0.920152485370636,0.42209750413894653,0.5606392621994019,-0.12376183271408081,0.9634673595428467,-179.00329185614473,0.4867587238550186,0.5621824562549591,115.61972576763645,128.99780061534332,0.6958000405585714,0.0019825301025618992,-0.09590347348693931,-0.10103472909568932,0.42051889154277067,-177.01580857024274,2.8675343992660904,26,1762115322.3350518
0.4836769998073578,0.2982444167137146,-0.2843441665172577,0.9999722838401794,0.5223625898361206,0.37630394101142883,-0.12861400842666626,0.9999358057975769,0.44467073678970337,0.371810644865036,-0.1359216570854187,0.9999151825904846,0.5083713531494141,0.5588892698287964,-0.00147915945854038,0.9996599555015564,0.46471062302589417,0.5610235333442688,0.0013598308432847261,0.9996294975280762,0.5080146789550781,0.6983416080474854,0.032093245536088943,0.9636988043785095,0.4720773696899414,0.6851614117622375,0.04804748669266701,0.9431437849998474,0.5073227882385254,0.7533289790153503,0.2601730227470398,0.8747695088386536,0.4713714122772217,0.7637104392051697,0.23504090309143066,0.8188142776489258,0.5375571250915527,0.5510985851287842,-0.1064179390668869,0.9235415458679199,0.4228287637233734,0.5610376000404358,-0.12865975499153137,0.9631327986717224,-179.06795808859766,0.4865409880876541,0.5599564015865326,117.09013023432271,133.295663829384,0.7034610855893912,-0.00390655077125771,-0.039939214797197295,-0.10566014811478217,1.0040941853218053,-176.68999479560478,4.320932694768754,27,1762115322.3907878
0.4838269352912903,0.29828521609306335,-0.3072052597999573,0.9999725222587585,0.5225459337234497,0.37521013617515564,-0.13933290541172028,0.9999357461929321,0.445016086101532,0.37123170495033264,-0.14185360074043274,0.9999077320098877,0.508426308631897,0.5570477247238159,-0.00011348487896611914,0.9996299147605896,0.46486133337020874,0.5581916570663452,2.9695202101720497e-05,0.9996100664138794,0.5077977180480957,0.6954689621925354,0.008088342845439911,0.9584832191467285,0.47169381380081177,0.6818355917930603,0.032172027975320816,0.9391443729400635,0.5056948661804199,0.7274593114852905,0.26954323053359985,0.8529061675071716,0.47139912843704224,0.7638111710548401,0.22002795338630676,0.8222436308860779,0.538976788520813,0.5539267063140869,-0.12115131318569183,0.9279117584228516,0.42359623312950134,0.5627949237823486,-0.135777547955513,0.9590834975242615,-179.11054820969892,0.48664382100105286,0.5576196908950806,100.36810245617178,128.07570626555352,0.7105196861719908,0.0014361525014567552,-0.03263422958461667,0.07461557215536294,0.10202057336907608,-177.06245319855086,2.3861360024304816,28,1762115322.462391
0.48401814699172974,0.29836055636405945,-0.28971198201179504,0.999972403049469,0.5229870676994324,0.37348034977912903,-0.13511475920677185,0.999937117099762,0.44570499658584595,0.37067416310310364,-0.13059423863887787,0.9999012351036072,0.5087393522262573,0.5545103549957275,-2.5496428861515597e-05,0.999623715877533,0.46506303548812866,0.5544217228889465,-4.343290493125096e-05,0.9996256232261658,0.5074923634529114,0.6886551380157471,0.00873618945479393,0.9452219009399414,0.47176656126976013,0.6774200201034546,0.021232932806015015,0.9345707297325134,0.5008370280265808,0.6973598003387451,0.282995343208313,0.8048569560050964,0.4714895784854889,0.7641494870185852,0.1726243942975998,0.8245920538902283,0.539531409740448,0.5538815259933472,-0.1163424402475357,0.9324089884757996,0.42522531747817993,0.5499297976493835,-0.11762060225009918,0.9496111273765564,-179.19737166037348,0.486901193857193,0.554466038942337,95.56578235765387,129.54481183804452,0.6743872140387915,0.003883610408579559,-0.04758681910901811,0.03693075153771115,-0.22562609430951264,-177.92044851600537,0.7369611941509326,29,1762115322.5286624
0.4844750761985779,0.29843422770500183,-0.3008255362510681,0.9999732971191406,0.5233830213546753,0.37154054641723633,-0.1374085694551468,0.9999402165412903,0.4475790858268738,0.36914533376693726,-0.1374877691268921,0.9999023079872131,0.5087357759475708,0.5503219366073608,0.0007237006211653352,0.9996334314346313,0.4652518630027771,0.5498655438423157,-0.0007922225631773472,0.9996504187583923,0.5070037245750427,0.6801750659942627,0.014919489622116089,0.9328333735466003,0.4717788100242615,0.6752467155456543,0.01324558537453413,0.9323557019233704,0.5022339224815369,0.6754095554351807,0.30960050225257874,0.7623222470283508,0.47154584527015686,0.7644250392913818,0.1627427488565445,0.8299899101257324,0.5400704741477966,0.5523620843887329,-0.1314874142408371,0.9366434216499329,0.42663130164146423,0.5462923645973206,-0.1334386020898819,0.9428096413612366,-179.5178154741779,0.48699381947517395,0.5500937402248383,95.32345564075825,127.14023928269842,0.6826564004621841,0.0015062693372414916,-0.07110192228658277,-0.03866010330595118,-0.38240045951129475,-178.19020041273984,0.6045300132699225,30,1762115322.5901558
0.48450368642807007,0.2994694113731384,-0.3244187831878662,0.999975323677063,0.523701548576355,0.37009403109550476,-0.15619048476219177,0.9999444484710693,0.450277715921402,0.36881735920906067,-0.16631945967674255,0.9999091625213623,0.5088887214660645,0.5440406203269958,0.004538779146969318,0.9996470808982849,0.46589797735214233,0.5445262789726257,-0.004654993303120136,0.9996800422668457,0.5071210265159607,0.6708014011383057,0.06296103447675705,0.9252470135688782,0.4722643494606018,0.6709383130073547,-0.02597348392009735,0.934537947177887,0.5029162168502808,0.6821157932281494,0.33560702204704285,0.7482880353927612,0.4718623161315918,0.7653525471687317,0.09129417687654495,0.8400346636772156,0.5414891839027405,0.551173985004425,-0.15479311347007751,0.941645085811615,0.42647409439086914,0.5508959293365479,-0.16689768433570862,0.943512499332428,-179.8676912121398,0.4873933494091034,0.5442834496498108,117.12658677952993,119.21571123711618,0.6850637816622022,0.006462716211265161,-0.09398609691663935,0.08017449217881167,-0.3701698265972921,-179.0038583120663,0.17519241193074075,31,1762115322.6519766
0.48479992151260376,0.29958295822143555,-0.313387393951416,0.9999775290489197,0.5239110589027405,0.37064313888549805,-0.15440116822719574,0.9999485611915588,0.45108404755592346,0.3690641522407532,-0.1654742807149887,0.9999171495437622,0.5089886784553528,0.5423544049263,0.005775243975222111,0.9996674656867981,0.46614870429039,0.5438297390937805,-0.005936795845627785,0.9997098445892334,0.5064384341239929,0.6658216714859009,0.09797455370426178,0.9213541150093079,0.4724474549293518,0.6717362999916077,-0.01634008064866066,0.938913881778717,0.5030336976051331,0.6789575219154358,0.36481788754463196,0.7476276159286499,0.47188305854797363,0.7659437656402588,0.08743183314800262,0.852488100528717,0.5416067838668823,0.5524439215660095,-0.15579338371753693,0.9453604221343994,0.4263858199119568,0.5532640814781189,-0.1652584820985794,0.9446046948432922,-179.97647222246414,0.4875686913728714,0.5430920720100403,129.57298570061627,127.51418779272913,0.6854907872587062,0.0026649955428645973,-0.01810756553438517,-0.057720972417779105,1.1532661297233469,-178.75794575338716,0.035827631724521004,32,1762115322.717771
0.4860987663269043,0.30009713768959045,-0.31399837136268616,0.999979555606842,0.5247935056686401,0.3705858886241913,-0.15356388688087463,0.9999526739120483,0.453681081533432,0.36911541223526,-0.1662910282611847,0.9999241828918457,0.5095223188400269,0.5386772751808167,0.006136405281722546,0.9996868968009949,0.46803632378578186,0.5411494970321655,-0.00630171736702323,0.9997365474700928,0.5067303776741028,0.6570484638214111,0.09943495690822601,0.9172227382659912,0.47310811281204224,0.6715008020401001,-0.012446555308997631,0.9425945281982422,0.5080375075340271,0.669047474861145,0.3673900365829468,0.7444828748703003,0.4729171693325043,0.7663877606391907,0.0911368727684021,0.8631730079650879,0.5434088706970215,0.5531160831451416,-0.1527402251958847,0.9489094614982605,0.42662692070007324,0.5515583753585815,-0.16336151957511902,0.9445400834083557,179.84570508225167,0.48877932131290436,0.5399133861064911,130.79155743737846,129.7495205647496,0.6852440797921947,0.021452441507744044,-0.05632652155911753,0.3329147680178021,-0.6772423938113503,-178.81539566848699,0.8191340838429396,33,1762115322.7742043
0.48783501982688904,0.30148476362228394,-0.3313888907432556,0.9999812245368958,0.5267677903175354,0.37037530541419983,-0.16219304502010345,0.9999557733535767,0.45679354667663574,0.3690730929374695,-0.1732291281223297,0.9999299049377441,0.5110515356063843,0.5340358018875122,0.005487819202244282,0.9997001886367798,0.47089990973472595,0.5356805920600891,-0.005643733311444521,0.9997603297233582,0.5076960325241089,0.6544686555862427,0.09915302693843842,0.9075813889503479,0.4739747941493988,0.6671960353851318,-0.028623104095458984,0.9448893666267395,0.5117825865745544,0.6630628108978271,0.3586403727531433,0.7283376455307007,0.47326770424842834,0.7664721012115479,0.0631633922457695,0.8713762164115906,0.5440496802330017,0.5529012084007263,-0.15897412598133087,0.9513481855392456,0.42876067757606506,0.5461878776550293,-0.17362913489341736,0.9384325742721558,179.72071388124186,0.4909757226705551,0.5348581969738007,129.72607455722303,127.31044621029892,0.6818385907869652,0.03445565865900684,-0.07930238733735025,0.20398567414475935,-0.36042983942455786,-178.93385532254376,0.47609307149118096,34,1762115322.83795
0.48933306336402893,0.30202633142471313,-0.33499425649642944,0.9999826550483704,0.5295159220695496,0.37049704790115356,-0.17013441026210785,0.9999582767486572,0.46057090163230896,0.36908090114593506,-0.17653560638427734,0.999934196472168,0.5129812955856323,0.5329498648643494,0.0057128979824483395,0.9997073411941528,0.4738176763057709,0.5327713489532471,-0.005880839191377163,0.9997818470001221,0.5085702538490295,0.6482225656509399,0.13007469475269318,0.90720134973526,0.4744953215122223,0.6619551181793213,-0.06373536586761475,0.9493359923362732,0.5143694877624512,0.6754351258277893,0.37279683351516724,0.7418292760848999,0.47340744733810425,0.7664795517921448,0.018232887610793114,0.8826014399528503,0.5442380309104919,0.551749050617218,-0.17347277700901031,0.9526566863059998,0.43225806951522827,0.5382129549980164,-0.18333010375499725,0.9198418259620667,179.42242053826405,0.4933994859457016,0.5328606069087982,143.45967865144405,117.76582699409154,0.6759910235641285,0.030572597137014317,-0.025196980632743896,-0.0489797319678195,0.682468795148434,-178.823296828307,0.6975601253260398,35,1762115322.917229
0.49107837677001953,0.3021260201931,-0.3276124596595764,0.9999836683273315,0.531862735748291,0.37063369154930115,-0.16173899173736572,0.9999607801437378,0.464682400226593,0.36879459023475647,-0.15806236863136292,0.999936044216156,0.5144859552383423,0.5326188206672668,0.005514424294233322,0.999717116355896,0.47665053606033325,0.5313085913658142,-0.005678051616996527,0.9998014569282532,0.5087286233901978,0.6439821720123291,0.13901448249816895,0.9068821668624878,0.4750763773918152,0.6575078368186951,-0.06690104305744171,0.9536054730415344,0.5143843293190002,0.6745664477348328,0.384766161441803,0.7553372383117676,0.4734111726284027,0.7631279826164246,0.01334624458104372,0.8931357264518738,0.5442456007003784,0.5504900813102722,-0.16663478314876556,0.9539642930030823,0.43842774629592896,0.5254262089729309,-0.12865372002124786,0.8835621476173401,179.04510122979806,0.49556824564933777,0.5319637060165405,147.10599718427983,116.89739901004276,0.6715983795827879,0.028057412216848442,-0.011603276291763312,-0.03253914206741168,0.17586280564388365,-178.4318858857176,1.354700838435483,36,1762115322.9945261
0.4922279417514801,0.30212026834487915,-0.3199715316295624,0.9999848008155823,0.5331481695175171,0.3707551658153534,-0.15848363935947418,0.9999637603759766,0.4654962122440338,0.3688735067844391,-0.1541198194026947,0.9999386072158813,0.5150824189186096,0.532305121421814,0.0064818235114216805,0.9997324347496033,0.477254718542099,0.5306075811386108,-0.006635876838117838,0.9998196959495544,0.5089952349662781,0.6441357731819153,0.13396525382995605,0.9059209227561951,0.4754137396812439,0.6552820801734924,-0.07548587769269943,0.9575188755989075,0.5143575072288513,0.6706129908561707,0.3939908444881439,0.7648771405220032,0.4733477532863617,0.7617312669754028,0.007332953624427319,0.902652382850647,0.5442920923233032,0.5506731271743774,-0.16544871032238007,0.9556401968002319,0.44130396842956543,0.5209716558456421,-0.12221378087997437,0.8482154607772827,178.88230594629155,0.4961685687303543,0.5314563512802124,144.41334468356925,113.2136055881261,0.6652073000220968,0.008581605665772585,-0.007252625157202695,-0.27840624012188936,0.062192465368688075,-178.40679653624034,1.912279454799854,37,1762115323.0644808
0.4939013421535492,0.3021145164966583,-0.31947821378707886,0.9999853372573853,0.5349932909011841,0.3705883324146271,-0.15707343816757202,0.9999662637710571,0.46884551644325256,0.3682629466056824,-0.14237463474273682,0.9999390840530396,0.5165573358535767,0.532831609249115,0.006262964103370905,0.9997463822364807,0.479172945022583,0.5305478572845459,-0.0064156814478337765,0.9998355507850647,0.5095395445823669,0.6447129249572754,0.11867320537567139,0.9092022180557251,0.4762279987335205,0.6535146832466125,-0.07162003964185715,0.9610564708709717,0.5144449472427368,0.6739175915718079,0.38869917392730713,0.7752392888069153,0.4733521044254303,0.7565634250640869,0.02226717211306095,0.9112359881401062,0.544169545173645,0.5462719798088074,-0.1622590571641922,0.9570758938789368,0.44452935457229614,0.5189778208732605,-0.12764866650104523,0.8148074746131897,178.5687292446309,0.49786514043807983,0.5316897332668304,141.15180925610358,109.74482353502934,0.6680251063881208,0.02428904594001413,0.003341223815489011,0.22487628237804141,0.15166732016546705,-177.9866299500502,3.991382294430624,38,1762115323.13433
0.49570733308792114,0.30206698179244995,-0.32375138998031616,0.9999859929084778,0.5364485383033752,0.37039920687675476,-0.1655474454164505,0.9999683499336243,0.47024813294410706,0.36769387125968933,-0.1425980180501938,0.9999426007270813,0.517637312412262,0.52953040599823,0.002611480187624693,0.9997591376304626,0.4802641272544861,0.527894914150238,-0.00273259449750185,0.9998500347137451,0.510201096534729,0.639085054397583,0.09410908073186874,0.915355920791626,0.477382093667984,0.6510884761810303,-0.061776988208293915,0.9643834233283997,0.5146661400794983,0.6760969758033752,0.36721271276474,0.7885861992835999,0.4734528660774231,0.7511036396026611,0.039363738149404526,0.9191560745239258,0.5433272123336792,0.5417048931121826,-0.18142558634281158,0.9582856297492981,0.4472060799598694,0.521049976348877,-0.1315891444683075,0.8113270998001099,178.42232566833997,0.498950719833374,0.528712660074234,137.41970549098133,109.09419945903736,0.6686801551707245,0.015236618078143195,-0.0417846243424487,-0.1270550883787653,-0.6333625313959188,-177.65986156873234,16.353608538222325,39,1762115323.205578
0.49734464287757874,0.3017026484012604,-0.3313654661178589,0.9999853372573853,0.537250816822052,0.37029916048049927,-0.17856961488723755,0.9999678730964661,0.4714142680168152,0.36647793650627136,-0.1484483927488327,0.9999353885650635,0.5179299116134644,0.5258055329322815,-0.001897568115964532,0.9997459053993225,0.48091569542884827,0.525213360786438,0.0018195423763245344,0.9998528361320496,0.5104824900627136,0.6349223256111145,0.03271619230508804,0.9213044047355652,0.47835350036621094,0.6477510929107666,-0.03544677421450615,0.966648280620575,0.5147116780281067,0.6767028570175171,0.27472758293151855,0.8038104176521301,0.4737812876701355,0.7443028092384338,0.08911089599132538,0.9258304834365845,0.5426017045974731,0.537443995475769,-0.19121739268302917,0.9583428502082825,0.45308035612106323,0.5236324071884155,-0.1513407975435257,0.7878512740135193,178.21019473981082,0.4994228035211563,0.5255094468593597,117.25473771373392,110.88659998370787,0.6561923335499793,0.007415325646105392,-0.05031495414252705,-0.12285412916814614,-0.13399144044441044,-176.67821820190454,28.460214365312545,40,1762115323.2692413
0.49856895208358765,0.3011226952075958,-0.31815510988235474,0.9999837279319763,0.5376500487327576,0.3698852062225342,-0.1709359586238861,0.9999675750732422,0.47200027108192444,0.364847868680954,-0.1415904015302658,0.999928891658783,0.5181857347488403,0.5225926637649536,-0.0027347072027623653,0.9997134804725647,0.4814140200614929,0.5226595401763916,0.0026903697289526463,0.9998363852500916,0.5109845399856567,0.6273641586303711,0.006389707326889038,0.9266860485076904,0.4800682067871094,0.6436595320701599,-0.018936365842819214,0.9680955410003662,0.5146356821060181,0.6870957612991333,0.22341088950634003,0.818733811378479,0.4748879373073578,0.7388867139816284,0.12405148893594742,0.9313331246376038,0.5425444841384888,0.5331532955169678,-0.1807514727115631,0.9590814113616943,0.4589362144470215,0.5255438089370728,-0.14691810309886932,0.779934287071228,178.14615610973317,0.4997998774051666,0.5226261019706726,110.24493632994054,113.53580612679039,0.6415624068042961,0.006490405331648043,-0.049629735264304795,-0.015920242676205457,0.011794368290003198,-175.61226610847504,6.56416002412183,41,1762115323.3273385
0.49956339597702026,0.3006741404533386,-0.30792471766471863,0.9999826550483704,0.5376849174499512,0.36940798163414,-0.16060878336429596,0.9999673366546631,0.4719952940940857,0.3648395836353302,-0.14142432808876038,0.9999200105667114,0.5183953046798706,0.5221304893493652,-0.002121653174981475,0.9996853470802307,0.4816195070743561,0.5225600004196167,0.002065800130367279,0.9998127818107605,0.511516273021698,0.6277118921279907,-0.0009169694967567921,0.9313101768493652,0.4805988669395447,0.6428197026252747,-0.010074680671095848,0.9687223434448242,0.5146905183792114,0.6893110275268555,0.21722456812858582,0.8316953778266907,0.47565245628356934,0.7352635860443115,0.13986371457576752,0.9357407689094543,0.5424773693084717,0.531420111656189,-0.16566583514213562,0.9594395756721497,0.45872920751571655,0.526722252368927,-0.14601267874240875,0.7726139426231384,178.21671637605306,0.5000074058771133,0.522345244884491,106.32998332903718,115.89296780019505,0.6372571210687314,0.0027970176926883504,-0.0037853227164349845,-0.049778570020884164,0.6178797145493299,-176.02175893340424,5.447857535140302,42,1762115323.4015348
0.5000502467155457,0.2997734248638153,-0.29937881231307983,0.9999833106994629,0.5376182794570923,0.36712223291397095,-0.15038534998893738,0.9999691843986511,0.4721370339393616,0.36317726969718933,-0.13687151670455933,0.9999236464500427,0.5185960531234741,0.5192165374755859,-0.002747205551713705,0.9996886253356934,0.48208004236221313,0.5190368890762329,0.0026863773819059134,0.9998083114624023,0.5118499994277954,0.6221247315406799,0.017527978867292404,0.9360638856887817,0.4811561107635498,0.6386571526527405,0.015428123995661736,0.9698759913444519,0.5146569609642029,0.6907832622528076,0.22174599766731262,0.8454644083976746,0.47666868567466736,0.7283245325088501,0.17495182156562805,0.9402205348014832,0.5424743890762329,0.5273509621620178,-0.15493570268154144,0.9614827036857605,0.4603803753852844,0.5252199172973633,-0.1387316882610321,0.7847398519515991,178.31127261518,0.5003380477428436,0.5191267132759094,119.6017670612795,125.41816009953445,0.6447264306025489,0.004289247903798987,-0.041752365281777046,0.019357939717812186,-0.492527034884572,-176.55234299177314,5.396383117726791,43,1762115323.478621
0.5003212094306946,0.29945695400238037,-0.2927720248699188,0.9999834895133972,0.5373964905738831,0.3668573200702667,-0.14713630080223083,0.9999696016311646,0.47245803475379944,0.36000511050224304,-0.1300930678844452,0.9999266862869263,0.5184718370437622,0.5177335739135742,-0.00444828812032938,0.9996778964996338,0.4821087718009949,0.5166500806808472,0.004382489249110222,0.9997881650924683,0.5118057727813721,0.6215540766716003,0.015478084795176983,0.9405013918876648,0.48153677582740784,0.6363974809646606,0.03158808499574661,0.9710957407951355,0.514005184173584,0.6908071041107178,0.2162708044052124,0.8581556081771851,0.477203905582428,0.720025897026062,0.20450249314308167,0.9442747831344604,0.5425335168838501,0.5257227420806885,-0.1536068171262741,0.9596392512321472,0.46191564202308655,0.5161307454109192,-0.12605437636375427,0.7948974967002869,178.27265489109854,0.5002903044223785,0.5171918272972107,119.78241556471698,128.6037654015191,0.6465245944554918,-0.0006528010953366693,-0.026455966487913807,-0.06757332687412,0.20914979917750567,-173.97652375635,4.342821436669093,44,1762115323.551757
0.5007758140563965,0.2994634509086609,-0.28743165731430054,0.999984085559845,0.5371857285499573,0.36617451906204224,-0.14174294471740723,0.9999712109565735,0.4726111888885498,0.35872018337249756,-0.12963052093982697,0.9999306201934814,0.5184193849563599,0.5179397463798523,-0.004146232269704342,0.9996934533119202,0.4824450612068176,0.5162959694862366,0.004066388122737408,0.9997873902320862,0.5119544863700867,0.6214560866355896,0.028662163764238358,0.9446424245834351,0.48186564445495605,0.6311973333358765,0.05238308757543564,0.9722054600715637,0.5135856866836548,0.6908032894134521,0.23700037598609924,0.8696816563606262,0.47733816504478455,0.7042850852012634,0.23961946368217468,0.9476004838943481,0.542670488357544,0.5224959850311279,-0.14539198577404022,0.959688663482666,0.46287041902542114,0.5125130414962769,-0.12689808011054993,0.8075057864189148,178.3459977590628,0.5004322230815887,0.5171178579330444,125.8882884313222,134.12167959287828,0.6594700266441033,0.0021452383097576356,-0.0011181187494368862,0.04229508196754541,0.38300616675695004,-173.4150543671672,3.081991408556168,45,1762115323.6179123
0.500594437122345,0.29940688610076904,-0.2603314518928528,0.9999846816062927,0.5367855429649353,0.3654548227787018,-0.12153515964746475,0.9999731183052063,0.47249990701675415,0.35800623893737793,-0.11421073973178864,0.9999325275421143,0.5185137987136841,0.5175990462303162,-0.0038504484109580517,0.9997127652168274,0.48291030526161194,0.5156038403511047,0.003761318977922201,0.999788761138916,0.5119338631629944,0.6205073595046997,0.027124229818582535,0.9489424228668213,0.4818478226661682,0.6298459768295288,0.053433459252119064,0.9734176993370056,0.5125869512557983,0.6908002495765686,0.2294921576976776,0.8804994821548462,0.4774600863456726,0.6881148219108582,0.2428450882434845,0.9504308104515076,0.5440871119499207,0.5197435021400452,-0.12197842448949814,0.9618913531303406,0.46297532320022583,0.5085545182228088,-0.11045482009649277,0.8198404312133789,178.54612701938112,0.500712051987648,0.5166014432907104,125.81354461379645,130.5972076074564,0.6314133897512978,0.0045492645206302446,-0.008395511540921335,0.03908299289663686,-0.11831081104244032,-173.39078132378674,2.103849634047531,46,1762115323.679423
0.5003463625907898,0.29936325550079346,-0.26026925444602966,0.9999851584434509,0.5364386439323425,0.36461207270622253,-0.11924967914819717,0.9999747276306152,0.4724596440792084,0.35762378573417664,-0.1139046773314476,0.9999345541000366,0.5185574293136597,0.5165413618087769,-0.0038238633424043655,0.9997286200523376,0.48309555649757385,0.5146549940109253,0.0037321157287806273,0.9997890591621399,0.5119072198867798,0.62028968334198,0.02768842503428459,0.9526876211166382,0.48184728622436523,0.628926157951355,0.047082193195819855,0.9746134281158447,0.5118480920791626,0.6904069185256958,0.22683879733085632,0.8899068832397461,0.4776693284511566,0.6867572069168091,0.23504622280597687,0.9526150226593018,0.5446430444717407,0.5171164274215698,-0.11729101091623306,0.9639617204666138,0.4627663493156433,0.508147120475769,-0.11289148032665253,0.8307479023933411,178.6566270787295,0.5008264929056168,0.5155981779098511,126.21227338834588,127.87793527283347,0.6267467585476807,0.0016991391028545538,-0.014895786135024921,-0.04231667860882367,-0.09651155319419406,-173.76641863120759,1.7091662959316671,47,1762115323.7467754
0.500199019908905,0.29921960830688477,-0.2617555260658264,0.9999852776527405,0.5346755385398865,0.3642272651195526,-0.12115875631570816,0.9999752640724182,0.47224098443984985,0.3572452664375305,-0.11672049760818481,0.999935507774353,0.5184409022331238,0.5165794491767883,-0.0036116987466812134,0.9997439384460449,0.48293551802635193,0.5151631832122803,0.0035193185321986675,0.9997891187667847,0.5116285085678101,0.6187116503715515,0.02266417071223259,0.9560207724571228,0.48162251710891724,0.6244645118713379,0.06461654603481293,0.9749004244804382,0.511279821395874,0.6891458630561829,0.21385642886161804,0.8981344103813171,0.4775003492832184,0.6738026142120361,0.26672109961509705,0.9535915851593018,0.5450342297554016,0.5171012282371521,-0.11444859206676483,0.9644490480422974,0.4614695906639099,0.5050796270370483,-0.11290161311626434,0.8418051600456238,178.977050076735,0.5006882101297379,0.5158713161945343,124.57475900412668,132.92394391034654,0.6310315487790338,-0.0019844935777681974,0.003919802508673606,-0.05286374496816847,0.2700221671717521,-173.61917659855987,1.2386054819997654,48,1762115323.816457
0.49993738532066345,0.298813134431839,-0.25499334931373596,0.9999861121177673,0.5324976444244385,0.36175835132598877,-0.10538997501134872,0.9999767541885376,0.4710715413093567,0.35743144154548645,-0.11744233220815659,0.9999384880065918,0.5175842046737671,0.515884280204773,-0.0019939709454774857,0.999763011932373,0.48286929726600647,0.5142568349838257,0.001897389069199562,0.9997971057891846,0.51114821434021,0.6164554953575134,0.025144929066300392,0.9593080282211304,0.48043298721313477,0.6232172846794128,0.05327550321817398,0.9754502773284912,0.5107314586639404,0.6891022324562073,0.2108088731765747,0.9057285785675049,0.47567352652549744,0.6667473316192627,0.26573076844215393,0.9528089761734009,0.5462865829467773,0.5085229873657227,-0.10569034516811371,0.966458797454834,0.4606228768825531,0.5053169131278992,-0.12227336317300797,0.8541384935379028,179.42592442905013,0.5002267509698868,0.5150705575942993,126.39737919063533,126.83539885578999,0.6221571787983946,-0.0071801130714783876,-0.012459471591162025,-0.08084168370014774,-0.2548547093604376,-175.97068949414538,0.6016905387999055,49,1762115323.880726
0.49873781204223633,0.29872605204582214,-0.26461970806121826,0.9999871253967285,0.5295931100845337,0.359518826007843,-0.11458408832550049,0.9999784231185913,0.46839556097984314,0.35765448212623596,-0.12347300350666046,0.9999403953552246,0.5155074000358582,0.5140397548675537,-0.001980403671041131,0.9997823238372803,0.48160481452941895,0.5123422741889954,0.0018795548239722848,0.999805212020874,0.5092786550521851,0.6145435571670532,0.027248075231909752,0.9620912671089172,0.479077011346817,0.6191116571426392,0.06138468533754349,0.9752819538116455,0.510222315788269,0.6883921027183533,0.21061892807483673,0.9126996994018555,0.47376757860183716,0.6580539345741272,0.2776135504245758,0.9517366886138916,0.547100841999054,0.5036100745201111,-0.11944161355495453,0.9687548875808716,0.45958781242370605,0.5070269107818604,-0.14556464552879333,0.8651999235153198,179.83759473637625,0.49855610728263855,0.5131910145282745,128.04873263495153,129.352867893349,0.6317481367646491,-0.025300176558517053,-0.028463742318440798,-0.2744096835087132,-0.24236818310276595,-178.25506069278617,0.2006644342503789,50,1762115323.946759
0.4957478642463684,0.29853111505508423,-0.29275649785995483,0.9999878406524658,0.5259453058242798,0.3582633435726166,-0.13571211695671082,0.9999794363975525,0.4649747312068939,0.35762253403663635,-0.15212687849998474,0.9999415278434753,0.5132092833518982,0.5121193528175354,-0.0019066700479015708,0.9998008608818054,0.4794611930847168,0.5106278657913208,0.0017962390556931496,0.9998144507408142,0.5078919529914856,0.6130325198173523,0.04690202325582504,0.9646283984184265,0.4765695631504059,0.6172580122947693,0.08866527676582336,0.9747147560119629,0.5091522932052612,0.6886377334594727,0.21415750682353973,0.9194110035896301,0.4719720780849457,0.6509960293769836,0.3205029368400574,0.9483805298805237,0.5470028519630432,0.5043336153030396,-0.14819422364234924,0.9703897833824158,0.4550686776638031,0.5091065764427185,-0.1725742518901825,0.8740105628967285,-179.67316931452936,0.4963352382183075,0.5113736093044281,140.02531364869515,137.45589461929518,0.6719948996394924,-0.031722085246080285,-0.02595915462260424,-0.09172820590879166,0.03577461889566297,-179.39783526244182,0.5242178710990039,51,1762115324.0167692
0.49499431252479553,0.298358291387558,-0.29274991154670715,0.9999885559082031,0.525195300579071,0.35862109065055847,-0.13639159500598907,0.9999805092811584,0.46376386284828186,0.3577412962913513,-0.15020588040351868,0.9999422430992126,0.512143611907959,0.5117835402488708,-0.0018439556006342173,0.99981689453125,0.4783148765563965,0.5104449987411499,0.0017312534619122744,0.9998195767402649,0.507434070110321,0.6127314567565918,0.036903005093336105,0.9672609567642212,0.47528862953186035,0.6172609925270081,0.06854305416345596,0.9750753045082092,0.5089664459228516,0.6889880895614624,0.20491628348827362,0.9256265163421631,0.47127479314804077,0.649585485458374,0.3095273971557617,0.9440386295318604,0.5469738245010376,0.5061126947402954,-0.15142114460468292,0.9713913202285767,0.4533052444458008,0.5098015666007996,-0.16932199895381927,0.8812740445137024,-179.71914411544444,0.49522924423217773,0.5111142694950104,135.32097619013433,129.6729243159071,0.6633857324155416,-0.01754869620152605,-0.004114918874341292,0.224887749488846,0.3466003085986097,-179.17949083523078,0.6037241155893711,52,1762115324.0797935
0.4935588836669922,0.2983265221118927,-0.3026026785373688,0.9999890327453613,0.5225017666816711,0.35710614919662476,-0.14606794714927673,0.9999814629554749,0.46200138330459595,0.35754746198654175,-0.15784576535224915,0.9999420046806335,0.5114223957061768,0.5091057419776917,-0.003056906396523118,0.9998318552970886,0.47733163833618164,0.5077610015869141,0.002942087594419718,0.9998231530189514,0.5064569711685181,0.6102572679519653,0.029474716633558273,0.9697030186653137,0.47477731108665466,0.6129246950149536,0.09627209603786469,0.9739279747009277,0.5090609788894653,0.6897749304771423,0.1780766099691391,0.9317290186882019,0.4702538549900055,0.6505728363990784,0.3349839746952057,0.9417819976806641,0.5454042553901672,0.499200701713562,-0.1559070646762848,0.9720393419265747,0.4505976736545563,0.5101138353347778,-0.17646686732769012,0.8868807554244995,-179.19413940378814,0.4943770170211792,0.5084333717823029,135.84562882161595,140.55564283487385,0.6715023162143923,-0.011989655588799593,-0.037716514832356135,0.07820799604913603,-0.472727880043355,179.5820702208922,2.2123332116786445,53,1762115324.1508737
0.49199098348617554,0.2981526553630829,-0.30773109197616577,0.9999894499778748,0.5194496512413025,0.3574184477329254,-0.15040238201618195,0.9999816417694092,0.459542840719223,0.3575598895549774,-0.16452911496162415,0.9999399781227112,0.5095826387405396,0.5079821944236755,-0.0030392243061214685,0.9998443722724915,0.47582992911338806,0.5074607729911804,0.0029273624531924725,0.9998254776000977,0.5055391192436218,0.6098388433456421,0.039694346487522125,0.9719046950340271,0.4740028977394104,0.6116136908531189,0.1057802215218544,0.9732100367546082,0.5091304779052734,0.6898743510246277,0.19271594285964966,0.9373036026954651,0.4698268473148346,0.6528562307357788,0.3313679099082947,0.9419174194335938,0.5423855185508728,0.5024407505989075,-0.1559695303440094,0.9718250632286072,0.44706520438194275,0.511944055557251,-0.18383029103279114,0.8902994990348816,-178.77593816041198,0.4927062839269638,0.507721483707428,140.23838120222047,145.0010427917934,0.6811279435737765,-0.023411529762362146,-0.009975494535966405,-0.16005162529080857,0.3887273943132244,179.86472315382647,10.942843072149333,54,1762115324.2222373
0.4893362522125244,0.29809513688087463,-0.2988392114639282,0.9999887943267822,0.5159906148910522,0.35731834173202515,-0.14732903242111206,0.9999803900718689,0.4560015797615051,0.35651177167892456,-0.15551352500915527,0.9999383091926575,0.5066102147102356,0.5056275129318237,-0.004664112348109484,0.9998539090156555,0.4725906252861023,0.5056062936782837,0.004544039256870747,0.9998244643211365,0.5037660598754883,0.6070845723152161,0.040694501250982285,0.9740073084831238,0.4732017517089844,0.607358992099762,0.10842613875865936,0.9728127717971802,0.5088975429534912,0.6901005506515503,0.17990192770957947,0.9426091909408569,0.46990537643432617,0.6540003418922424,0.31156793236732483,0.9432369470596313,0.537180483341217,0.5041811466217041,-0.1520310789346695,0.9678336977958679,0.444000244140625,0.5107578635215759,-0.17005884647369385,0.893701434135437,-178.61150312910954,0.48960041999816895,0.5056169033050537,144.7453269413963,148.5013849332277,0.6606084871289537,-0.04464138849194518,-0.03024968044603907,-0.3051422705257307,-0.2914061370102135,-179.2296879689542,3.9239098166455513,55,1762115324.291811
0.487473726272583,0.298093318939209,-0.2878982722759247,0.9999884963035583,0.51352459192276,0.3575342893600464,-0.14913691580295563,0.9999799728393555,0.453615665435791,0.3560858964920044,-0.15279284119606018,0.9999369382858276,0.5038156509399414,0.5048064589500427,-0.007340694777667522,0.9998644590377808,0.4704079031944275,0.5050304532051086,0.007209850009530783,0.9998279809951782,0.5027920007705688,0.6061384081840515,0.05075647309422493,0.9756593704223633,0.47287002205848694,0.6043658256530762,0.1300755888223648,0.9706937074661255,0.5088454484939575,0.6917635798454285,0.17781290411949158,0.9473921656608582,0.4698941111564636,0.6545380353927612,0.3184111416339874,0.944143533706665,0.5349404215812683,0.5076158046722412,-0.15729844570159912,0.9650524258613586,0.4395102858543396,0.5119927525520325,-0.16637703776359558,0.8968331217765808,-178.6301729586318,0.48711177706718445,0.5049184560775757,153.65748812291298,155.8938485237274,0.6542008493907535,-0.03345595776868934,-0.00938954345568533,0.15037082790893108,0.2804323004756108,-178.61505387990965,2.3001175782913323,56,1762115324.3661966
0.48772192001342773,0.2978819012641907,-0.29171615839004517,0.9999884963035583,0.5131964683532715,0.357776015996933,-0.14981593191623688,0.999979555606842,0.4531019628047943,0.3560601472854614,-0.15589818358421326,0.9999367594718933,0.5031644105911255,0.50541752576828,-0.0072052269242703915,0.9998725056648254,0.4699367582798004,0.50547194480896,0.00709300022572279,0.9998302459716797,0.5025476813316345,0.6068915724754333,0.05499016121029854,0.9774074554443359,0.4728472828865051,0.6047378182411194,0.1134762167930603,0.9709288477897644,0.5087597966194153,0.6918378472328186,0.19214317202568054,0.9517892599105835,0.47001832723617554,0.6556516289710999,0.3062956631183624,0.9467028975486755,0.5330051183700562,0.5094417333602905,-0.160403311252594,0.9630035161972046,0.43830928206443787,0.5139699578285217,-0.1734693944454193,0.9005701541900635,-178.68811410334877,0.48655058443546295,0.50544473528862,153.16021397838298,151.70343528706982,0.6587009555324104,-0.011043607897230903,0.010356553031369347,0.44104856344367316,0.3885798472353095,-178.36448722297726,2.009576634909358,57,1762115324.4170127
0.48685717582702637,0.29786884784698486,-0.3240199089050293,0.9999879598617554,0.5111429691314697,0.35778486728668213,-0.1716981679201126,0.9999772906303406,0.4515676498413086,0.3561108410358429,-0.1739453673362732,0.9999353289604187,0.502057671546936,0.5010874271392822,-0.00660821795463562,0.9998766779899597,0.46910300850868225,0.50103360414505,0.0064946869388222694,0.9998261332511902,0.5024020075798035,0.6056398749351501,0.036892298609018326,0.9790598154067993,0.47306981682777405,0.5991316437721252,0.1041145920753479,0.9712825417518616,0.5087607502937317,0.6917514204978943,0.1790555715560913,0.9558578729629517,0.4701296389102936,0.6572138071060181,0.3003857731819153,0.9495419859886169,0.5291842222213745,0.5095712542533875,-0.18381111323833466,0.9543246030807495,0.4360543191432953,0.5133287906646729,-0.1875978708267212,0.9039869904518127,-178.3207089843607,0.48558034002780914,0.5010605156421661,143.7442635347367,151.23845706574778,0.6779735020803909,-0.012865380602818718,-0.058134480294896845,-0.024156592961860034,-0.9081868492842289,-178.39045080710525,2.4703701247277436,58,1762115324.4924278
0.48495855927467346,0.29786914587020874,-0.3206898868083954,0.9999868273735046,0.5093610882759094,0.35788869857788086,-0.16673585772514343,0.9999721646308899,0.44990330934524536,0.3561561107635498,-0.17479097843170166,0.9999333024024963,0.5002838373184204,0.4996754229068756,-0.005418034270405769,0.9998787641525269,0.4678225517272949,0.4997705817222595,0.0053040324710309505,0.9998213052749634,0.5016754865646362,0.6048518419265747,0.03092294931411743,0.9805334806442261,0.47298184037208557,0.5996031761169434,0.10114364326000214,0.9716594219207764,0.5087667107582092,0.6889575719833374,0.1854044646024704,0.9594665169715881,0.4702097475528717,0.6569280624389648,0.29391536116600037,0.9520136117935181,0.5232082605361938,0.5075114965438843,-0.17641973495483398,0.9386230111122131,0.4334810674190521,0.5135924220085144,-0.19370372593402863,0.9059051275253296,-178.22549166300982,0.48405319452285767,0.49972300231456757,137.61058694701663,150.2495411402691,0.6743090351300168,-0.021322043687252004,-0.01867439449016005,-0.11807214122690099,0.5509427036934794,-178.33088474120095,2.0462213847575756,59,1762115324.5640507
0.4832281470298767,0.29721325635910034,-0.2784824073314667,0.9999821782112122,0.5079642534255981,0.3570491671562195,-0.1351003646850586,0.9999644756317139,0.44924482703208923,0.35590502619743347,-0.14284966886043549,0.9999250173568726,0.4978480339050293,0.49878498911857605,-0.004109223838895559,0.9998783469200134,0.46621984243392944,0.49892643094062805,0.0040125008672475815,0.9998108148574829,0.5011721253395081,0.6026593446731567,0.021097712218761444,0.9818850159645081,0.47260037064552307,0.5980837345123291,0.08604300767183304,0.9719334244728088,0.5089158415794373,0.6884094476699829,0.15884137153625488,0.9628235101699829,0.47010722756385803,0.6567802429199219,0.2747578024864197,0.9538992047309875,0.5137162208557129,0.49026361107826233,-0.14655694365501404,0.9126734733581543,0.43053650856018066,0.508479654788971,-0.16229045391082764,0.9002259969711304,-178.62021381970627,0.48203393816947937,0.49885571002960205,135.5671179773111,146.69436177285775,0.6214942253884507,-0.03282220060611228,-0.014097487579348778,-0.18693042949256827,0.07439578265078536,-178.88373988174027,1.3057973063126296,60,1762115324.6255717
0.48221445083618164,0.2969304621219635,-0.27953067421913147,0.9999814033508301,0.506587564945221,0.3551839292049408,-0.13172435760498047,0.9999648332595825,0.4486510157585144,0.35478517413139343,-0.14383575320243835,0.9999250173568726,0.4963197112083435,0.49671119451522827,-0.00034880824387073517,0.9998828768730164,0.4651515483856201,0.49769264459609985,0.0002482468553353101,0.9998140931129456,0.5003868341445923,0.6004721522331238,0.029202446341514587,0.9828030467033386,0.4725934565067291,0.597812294960022,0.06616771966218948,0.9722011089324951,0.5088451504707336,0.6826586723327637,0.17191371321678162,0.9653301239013672,0.4701358377933502,0.6570197343826294,0.24406489729881287,0.9556021094322205,0.5135363936424255,0.48883873224258423,-0.1497775763273239,0.9137670397758484,0.42787232995033264,0.5058666467666626,-0.1667974293231964,0.9050378799438477,-178.74470656634142,0.4807356297969818,0.49720191955566406,135.87051965770462,141.54572332480245,0.6138318992079567,-0.022532792651135846,-0.028702362726031366,0.1785778331741196,-0.25347492964468643,-179.60566132523192,1.0383129873103807,61,1762115324.6831903
0.4819086492061615,0.29693686962127686,-0.2904074490070343,0.9999806880950928,0.505430281162262,0.3539617359638214,-0.1365237534046173,0.999965488910675,0.4484541416168213,0.3543897271156311,-0.1520649939775467,0.999925971031189,0.4961656630039215,0.49447500705718994,0.002753165317699313,0.9998886585235596,0.4649388790130615,0.4959752857685089,-0.002850769553333521,0.9998196363449097,0.5003207325935364,0.5992698073387146,0.03253555670380592,0.9837117791175842,0.47251683473587036,0.5976186990737915,0.058452803641557693,0.9728264212608337,0.5088098645210266,0.6820049285888672,0.18119633197784424,0.9675704836845398,0.4701654016971588,0.6572237014770508,0.24498164653778076,0.9567757844924927,0.5140606164932251,0.4884830415248871,-0.15857043862342834,0.9165564179420471,0.42715486884117126,0.5040039420127869,-0.18501237034797668,0.9109485149383545,-178.53387528834915,0.4805522710084915,0.4952251464128494,135.00063608596156,138.60968338666078,0.6264619562758499,-0.002851992153023459,-0.030747048112794724,0.3061183434292132,-0.031803366102407866,179.56961588400705,1.1759728561111913,62,1762115324.7474818
0.4814392626285553,0.29681840538978577,-0.2882372736930847,0.9999803304672241,0.5049227476119995,0.3515163064002991,-0.1361580789089203,0.9999668002128601,0.44796815514564514,0.3529737591743469,-0.14624500274658203,0.9999260306358337,0.4958270490169525,0.49209946393966675,0.002386771608144045,0.9998899102210999,0.46440109610557556,0.49394237995147705,-0.002484505530446768,0.999818742275238,0.5001640319824219,0.5965083837509155,0.03455044701695442,0.9845218062400818,0.47233590483665466,0.5946570038795471,0.0556819923222065,0.9734996557235718,0.5082380771636963,0.676371693611145,0.1871882826089859,0.969575822353363,0.47017866373062134,0.6582760810852051,0.22532400488853455,0.9587699770927429,0.5129549503326416,0.48434126377105713,-0.1594478189945221,0.9212733507156372,0.4263456463813782,0.4975159168243408,-0.17633333802223206,0.9165300726890564,-178.50720923983397,0.48011407256126404,0.4930209219455719,134.78111004895547,140.3228270500541,0.6179469322610398,-0.006058502134392563,-0.030475458605969705,-0.04433299042703133,0.003754978177555759,178.53413625091287,1.2396494750647,63,1762115324.8198097
0.481677770614624,0.29616042971611023,-0.28829848766326904,0.9999807476997375,0.5048285126686096,0.34945234656333923,-0.13634604215621948,0.9999682307243347,0.4475380480289459,0.3509243428707123,-0.14413198828697205,0.9999273419380188,0.49571770429611206,0.48891451954841614,0.0019732904620468616,0.9998867511749268,0.4636165201663971,0.4913976490497589,-0.0020721182227134705,0.9998148083686829,0.49977025389671326,0.5935691595077515,0.031937479972839355,0.9853025078773499,0.47173815965652466,0.5923060774803162,0.042048580944538116,0.9746025800704956,0.5073168873786926,0.6652618646621704,0.19717322289943695,0.971223771572113,0.4702162742614746,0.6591455340385437,0.2069285660982132,0.9611498117446899,0.5140825510025024,0.48254305124282837,-0.1582488864660263,0.9261800050735474,0.4265995919704437,0.4895409047603607,-0.16879737377166748,0.9221441745758057,-178.57418817757133,0.4796671122312546,0.4901560842990875,129.47157587966151,135.468201412035,0.6119480721935533,-0.005650802095515981,-0.03621939015420972,0.005154444543158838,-0.07261901840059948,178.5281909537302,1.1561232798272967,64,1762115324.8989065
0.4820627272129059,0.29578590393066406,-0.277989000082016,0.9999816417694092,0.5046426653862,0.34809666872024536,-0.12956133484840393,0.999970018863678,0.44757968187332153,0.35021114349365234,-0.1358015090227127,0.9999286532402039,0.49566465616226196,0.48710912466049194,0.0016030907863751054,0.9998834133148193,0.46328988671302795,0.4901054799556732,-0.001702845678664744,0.9998108148574829,0.4993301033973694,0.5929714441299438,0.02959667146205902,0.9860014319419861,0.47123679518699646,0.5920326709747314,0.04118756204843521,0.9754370450973511,0.507111668586731,0.6545307040214539,0.20342345535755157,0.9725873470306396,0.4703071117401123,0.659759521484375,0.20475134253501892,0.9633516073226929,0.5155302882194519,0.48185408115386963,-0.14465764164924622,0.9312565326690674,0.42690664529800415,0.48852628469467163,-0.1554572880268097,0.9265966415405273,-178.61727458785376,0.47947727143764496,0.4886073023080826,124.35235260328776,135.13095725049683,0.6025133280095258,-0.0030297553365549257,-0.02471771431832883,0.041830474126925886,0.1835604617980235,177.87786987658558,0.9822456629277937,65,1762115324.9615653
0.48236626386642456,0.2947709262371063,-0.27557069063186646,0.9999822378158569,0.5050159692764282,0.3479795753955841,-0.13048875331878662,0.9999709725379944,0.447948694229126,0.3490642011165619,-0.13505305349826813,0.9999274015426636,0.496096670627594,0.4848250150680542,0.0008839693036861718,0.9998716711997986,0.46380797028541565,0.48811039328575134,-0.0009789522737264633,0.9997967481613159,0.4990094304084778,0.5917850732803345,0.01856786012649536,0.9862276911735535,0.47063741087913513,0.5909885168075562,0.03554808720946312,0.9752111434936523,0.5059712529182434,0.6435636878013611,0.20566682517528534,0.9726157784461975,0.470378577709198,0.6597412824630737,0.20108473300933838,0.9644837379455566,0.5166589021682739,0.482587605714798,-0.14239157736301422,0.9353311657905579,0.42759984731674194,0.4871356189250946,-0.15179552137851715,0.9295704960823059,-178.55904444759523,0.4799523204565048,0.48646770417690277,114.88992526379577,131.99162358666587,0.5973172593959546,0.00693308744215178,-0.031226295278193397,0.14540238462751193,-0.09498927295411737,178.91116239758568,1.0350467473872171,66,1762115325.0300844
0.4825553894042969,0.2938879132270813,-0.276767760515213,0.9999831318855286,0.5051271915435791,0.3480789363384247,-0.1315421313047409,0.9999716877937317,0.4481191039085388,0.34877684712409973,-0.13633525371551514,0.9999275803565979,0.4963027536869049,0.48451486229896545,0.0007712196093052626,0.9998620748519897,0.4641284942626953,0.4875940978527069,-0.0008682271582074463,0.9997889995574951,0.499012291431427,0.5911960601806641,0.015366162173449993,0.9866037964820862,0.4705270230770111,0.5907163619995117,0.03362899646162987,0.9756116271018982,0.5053685307502747,0.6405854225158691,0.208316832780838,0.9726305603981018,0.4703952670097351,0.6601322293281555,0.19717621803283691,0.9659581184387207,0.5171729922294617,0.4835624396800995,-0.143660306930542,0.9388070702552795,0.42734861373901367,0.4890539050102234,-0.15350688993930817,0.9324657320976257,-178.504743894493,0.4802156239748001,0.4860544800758362,112.17718394688436,131.40136844405944,0.5975230821517157,0.004040711714085002,-0.006341424818522421,-0.04438701222680819,0.38188850730476454,179.2986022397184,1.1539342847615808,67,1762115325.095247
0.48268547654151917,0.29306846857070923,-0.2697409391403198,0.9999842643737793,0.5055073499679565,0.34834110736846924,-0.1307782381772995,0.9999722838401794,0.44822031259536743,0.3489703834056854,-0.1309775859117508,0.9999264478683472,0.4965274930000305,0.48475027084350586,-0.0003374377847649157,0.9998505115509033,0.4641609787940979,0.4878009259700775,0.00024371093604713678,0.9997863173484802,0.4986037611961365,0.5883179306983948,0.01984121836721897,0.9869517087936401,0.4705488681793213,0.5899490118026733,0.038273755460977554,0.9761762022972107,0.5040092468261719,0.6287649273872375,0.23245863616466522,0.9721479415893555,0.4704083800315857,0.6600812077522278,0.19631147384643555,0.9675033688545227,0.5172003507614136,0.4843211770057678,-0.14307430386543274,0.9424186944961548,0.42789143323898315,0.4905966520309448,-0.14824548363685608,0.933219850063324,-178.55129914949325,0.4803442358970642,0.4862755984067917,111.81375087976943,134.24796205926646,0.5982043906743649,0.0022604181943891555,0.0038862641161557963,-0.031289539822055214,0.17975669554977722,179.37065324561982,1.3215896256257644,68,1762115325.1521444
0.48277148604393005,0.29276421666145325,-0.2628277540206909,0.9999854564666748,0.5055547952651978,0.3485531210899353,-0.12870460748672485,0.9999731183052063,0.44941145181655884,0.34874144196510315,-0.12432165443897247,0.9999285340309143,0.4965922236442566,0.48355042934417725,-0.001721712527796626,0.9998432993888855,0.4644901752471924,0.48699480295181274,0.0016331442166119814,0.9997941255569458,0.4983821511268616,0.5845685005187988,0.026725079864263535,0.9874192476272583,0.4706079959869385,0.5886915326118469,0.03453104943037033,0.9774621725082397,0.5035227537155151,0.6254135966300964,0.24059896171092987,0.9721817374229431,0.470411479473114,0.6602739691734314,0.17127610743045807,0.969606876373291,0.518062949180603,0.4845033884048462,-0.1445389837026596,0.9459748268127441,0.42876991629600525,0.4904879629611969,-0.1439712941646576,0.9340211749076843,-178.7177664272385,0.4805411994457245,0.485272616147995,116.55168005215013,135.45187150809403,0.5850762358897204,0.002652580576800817,-0.013507531097282961,0.005281395088648164,-0.23424863967899973,179.80781424454096,1.236563965357944,69,1762115325.226398
0.4833216071128845,0.2928330898284912,-0.26930689811706543,0.9999865889549255,0.5071185827255249,0.3481122851371765,-0.13088007271289825,0.9999743103981018,0.4515717625617981,0.34838488698005676,-0.12924760580062866,0.999932050704956,0.497495174407959,0.4832552969455719,-0.0018251010915264487,0.9998376369476318,0.4657145142555237,0.4862571656703949,0.0017406654078513384,0.9998037219047546,0.4983695149421692,0.5831122994422913,0.03789009898900986,0.9878796339035034,0.47063779830932617,0.5876680016517639,0.026928767561912537,0.9789213538169861,0.5034993886947632,0.6279652118682861,0.24376614391803741,0.9727407693862915,0.4703857898712158,0.6621566414833069,0.15304075181484222,0.9717520475387573,0.5197458267211914,0.4868570566177368,-0.1536397784948349,0.9493359327316284,0.43144935369491577,0.49043482542037964,-0.14849534630775452,0.93553626537323,-179.05164412650984,0.48160484433174133,0.4847562313079834,123.97861598099567,134.44445663692727,0.5855173168250606,0.01556470801671865,-0.0075564498684697135,0.18894792436749328,0.08708436709278404,179.7188172131466,0.9261205145859394,70,1762115325.294735
0.4843307137489319,0.29297423362731934,-0.26639634370803833,0.9999877214431763,0.5096580982208252,0.3476898968219757,-0.13043667376041412,0.9999755024909973,0.4538169503211975,0.34820353984832764,-0.12858228385448456,0.9999361634254456,0.4987548291683197,0.4831026792526245,-0.0018087044591084123,0.9998303651809692,0.4670507311820984,0.48559561371803284,0.001723533496260643,0.9998102784156799,0.4985577166080475,0.5815523862838745,0.04086953029036522,0.98822420835495,0.470980703830719,0.5868129134178162,0.026077348738908768,0.9802284836769104,0.503659188747406,0.6307196617126465,0.2304029017686844,0.9737936854362488,0.4703899919986725,0.6635862588882446,0.150922954082489,0.9736799597740173,0.5212095975875854,0.4871128797531128,-0.14955611526966095,0.9527365565299988,0.43396249413490295,0.4894504249095917,-0.1427827775478363,0.9386461973190308,-179.5105466800809,0.48290278017520905,0.4843491464853287,127.9586886438918,135.0605209632409,0.5782326566230265,0.018159775502034826,-0.005695635132430449,0.03630829919918466,0.02603516809202893,179.47299171421733,0.5164271199202104,71,1762115325.366208
0.48504480719566345,0.29316771030426025,-0.2647567391395569,0.9999887347221375,0.5105652809143066,0.34696072340011597,-0.12677675485610962,0.9999768137931824,0.4547865390777588,0.3482641577720642,-0.1279326230287552,0.9999398589134216,0.4993174970149994,0.4834120571613312,-0.00035510750603862107,0.9998272061347961,0.4676770567893982,0.4856557548046112,0.0002686775114852935,0.9998183250427246,0.49894872307777405,0.5812016129493713,0.04791579768061638,0.9885087013244629,0.4712364673614502,0.5866983532905579,0.02052416279911995,0.9814597368240356,0.5038057565689087,0.6298829317092896,0.2368093729019165,0.9746591448783875,0.47039327025413513,0.6640363931655884,0.14410154521465302,0.9754067063331604,0.5217370986938477,0.4872848391532898,-0.14499762654304504,0.955909788608551,0.4341168999671936,0.4896402060985565,-0.1438760906457901,0.9410476088523865,-179.65629718815038,0.4834972769021988,0.4845339059829712,130.69932992678423,133.3224945563467,0.5765337046521651,0.009139558324933565,0.002840419682946944,-0.13867326303229002,0.13122994174418273,178.6613592047215,0.4090639297335368,72,1762115325.4312546
0.48597341775894165,0.29324454069137573,-0.2561664879322052,0.9999896287918091,0.5120197534561157,0.3467852771282196,-0.12175607681274414,0.9999781250953674,0.4569701552391052,0.34754639863967896,-0.1225988045334816,0.9999433159828186,0.5006127953529358,0.4833500385284424,0.000847686838824302,0.9998275637626648,0.4695109724998474,0.4848847985267639,-0.0009394951048307121,0.9998277425765991,0.49939411878585815,0.579035222530365,0.056670814752578735,0.9886941909790039,0.471658319234848,0.5854686498641968,0.018880309537053108,0.982671856880188,0.5037601590156555,0.6306197047233582,0.2370821237564087,0.9756864309310913,0.47029250860214233,0.6640395522117615,0.13589391112327576,0.9770292043685913,0.5227285027503967,0.48731228709220886,-0.1362384557723999,0.9592084884643555,0.4365255832672119,0.4872362017631531,-0.13436268270015717,0.9432750940322876,-179.76281773129426,0.4850618839263916,0.48411741852760315,136.17229388182534,134.99161373623275,0.5668512760361823,0.017803634553351728,-0.004739203094945483,0.09858836406075733,-0.08624838819158201,179.20787302271887,0.37767236678388955,73,1762115325.519136
0.4872233271598816,0.29344385862350464,-0.23881657421588898,0.9999904036521912,0.5146557688713074,0.3468678593635559,-0.112960085272789,0.9999791979789734,0.4598918855190277,0.3469996154308319,-0.10950799286365509,0.9999465942382812,0.5018962621688843,0.4835863411426544,0.001121741603128612,0.9998281598091125,0.47109442949295044,0.48469746112823486,-0.0012155368458479643,0.9998380541801453,0.5000681281089783,0.5781636834144592,0.06632770597934723,0.9886165261268616,0.4720521867275238,0.5852804183959961,0.017364008352160454,0.9838275909423828,0.5037990808486938,0.6314936876296997,0.2394736260175705,0.9763080477714539,0.47027650475502014,0.6641237139701843,0.12056787312030792,0.9784470200538635,0.5239933729171753,0.4873473644256592,-0.1271340548992157,0.9623496532440186,0.4405469000339508,0.4863766133785248,-0.1179085373878479,0.9452003836631775,179.67492300180737,0.48649534583091736,0.48414190113544464,141.64501938653314,137.81952239789462,0.5486339212890198,0.0234716285061779,0.00040088032636489626,0.09280822044588091,0.0841641680011548,179.86215272634763,0.7954764126571118,74,1762115325.580208
0.48830971121788025,0.2938857078552246,-0.24804982542991638,0.9999911189079285,0.5172474980354309,0.3469292223453522,-0.11792318522930145,0.9999803900718689,0.4621216654777527,0.3470689654350281,-0.11399482190608978,0.9999502301216125,0.5034669637680054,0.48364779353141785,0.0015446603065356612,0.9998301267623901,0.47297343611717224,0.48478829860687256,-0.0016394371632486582,0.9998483061790466,0.5007066130638123,0.5771360397338867,0.0680750384926796,0.9885939955711365,0.47269415855407715,0.5841124057769775,0.010012895800173283,0.9849590063095093,0.5038429498672485,0.6313071846961975,0.2488267421722412,0.9768216609954834,0.4701935648918152,0.6639968156814575,0.1146945208311081,0.9798479080200195,0.5250732898712158,0.48763585090637207,-0.13344785571098328,0.9651263952255249,0.4440191686153412,0.4865434765815735,-0.1251242607831955,0.9466672539710999,179.3885705201253,0.4882201999425888,0.4842180460691452,142.0486653290082,134.0288561055014,0.5566770035956433,0.025529455044621906,0.0011270162784378628,0.030457758570623477,0.010747491639606933,179.85475644117435,4.592387497281531,75,1762115325.6477714
0.48986372351646423,0.29383566975593567,-0.24217243492603302,0.9999917149543762,0.5193761587142944,0.34688982367515564,-0.11805510520935059,0.9999809861183167,0.46431922912597656,0.3470967710018158,-0.11198772490024567,0.999952495098114,0.5046927332878113,0.48371854424476624,0.0011690744431689382,0.9998276233673096,0.4744369387626648,0.4845898151397705,-0.0012703477405011654,0.999853789806366,0.5019590258598328,0.5755782127380371,0.06172224134206772,0.9885655045509338,0.47295036911964417,0.582697868347168,0.01616605371236801,0.9858353137969971,0.5038689374923706,0.6313356757164001,0.23802581429481506,0.97757488489151,0.47007685899734497,0.6630286574363708,0.1359991729259491,0.9810156226158142,0.5262752771377563,0.4882035255432129,-0.1308632791042328,0.9675367474555969,0.44706812500953674,0.4869319498538971,-0.11792796850204468,0.9480321407318115,179.04647706506037,0.48956483602523804,0.48415417969226837,140.8902278937958,133.91660517764157,0.5559332752847619,0.018089599417521193,-0.0008592043519121406,-0.10008954077246131,-0.026720936632206142,179.78463832533336,4.728379174374369,76,1762115325.7221034
0.49024897813796997,0.2938428223133087,-0.2473316490650177,0.999992311000824,0.5200718641281128,0.3468537926673889,-0.11971613019704819,0.9999817609786987,0.4650382995605469,0.3470619320869446,-0.11485704034566879,0.9999549984931946,0.5052046775817871,0.4834634065628052,0.0011450869496911764,0.9998251795768738,0.474935919046402,0.48363468050956726,-0.0012463167076930404,0.9998600482940674,0.502357006072998,0.5739176273345947,0.06266169250011444,0.9885446429252625,0.47322219610214233,0.5813347101211548,0.01552158035337925,0.9866611957550049,0.5038899183273315,0.6313880681991577,0.23452648520469666,0.978208065032959,0.46998247504234314,0.6625785231590271,0.12228195369243622,0.9820990562438965,0.5269924402236938,0.48845595121383667,-0.13357768952846527,0.9697878360748291,0.44803327322006226,0.48706647753715515,-0.1223175972700119,0.9487816691398621,178.95782504564602,0.49007029831409454,0.4835490435361862,142.65589836573832,137.01278837000407,0.5531457296128949,0.007256487005452473,-0.008687418923128002,-0.15552167032009567,-0.11238293847881467,179.7833058148288,2.90820543794906,77,1762115325.79176
0.4913409352302551,0.29384687542915344,-0.24835817515850067,0.999992847442627,0.5216752886772156,0.3469044268131256,-0.1230597123503685,0.9999825358390808,0.4665641784667969,0.34696537256240845,-0.11683200299739838,0.9999575614929199,0.5061713457107544,0.48338156938552856,0.0011302781058475375,0.999821662902832,0.4757174551486969,0.48239555954933167,-0.0012361988192424178,0.9998624920845032,0.503170371055603,0.5738933086395264,0.06062953546643257,0.9886184334754944,0.47342053055763245,0.5813732743263245,0.017386535182595253,0.9874444007873535,0.5039029717445374,0.6313879489898682,0.23142632842063904,0.9789512157440186,0.46984463930130005,0.6619861125946045,0.12778273224830627,0.9830471277236938,0.5280841588973999,0.4893438220024109,-0.14188645780086517,0.9716580510139465,0.45075297355651855,0.48718976974487305,-0.12619563937187195,0.9495791792869568,178.66204329946765,0.49094440042972565,0.4828885644674301,141.88125404543416,136.80186768203237,0.5546784724300485,0.01570686796591508,-0.011868244386655642,0.1518461237355983,-0.05715671508491598,179.9366383152807,2.231992175888258,78,1762115325.847411
0.49253493547439575,0.29378634691238403,-0.2806538939476013,0.9999932050704956,0.5229486227035522,0.347586452960968,-0.14600569009780884,0.9999829530715942,0.4672633111476898,0.3464992642402649,-0.13517583906650543,0.9999597072601318,0.5074313282966614,0.4820019602775574,0.0004622588458005339,0.9998154640197754,0.4765263497829437,0.48040953278541565,-0.0005368381971493363,0.999862551689148,0.5036090016365051,0.5729909539222717,0.05996470898389816,0.9886578321456909,0.4737677574157715,0.5812710523605347,0.02891944721341133,0.9880715012550354,0.5039283037185669,0.6317669153213501,0.22859442234039307,0.9797466993331909,0.4697842001914978,0.6610989570617676,0.16085195541381836,0.9839056134223938,0.5288242101669312,0.49217867851257324,-0.1687023937702179,0.9716699123382568,0.45380353927612305,0.4875279664993286,-0.14782123267650604,0.9459280371665955,178.6647664173887,0.49197883903980255,0.4812057465314865,142.34304151464127,137.4682539541246,0.5919250250257008,0.011844475990281456,-0.01926851573803609,-0.04422496277188177,-0.08473420799372232,-178.88151093004257,1.7058975791476598,79,1762115325.934746
0.49393779039382935,0.2938026487827301,-0.2690284550189972,0.999993622303009,0.5236236453056335,0.3480980694293976,-0.137869730591774,0.9999832510948181,0.46833571791648865,0.34565508365631104,-0.13024137914180756,0.9999620914459229,0.5083295106887817,0.48206600546836853,-0.00026061368407681584,0.9998108148574829,0.47711092233657837,0.4797636568546295,0.0002060960978269577,0.9998615384101868,0.5035781264305115,0.5722912549972534,0.05451650172472,0.9889246225357056,0.473867267370224,0.5813588500022888,0.0378151461482048,0.988758385181427,0.5039554834365845,0.632017195224762,0.2128242701292038,0.9807150363922119,0.46973806619644165,0.6588285565376282,0.17021945118904114,0.9847846627235413,0.5302518010139465,0.4985474944114685,-0.14679722487926483,0.9713493585586548,0.4559151232242584,0.48575514554977417,-0.13719406723976135,0.9449872970581055,178.6069887604114,0.49272021651268005,0.480914831161499,141.84541538198445,140.65767974360986,0.5794770572489557,0.011897030297697161,-0.004668376228608158,0.0008433493199791998,0.23429131373535755,-177.46993981347276,1.7366011761591131,80,1762115325.9970622
0.4948236346244812,0.2938096225261688,-0.2575688362121582,0.9999940395355225,0.5242995619773865,0.3486199676990509,-0.12756957113742828,0.9999840259552002,0.4693582057952881,0.3442765176296234,-0.12269391119480133,0.9999642968177795,0.5086039304733276,0.48217418789863586,-0.000249701231950894,0.9998109340667725,0.47739753127098083,0.47963201999664307,0.00019693693320732564,0.9998612999916077,0.5036877989768982,0.572282075881958,0.0511331744492054,0.9891487956047058,0.4739867150783539,0.5811380743980408,0.03674616292119026,0.9893844127655029,0.5039845108985901,0.6323854327201843,0.2100154608488083,0.9814884066581726,0.46978187561035156,0.6562619805335999,0.16990698873996735,0.9855396151542664,0.5326443910598755,0.5013910531997681,-0.13372056186199188,0.9727574586868286,0.45645079016685486,0.48397865891456604,-0.1292286366224289,0.9448718428611755,178.36913466488122,0.49300073087215424,0.48090310394763947,140.32538475763624,139.2462255003363,0.5685123826854102,0.0040803135761623855,-0.00017058203370198127,-0.1137006156108361,0.06542413996438977,-175.47981957534273,1.9580706607871494,81,1762115326.0658104
0.4949447214603424,0.29364243149757385,-0.25197649002075195,0.9999944567680359,0.5243486166000366,0.34870845079421997,-0.12471745163202286,0.9999849200248718,0.4697806239128113,0.3438982665538788,-0.11484234035015106,0.9999662041664124,0.508579432964325,0.4818868339061737,-0.0006844596355222166,0.9998102784156799,0.47761836647987366,0.4791605770587921,0.0006319108069874346,0.9998600482940674,0.5036621689796448,0.5718252062797546,0.042804453521966934,0.9892715215682983,0.47414302825927734,0.5808382034301758,0.03568277880549431,0.9898722767829895,0.5040045976638794,0.6327767968177795,0.20256297290325165,0.9820870757102966,0.4698626399040222,0.6549952626228333,0.16599410772323608,0.9861326813697815,0.5333384275436401,0.5017670392990112,-0.1331763118505478,0.9743754267692566,0.45632481575012207,0.4802083373069763,-0.11907732486724854,0.9455274939537048,178.3076115533788,0.4930988997220993,0.4805237054824829,136.60338252462492,138.67897128303895,0.5595115792848385,0.0015166416195190949,-0.0058614469147807635,-0.039606979101974235,-0.08791997191098046,-174.96238186434658,2.013076714207821,82,1762115326.1305382
0.4951917231082916,0.2929103374481201,-0.2521975636482239,0.9999948143959045,0.5244165062904358,0.34857887029647827,-0.12481067329645157,0.9999857544898987,0.4700343608856201,0.34338095784187317,-0.11488373577594757,0.9999678134918213,0.5086596608161926,0.4815789461135864,-0.0016532860463485122,0.9998130202293396,0.4778825640678406,0.47907641530036926,0.0015965539496392012,0.9998577833175659,0.5039914846420288,0.5710283517837524,0.04314756393432617,0.9894787073135376,0.4743812084197998,0.5791981220245361,0.04562796652317047,0.9902363419532776,0.5040262937545776,0.6328477263450623,0.20176739990711212,0.9827069640159607,0.47000566124916077,0.6490301489830017,0.18834872543811798,0.986609935760498,0.5347720384597778,0.501300573348999,-0.13400031626224518,0.9759199023246765,0.4561556875705719,0.47983571887016296,-0.12146733701229095,0.9465456604957581,178.31407305628932,0.4932711124420166,0.48032768070697784,137.82316736481866,139.82486732505538,0.5667700985938777,0.0027410366654270295,-0.0031200430331134875,0.019488175527409262,0.0436337603749747,-174.54018503623584,1.8211188854205633,83,1762115326.1933658
0.49525362253189087,0.2919413149356842,-0.25602471828460693,0.9999951124191284,0.5242719650268555,0.34836727380752563,-0.1286449134349823,0.9999867677688599,0.46988511085510254,0.3429791033267975,-0.11614181101322174,0.9999684691429138,0.5088167786598206,0.48084691166877747,-0.0020579190459102392,0.999817967414856,0.4781264364719391,0.47873860597610474,0.0020000964868813753,0.9998524188995361,0.5040937066078186,0.5695701241493225,0.036857970058918,0.9895382523536682,0.47476181387901306,0.5782978534698486,0.04718488082289696,0.9902370572090149,0.5040059685707092,0.632963240146637,0.2008548229932785,0.9829537272453308,0.4702542722225189,0.6431745886802673,0.19995856285095215,0.9865886569023132,0.5356841683387756,0.4985194206237793,-0.13850584626197815,0.977687418460846,0.4556507170200348,0.4802079498767853,-0.12252368777990341,0.9465444087982178,178.45949337853747,0.4934716075658798,0.4797927588224411,134.74845954288878,137.43458829476938,0.572887370731232,0.003468584497863424,-0.009254198907789016,0.01258664592144701,-0.10612147350223172,-174.34210156391188,1.5691585526622325,84,1762115326.251169
0.49532684683799744,0.29150834679603577,-0.2667332887649536,0.9999953508377075,0.5240741968154907,0.3482210040092468,-0.1331317275762558,0.9999876618385315,0.46960240602493286,0.34252867102622986,-0.12311802059412003,0.9999694228172302,0.5090593099594116,0.48041945695877075,-0.002277668099850416,0.999826192855835,0.47830724716186523,0.47846636176109314,0.0022180997766554356,0.9998496174812317,0.5041529536247253,0.56934654712677,0.023564022034406662,0.989732563495636,0.4748600423336029,0.5773370265960693,0.05237877368927002,0.9899293184280396,0.5038225054740906,0.6343832015991211,0.19198866188526154,0.9832363724708557,0.47028642892837524,0.640103280544281,0.2203124463558197,0.9862982034683228,0.5357664823532104,0.49340465664863586,-0.14475160837173462,0.979200541973114,0.45502448081970215,0.48045721650123596,-0.13145598769187927,0.9482781887054443,178.6519077020387,0.4936832785606384,0.47944290935993195,127.2606180782685,137.4074834725116,0.5858499622316391,0.0026762540807929174,-0.004423308223080332,-0.010017799153065512,0.06107918056302544,-174.034211916968,1.2861733688617565,85,1762115326.3302612
0.495216429233551,0.2915377616882324,-0.2659267783164978,0.9999955892562866,0.5238153338432312,0.3481117784976959,-0.1324489265680313,0.999988317489624,0.4693607687950134,0.3419986367225647,-0.12604257464408875,0.9999702572822571,0.5090863108634949,0.4801248013973236,-0.002429222920909524,0.9998323917388916,0.47836071252822876,0.4781574308872223,0.00236137630417943,0.9998466968536377,0.5042509436607361,0.5688367486000061,0.02902662195265293,0.9897726774215698,0.47507166862487793,0.5751767158508301,0.05506972223520279,0.9893746972084045,0.5035015940666199,0.6356990933418274,0.19037982821464539,0.9833839535713196,0.4704079031944275,0.6378726363182068,0.2170381098985672,0.9857867360115051,0.5364742279052734,0.4863646924495697,-0.1446908414363861,0.9805019497871399,0.4545171856880188,0.48026520013809204,-0.13454283773899078,0.9503436088562012,178.77614978052898,0.4937235116958618,0.47914111614227295,131.97745539333488,139.6880164702842,0.5829427444441528,0.0006140919081791584,-0.004606371635686109,-0.031475476532564446,-0.0027941585894484013,-173.59471762935954,1.0579792341492267,86,1762115326.3957777
0.4951668679714203,0.29156866669654846,-0.27018600702285767,0.9999958276748657,0.523645281791687,0.3480996787548065,-0.13379037380218506,0.9999889135360718,0.46924757957458496,0.34171637892723083,-0.12952521443367004,0.9999712705612183,0.5091227293014526,0.4799129068851471,-0.002173698041588068,0.9998348951339722,0.47849607467651367,0.47795364260673523,0.0021028579212725163,0.9998430013656616,0.504287838935852,0.5687184929847717,0.03196505829691887,0.9898629784584045,0.4753521978855133,0.5741932988166809,0.05003149434924126,0.9893119931221008,0.5034162402153015,0.6357731223106384,0.19681954383850098,0.9835500717163086,0.4704250693321228,0.638356626033783,0.20904096961021423,0.9857426881790161,0.5369075536727905,0.485569030046463,-0.1459478735923767,0.9815800786018372,0.45420312881469727,0.48005998134613037,-0.14040279388427734,0.9519369602203369,178.87281593168387,0.49380940198898315,0.47893327474594116,133.10836596009023,138.46366398122453,0.5858964314913451,0.0012648294893986048,-0.003060694260605784,0.009582830057682014,0.02276180758093297,-173.30723269912622,0.9092062321217259,87,1762115326.4636843
0.49505916237831116,0.2914661467075348,-0.2676650881767273,0.9999960660934448,0.523307740688324,0.3477999269962311,-0.1318349540233612,0.9999895095825195,0.4691046178340912,0.3417641818523407,-0.12881802022457123,0.9999720454216003,0.5090371370315552,0.4798453152179718,-0.002319890074431896,0.9998379349708557,0.4783875346183777,0.4780048429965973,0.002242209855467081,0.9998403787612915,0.504226803779602,0.5685436725616455,0.032961003482341766,0.9900597929954529,0.4754326343536377,0.5737215876579285,0.05273866653442383,0.9892750382423401,0.5031201839447021,0.6353245973587036,0.19808775186538696,0.983855128288269,0.47042545676231384,0.6378698348999023,0.20942679047584534,0.9857380390167236,0.5369633436203003,0.48292046785354614,-0.14413349330425262,0.9827962517738342,0.4529638886451721,0.48027950525283813,-0.1382659673690796,0.9539872407913208,178.93494092751354,0.49371233582496643,0.47892507910728455,133.66143801289968,140.09151174011345,0.5843142642764946,-0.0017301424060719127,-0.00014608202691733987,-0.05338346203167515,0.05195110236242101,-173.6460507568875,0.8155415434618122,88,1762115326.5197873
0.49489331245422363,0.2914825975894928,-0.26504752039909363,0.9999963045120239,0.5224048495292664,0.34778836369514465,-0.1317080557346344,0.9999900460243225,0.4686756730079651,0.34165647625923157,-0.1262950450181961,0.9999724626541138,0.5085777044296265,0.47963747382164,-0.002617331687361002,0.9998407959938049,0.47782593965530396,0.477805495262146,0.0025374924298375845,0.9998369216918945,0.5037911534309387,0.5679016709327698,0.033872999250888824,0.9902842044830322,0.4754209518432617,0.5719842314720154,0.055180735886096954,0.9893094301223755,0.5026639699935913,0.6346946954727173,0.1995238959789276,0.9842588901519775,0.4704274535179138,0.6372618079185486,0.20927059650421143,0.9857921600341797,0.536644458770752,0.4825683534145355,-0.14382939040660858,0.9838829636573792,0.4508046507835388,0.47915881872177124,-0.13431832194328308,0.9553093314170837,179.00022362050603,0.4932018220424652,0.478721484541893,134.3719010776013,142.16995072328103,0.5823446806331669,-0.006608939082017204,-0.002635666511313516,-0.06315925471570077,-0.03222932026692187,-173.48924039865165,0.7638611042626166,89,1762115326.5970333
0.49473610520362854,0.2912595272064209,-0.2541055977344513,0.9999964833259583,0.5209332704544067,0.3478888273239136,-0.12471877038478851,0.9999902248382568,0.467388391494751,0.3416988253593445,-0.12343893200159073,0.9999729990959167,0.5079717040061951,0.4796515107154846,-0.002603661734610796,0.9998432993888855,0.47723230719566345,0.47783607244491577,0.002527718199416995,0.999836802482605,0.5034440755844116,0.567775547504425,0.045652978122234344,0.9905341267585754,0.4750444293022156,0.5706948041915894,0.05655122548341751,0.9894563555717468,0.5024092197418213,0.6342849135398865,0.20176155865192413,0.9847066402435303,0.4703832268714905,0.6365436911582947,0.20587158203125,0.9859249591827393,0.5366044640541077,0.4832106828689575,-0.13538655638694763,0.9846944212913513,0.44894033670425415,0.47926753759384155,-0.133928582072258,0.9573588371276855,179.333257883363,0.49260200560092926,0.4787437915802002,141.7273642951284,143.99078091103078,0.5728915908782538,-0.009398792934689211,0.00034953899145976074,-0.043715471706918155,0.0467765243583761,-173.40565122829915,0.5471426576838396,90,1762115326.6608517
0.49416226148605347,0.29118359088897705,-0.25557586550712585,0.9999966621398926,0.5190707445144653,0.3476470708847046,-0.12520545721054077,0.9999901056289673,0.46600309014320374,0.3412894010543823,-0.12277086824178696,0.9999734163284302,0.5069797039031982,0.47962749004364014,-0.002656591823324561,0.9998378753662109,0.47616538405418396,0.4776746928691864,0.0025802829768508673,0.9998321533203125,0.502229630947113,0.5677667260169983,0.04950001835823059,0.9909061193466187,0.474149227142334,0.5696650743484497,0.05546102672815323,0.989876925945282,0.5022544860839844,0.6341819167137146,0.2020505964756012,0.9852673411369324,0.4698435366153717,0.6376472115516663,0.20528912544250488,0.986411988735199,0.5348170399665833,0.4836423993110657,-0.13554957509040833,0.9853219985961914,0.44734281301498413,0.4779210686683655,-0.134919673204422,0.9591405391693115,179.58822182378353,0.4915725439786911,0.47865109145641327,144.05130768455504,144.30045837334956,0.5742925265217906,-0.01489050780239676,-0.001340848348995603,-0.07943416376061813,-0.024450378079563045,-173.16834788926866,0.45034341145805973,91,1762115326.7299871
0.4940366744995117,0.2911379635334015,-0.2560194134712219,0.9999967217445374,0.5184446573257446,0.3475949764251709,-0.12556490302085876,0.9999898672103882,0.4654185175895691,0.3411581218242645,-0.12295345216989517,0.9999736547470093,0.5064208507537842,0.4796256721019745,-0.002556547988206148,0.9998325705528259,0.47556209564208984,0.4775722622871399,0.0024827420711517334,0.9998272657394409,0.501734733581543,0.5677133202552795,0.05049661546945572,0.9911481738090515,0.47380465269088745,0.569193422794342,0.05424219369888306,0.9901726245880127,0.5019292831420898,0.6340571641921997,0.20238788425922394,0.9856430888175964,0.46947941184043884,0.6383126974105835,0.2030310183763504,0.9867387413978577,0.533657431602478,0.48394322395324707,-0.13620075583457947,0.9857141971588135,0.44682827591896057,0.4775618314743042,-0.13727563619613647,0.9606713056564331,179.5986981957983,0.490991473197937,0.4785989671945572,144.5608520556349,144.38014834604243,0.5740723026630207,-0.008860083613559938,-0.0007947832409342906,0.09195103988706728,0.00832632215578295,-173.07871671911786,0.45496466770553406,92,1762115326.7955701
0.4933966100215912,0.2910613417625427,-0.25605207681655884,0.9999967217445374,0.5178307294845581,0.34764325618743896,-0.12534783780574799,0.9999890327453613,0.4645163416862488,0.3409951329231262,-0.12325160205364227,0.9999738335609436,0.5053983330726624,0.47963154315948486,-0.0024063806049525738,0.9998248815536499,0.47467249631881714,0.4775069057941437,0.002325423527508974,0.999821662902832,0.5010592937469482,0.5675168037414551,0.05064592510461807,0.9913604855537415,0.47317075729370117,0.5687105059623718,0.053920142352581024,0.9904083013534546,0.501564621925354,0.6337172389030457,0.2029052972793579,0.9859943985939026,0.4693501889705658,0.6386224031448364,0.2023485004901886,0.9870184063911438,0.5319576859474182,0.4853518605232239,-0.13418766856193542,0.9853190779685974,0.4458765387535095,0.47762244939804077,-0.13765102624893188,0.9615837335586548,179.5142797252652,0.49003541469573975,0.47856922447681427,144.52656518181286,144.71647954463324,0.5740638432942804,-0.013685913406734425,-0.00042576501184292257,-0.06908143017737395,0.005282471226649789,-172.89209999358633,0.6861854071505358,93,1762115326.8654273
0.4922730326652527,0.2908221483230591,-0.2618904709815979,0.9999964237213135,0.5171130299568176,0.3478175699710846,-0.1320054829120636,0.9999873042106628,0.4635050892829895,0.34081733226776123,-0.12767906486988068,0.9999725222587585,0.504029393196106,0.4787110984325409,-0.0020893875043839216,0.99981689453125,0.47328248620033264,0.4754965603351593,0.0020005274564027786,0.9998127818107605,0.5005062818527222,0.5671578049659729,0.04489646106958389,0.9914339780807495,0.4721857011318207,0.5677929520606995,0.049807529896497726,0.9903994798660278,0.5010165572166443,0.6337183117866516,0.19437482953071594,0.9862275719642639,0.4689256548881531,0.6383500695228577,0.19430330395698547,0.9870417714118958,0.5287743210792542,0.4879024624824524,-0.14017699658870697,0.9827020168304443,0.4445396065711975,0.477688729763031,-0.1385226547718048,0.9603217840194702,179.28673480765306,0.4886559396982193,0.4771038293838501,141.92115531505962,143.40491247288105,0.5721626197124874,-0.020537609504337577,-0.021816786997202936,-0.1020079806795349,-0.31846931421278785,-172.5602924762963,1.2014953235039434,94,1762115326.9325955
0.4907307028770447,0.2905597388744354,-0.26288577914237976,0.9999960064888,0.5157387256622314,0.3475017845630646,-0.1336565762758255,0.9999847412109375,0.4621492028236389,0.34072816371917725,-0.127276211977005,0.999971330165863,0.5027708411216736,0.47761091589927673,-0.002086678985506296,0.9998054504394531,0.4720580577850342,0.473796010017395,0.0019970680586993694,0.9998033046722412,0.49993133544921875,0.5666354894638062,0.039220646023750305,0.991401195526123,0.4713389277458191,0.566233217716217,0.04173357039690018,0.9901763200759888,0.5009857416152954,0.6337286829948425,0.18549899756908417,0.9863637089729309,0.4682229459285736,0.6383906006813049,0.18152636289596558,0.986958384513855,0.5248125791549683,0.4900146424770355,-0.14035409688949585,0.9785467386245728,0.44349589943885803,0.47669270634651184,-0.13687370717525482,0.9593362212181091,179.33405424272655,0.4874144494533539,0.4757034629583359,139.48018612048392,140.55621728300693,0.5645168728710034,-0.015545513846264077,-0.017534906736246282,0.06250930484183469,0.05361623191164285,-172.79611708689927,1.4823927474769063,95,1762115327.0124571
0.4899619221687317,0.2904262840747833,-0.25706595182418823,0.9999949336051941,0.5144454836845398,0.3460794985294342,-0.12674355506896973,0.9999821782112122,0.46133941411972046,0.3404903709888458,-0.12113845348358154,0.9999690651893616,0.501728892326355,0.47631657123565674,-0.0018882479052990675,0.9997851848602295,0.4713912904262543,0.471903920173645,0.0018058816203847528,0.9997850656509399,0.499857097864151,0.5664914846420288,0.030825143679976463,0.9913308024406433,0.470891535282135,0.563922643661499,0.02627864107489586,0.9899325370788574,0.5010238885879517,0.6341629028320312,0.16741976141929626,0.98626708984375,0.4678551256656647,0.6385154128074646,0.15653808414936066,0.9867087602615356,0.5224421620368958,0.4842856228351593,-0.12950441241264343,0.9767612218856812,0.44279637932777405,0.47481659054756165,-0.12911561131477356,0.9595918655395508,179.41650569452466,0.4865600913763046,0.4741102457046509,136.2646140642507,134.68302295767066,0.5434011595737192,-0.012007148792730247,-0.022391075987964162,0.04972818402737268,-0.06824860481151215,-173.99204515645476,1.423748746118955,96,1762115327.0836112
0.48971500992774963,0.29039299488067627,-0.24664917588233948,0.9999945759773254,0.5141855478286743,0.34590643644332886,-0.11714698374271393,0.9999809861183167,0.46124857664108276,0.3397924304008484,-0.11513137817382812,0.9999686479568481,0.5015265345573425,0.47639036178588867,-0.0017482778057456017,0.9997769594192505,0.4713035225868225,0.4722766876220703,0.0016661066329106688,0.9997759461402893,0.4999462068080902,0.5660483241081238,0.03155645355582237,0.9913831353187561,0.4706747531890869,0.5641278028488159,0.032571084797382355,0.9898286461830139,0.5011319518089294,0.6343507766723633,0.1719658374786377,0.9862959384918213,0.4677743911743164,0.6385942101478577,0.16617394983768463,0.9864696860313416,0.5218167304992676,0.4837552309036255,-0.11928977817296982,0.9754910469055176,0.44270020723342896,0.47438332438468933,-0.12509247660636902,0.9606190919876099,179.43264166345242,0.4864150285720825,0.4743335247039795,136.29460479143825,137.72406247473936,0.5409445914562158,-0.0024241310480015298,0.0037311946197488366,0.16014091946670267,0.43652683790325214,-173.41175994970973,1.5169762995814604,97,1762115327.1434524
0.4890761375427246,0.29039350152015686,-0.24215705692768097,0.999994158744812,0.5132112503051758,0.3454974889755249,-0.11429265886545181,0.9999804496765137,0.4607868790626526,0.33957594633102417,-0.11157415062189102,0.9999675154685974,0.5007345676422119,0.47615721821784973,-0.0017148408805951476,0.9997683167457581,0.4710659980773926,0.4722617566585541,0.0016351003432646394,0.9997639060020447,0.49965494871139526,0.5660340785980225,0.03183812275528908,0.9912927746772766,0.47038596868515015,0.5641489028930664,0.033019084483385086,0.9894571900367737,0.501139760017395,0.634841799736023,0.16446955502033234,0.986118495464325,0.46756404638290405,0.6392910480499268,0.16081739962100983,0.9857930541038513,0.5204877853393555,0.48110488057136536,-0.11921912431716919,0.9755104184150696,0.4425349831581116,0.47432446479797363,-0.12245337665081024,0.9613519906997681,179.5218897576454,0.48590028285980225,0.4742094874382019,137.87035563379294,139.3053855498556,0.5329802116630454,-0.00810432393271797,-0.0019528830597482741,-0.08943080445320291,-0.0894919679258916,-173.5555271542672,1.6410616105639246,98,1762115327.2069674
0.4888623356819153,0.2904990613460541,-0.23949675261974335,0.9999939799308777,0.5128893852233887,0.3456253111362457,-0.11157187074422836,0.9999799132347107,0.4601253569126129,0.33959144353866577,-0.11112485080957413,0.9999669194221497,0.5002690553665161,0.47623714804649353,-0.0016153028700500727,0.9997650384902954,0.47089070081710815,0.472419410943985,0.0015362235717475414,0.9997578263282776,0.4994897246360779,0.5660436749458313,0.029629385098814964,0.9915026426315308,0.470099538564682,0.5644336938858032,0.0344693548977375,0.9894234538078308,0.5011509656906128,0.6354146599769592,0.1661222279071808,0.9863267540931702,0.46758946776390076,0.6393646001815796,0.16538044810295105,0.9856613874435425,0.518953263759613,0.48103904724121094,-0.11541946977376938,0.9748032093048096,0.44243496656417847,0.47472691535949707,-0.1220492273569107,0.9617146849632263,179.59656396683914,0.48557987809181213,0.47432827949523926,136.1078580661519,139.47478103251288,0.5334597086601855,-0.005045693302946223,0.001870722119388303,0.04816692392449589,0.0602136452790718,-173.47623987228286,2.1802081562863593,99,1762115327.270468
0.4884915351867676,0.290615975856781,-0.2360348403453827,0.9999938011169434,0.5124944448471069,0.34651893377304077,-0.10879266262054443,0.9999786615371704,0.45967406034469604,0.3398883640766144,-0.1112348660826683,0.9999658465385437,0.49947983026504517,0.476668119430542,-0.0010659284889698029,0.9997608065605164,0.470456600189209,0.4728071093559265,0.0009834489319473505,0.9997526407241821,0.4994123578071594,0.5662245154380798,0.03150743991136551,0.9916930198669434,0.46974506974220276,0.5649122595787048,0.03562288358807564,0.9894424080848694,0.5013657808303833,0.6359679698944092,0.17015130817890167,0.9864932894706726,0.4675723910331726,0.6398608088493347,0.1678474396467209,0.9855244159698486,0.5183325409889221,0.48034560680389404,-0.11470186710357666,0.9742759466171265,0.4422421455383301,0.4765218496322632,-0.12383971363306046,0.9620646834373474,179.51386931606322,0.4849682152271271,0.47473761439323425,136.68184880234986,140.15217701528388,0.5335588841429413,-0.009596142840577975,0.006421897384298309,-0.07139024824474188,0.07140163390018626,-172.84505737028203,10.088214137480621,100,1762115327.3342085
0.48837876319885254,0.290685772895813,-0.23599031567573547,0.9999934434890747,0.5122502446174622,0.34682855010032654,-0.10880579054355621,0.9999772906303406,0.4595082700252533,0.34004759788513184,-0.11164228618144989,0.9999648332595825,0.49915170669555664,0.4771755337715149,-0.0007126338896341622,0.9997581839561462,0.47029295563697815,0.4735042154788971,0.0006297564250417054,0.9997490644454956,0.4994449019432068,0.5662953853607178,0.03236524388194084,0.9918076992034912,0.46966075897216797,0.5653439164161682,0.03632265329360962,0.989408552646637,0.5018527507781982,0.6374572515487671,0.17092925310134888,0.9866030216217041,0.46759313344955444,0.6406441926956177,0.1687759906053543,0.9853419065475464,0.5182057619094849,0.47970297932624817,-0.11682145297527313,0.973397970199585,0.4421466886997223,0.4772563576698303,-0.12480790913105011,0.9624155759811401,179.49746488841595,0.4847223311662674,0.475339874625206,137.53856218247554,140.851984256381,0.5348644621018878,-0.003075185021737445,0.007532255804106558,0.08155531408489267,0.013886860211337523,-172.67376304960288,6.761235212478431,101,1762115327.414166
0.48810896277427673,0.2908570468425751,-0.23894158005714417,0.9999932646751404,0.511980414390564,0.3471214771270752,-0.10999134927988052,0.999977171421051,0.4591809809207916,0.34030652046203613,-0.11264952272176743,0.9999640583992004,0.4986202120780945,0.4772822856903076,-9.274311014451087e-05,0.9997605681419373,0.46989235281944275,0.47354164719581604,7.830687536625192e-06,0.9997463226318359,0.49944671988487244,0.5664449334144592,0.03018644079566002,0.991912305355072,0.4695602357387543,0.5656800866127014,0.03368322178721428,0.9893563985824585,0.5020284056663513,0.6394495368003845,0.1679219901561737,0.986729621887207,0.4675981402397156,0.6414214372634888,0.1672665774822235,0.9851403832435608,0.5180099606513977,0.4793011546134949,-0.1172519326210022,0.9729130268096924,0.4419940412044525,0.4790337085723877,-0.1250540167093277,0.9622268080711365,179.42382676741653,0.4842562824487686,0.47541196644306183,136.6796916907787,139.62326494132046,0.5361784740497414,-0.007235473530696397,0.0011192358658878747,-0.06458907890184618,-0.0995630591236013,-172.6453508091723,4.261376808240645,102,1762115327.4785776
0.48794659972190857,0.2910621762275696,-0.23555326461791992,0.9999933242797852,0.5116063952445984,0.34726637601852417,-0.1060524731874466,0.9999774098396301,0.4588983654975891,0.3406068980693817,-0.11287275701761246,0.9999641180038452,0.4983329176902771,0.47775399684906006,0.00035356488660909235,0.9997699856758118,0.46949535608291626,0.4742407500743866,-0.0004475344030652195,0.9997522234916687,0.49941474199295044,0.5665512681007385,0.03072516620159149,0.9921078681945801,0.4693729281425476,0.5660603642463684,0.03631245344877243,0.9893121719360352,0.5020315051078796,0.6406172513961792,0.16921588778495789,0.9869948029518127,0.4676043391227722,0.6413520574569702,0.17575153708457947,0.9850730895996094,0.5178297162055969,0.4790627062320709,-0.1103801280260086,0.9728280305862427,0.44207239151000977,0.48065677285194397,-0.12550827860832214,0.9627682566642761,179.41941048273085,0.4839141368865967,0.4759973734617233,137.01997376404415,140.1785413570388,0.537540420819491,-0.005352713539723984,0.009158429690414025,0.029454933835044966,0.12576957409543205,-172.79903134971647,3.148163398827067,103,1762115327.5424976
0.48790591955184937,0.29136544466018677,-0.23528270423412323,0.9999935030937195,0.511263906955719,0.3472733795642853,-0.10415367037057877,0.9999781847000122,0.4584106504917145,0.34111741185188293,-0.11307530105113983,0.9999644160270691,0.49837422370910645,0.47818616032600403,0.0006343844579532743,0.9997811317443848,0.46934208273887634,0.4750731587409973,-0.0007327554048970342,0.9997587203979492,0.49943822622299194,0.5673834681510925,0.0303085595369339,0.9922617077827454,0.46907806396484375,0.5668575167655945,0.03868351876735687,0.989070475101471,0.5020904541015625,0.6425196528434753,0.17019173502922058,0.9870556592941284,0.46761974692344666,0.641105055809021,0.18202055990695953,0.9847095608711243,0.5182068943977356,0.47884851694107056,-0.10747174918651581,0.973358690738678,0.4421018660068512,0.4816298186779022,-0.12570925056934357,0.9636233448982239,179.57640315271604,0.4838581532239914,0.47662965953350067,136.64243521075642,140.61939239606434,0.5404286551397595,-0.0008814911724184533,0.009955665006137825,0.07040166475866917,0.012552874543160347,-173.35653277319244,1.6374556853076223,104,1762115327.6060078
0.48768478631973267,0.2914898991584778,-0.23786278069019318,0.999993622303009,0.5111169219017029,0.34727635979652405,-0.10600745677947998,0.9999785423278809,0.4579943120479584,0.3413935899734497,-0.11507546901702881,0.9999647736549377,0.49830102920532227,0.4785134196281433,0.0006017472478561103,0.9997875094413757,0.46907228231430054,0.4755465090274811,-0.0006997347809374332,0.9997601509094238,0.4993566572666168,0.567386269569397,0.027895361185073853,0.9924029111862183,0.46880871057510376,0.5671429634094238,0.03867851942777634,0.9889847040176392,0.5021194219589233,0.6431204676628113,0.16844448447227478,0.9872230887413025,0.467631995677948,0.6410898566246033,0.1807572841644287,0.9845589399337769,0.5185365676879883,0.479399710893631,-0.1109037846326828,0.9725959897041321,0.44204145669937134,0.4816262423992157,-0.12657049298286438,0.9637975692749023,179.62480046372366,0.4836866557598114,0.4770299643278122,135.38963560663242,140.75395133312608,0.5413549930562118,-0.0027341448581257007,0.006381967805082008,-0.029536434097636316,-0.05697463734221723,-173.68084272835793,1.0943752742170578,105,1762115327.6687322
