nose_x,nose_y,nose_z,nose_visibility,left_shoulder_x,left_shoulder_y,left_shoulder_z,left_shoulder_visibility,right_shoulder_x,right_shoulder_y,right_shoulder_z,right_shoulder_visibility,left_hip_x,left_hip_y,left_hip_z,left_hip_visibility,right_hip_x,right_hip_y,right_hip_z,right_hip_visibility,left_knee_x,left_knee_y,left_knee_z,left_knee_visibility,right_knee_x,right_knee_y,right_knee_z,right_knee_visibility,left_ankle_x,left_ankle_y,left_ankle_z,left_ankle_visibility,right_ankle_x,right_ankle_y,right_ankle_z,right_ankle_visibility,left_wrist_x,left_wrist_y,left_wrist_z,left_wrist_visibility,right_wrist_x,right_wrist_y,right_wrist_z,right_wrist_visibility,trunk_lateral_inclination,center_mass_x,center_mass_y,left_knee_angle,right_knee_angle,person_height,center_mass_velocity_x,center_mass_velocity_y,center_mass_acceleration_x,center_mass_acceleration_y,body_orientation,torso_leg_ratio,frame,timestamp
0.48590874671936035,0.1073232889175415,-0.44492149353027344,0.99993896484375,0.6047210693359375,0.37292909622192383,-0.1708258092403412,0.999647855758667,0.39614418148994446,0.37713944911956787,-0.1638786345720291,0.9998140931129456,0.5627347826957703,0.9010565280914307,-0.01455261092633009,0.9886150360107422,0.44628429412841797,0.9012238383293152,0.01521698385477066,0.9871557950973511,0.5559123158454895,1.2615509033203125,0.05002420395612717,0.3958977162837982,0.4491533637046814,1.268457293510437,0.18019932508468628,0.25164860486984253,0.5625585317611694,1.5572706460952759,0.42155924439430237,0.02915029227733612,0.45562657713890076,1.5687891244888306,0.5318757891654968,0.022449204698204994,0.6267354488372803,0.8955463171005249,-0.17216373980045319,0.885700523853302,0.38053953647613525,0.9059418439865112,-0.2148696631193161,0.9022321701049805,-179.5560110083287,0.5045095384120941,0.9011401832103729,138.63294884108834,154.68746473276315,1.7230895649950044,0.0,0.0,0.0,0.0,178.84357899998562,0.6214129406846104,0,1762115274.7035327
0.4855344295501709,0.10984066128730774,-0.5439914464950562,0.9999219179153442,0.6052577495574951,0.3730597198009491,-0.20220696926116943,0.9996333122253418,0.39592599868774414,0.37616729736328125,-0.16331441700458527,0.9998064041137695,0.562734842300415,0.9121955037117004,-0.03020581603050232,0.9877669811248779,0.4459417760372162,0.9076723456382751,0.03086937963962555,0.9862239360809326,0.5559285879135132,1.2768796682357788,0.027215316891670227,0.39193156361579895,0.44773754477500916,1.2766395807266235,0.19853505492210388,0.24853795766830444,0.5619858503341675,1.588450312614441,0.4430581033229828,0.030216043815016747,0.454414427280426,1.5951007604599,0.6138256788253784,0.023549573495984077,0.6267622709274292,0.8955477476119995,-0.19806574285030365,0.8714166283607483,0.3806629180908203,0.9064688086509705,-0.22033032774925232,0.8951012492179871,-179.59902255640117,0.5043383091688156,0.9099339246749878,135.75847354112938,151.91693390864782,1.8294146529389794,-0.002662073502974591,0.1367148840743555,-0.041386828555406485,2.1254843120729676,179.14949356635412,0.5883153918148261,1,1762115274.7678545
0.484174907207489,0.11657044291496277,-0.5310060381889343,0.999906599521637,0.6026209592819214,0.37290671467781067,-0.19889622926712036,0.9996371865272522,0.39564162492752075,0.37618473172187805,-0.1612005978822708,0.9997986555099487,0.5632159113883972,0.9117807745933533,-0.028875956311821938,0.9856348037719727,0.4464876651763916,0.9081226587295532,0.029522914439439774,0.9841855764389038,0.5601794719696045,1.2763417959213257,0.0013646089937537909,0.3848113417625427,0.4486261010169983,1.2766532897949219,0.15786634385585785,0.24442832171916962,0.5664888620376587,1.5890904664993286,0.4162299633026123,0.03171795979142189,0.4573208689689636,1.59963858127594,0.5633319616317749,0.02514548972249031,0.6252413988113403,0.8851999640464783,-0.22529080510139465,0.8689659237861633,0.3815109431743622,0.9064549803733826,-0.2304418385028839,0.891721785068512,-179.3878517974016,0.5048517882823944,0.9099517166614532,131.7393508500486,147.73640734250944,1.7962879493704467,0.00815679490675514,0.0002826319138299323,0.1718615001227221,-2.1672739360007767,179.09265897581747,0.7624198239205127,2,1762115274.8308055
0.4794394373893738,0.13555987179279327,-0.5260739922523499,0.9998915791511536,0.5925407409667969,0.3726066052913666,-0.17051318287849426,0.9996454119682312,0.3956083655357361,0.3763050138950348,-0.118369460105896,0.9997897148132324,0.5615218877792358,0.9025909304618835,-0.033563174307346344,0.9824768304824829,0.4465044438838959,0.8972806334495544,0.03415629640221596,0.9821239113807678,0.5611978769302368,1.2609668970108032,-0.07997260242700577,0.36888647079467773,0.4492107927799225,1.263057827949524,0.05489606410264969,0.23714713752269745,0.568406343460083,1.5855540037155151,0.29323408007621765,0.03135541081428528,0.4636663794517517,1.5968599319458008,0.3713027238845825,0.026357823982834816,0.6207782030105591,0.8607342839241028,-0.2431279867887497,0.8711713552474976,0.3829956650733948,0.8966654539108276,-0.1705458164215088,0.8946912288665771,-178.91647122607617,0.5040131658315659,0.899935781955719,123.63042010606293,139.76263762764353,1.6902660940786247,-0.0118762534861264,-0.14184187335822862,-0.2837004430046412,-2.012713408201315,178.92410632570045,0.917436368108875,3,1762115274.901419
0.4737836718559265,0.1546829342842102,-0.507858395576477,0.9998789429664612,0.5834394693374634,0.37206462025642395,-0.1700967252254486,0.999653697013855,0.3947394788265228,0.37638622522354126,-0.1291392743587494,0.9997888803482056,0.5578466057777405,0.8802247643470764,-0.032580114901065826,0.9757828116416931,0.4465617537498474,0.8778278827667236,0.03323506563901901,0.978103518486023,0.5624955296516418,1.2281548976898193,-0.07101631909608841,0.34776777029037476,0.4517689347267151,1.2316811084747314,0.019242851063609123,0.22847814857959747,0.5722781419754028,1.5598504543304443,0.2455751597881317,0.03035004250705242,0.4685904085636139,1.57919180393219,0.2523293197154999,0.027065394446253777,0.6142719388008118,0.8493418097496033,-0.26628559827804565,0.8697303533554077,0.38515204191207886,0.8822585940361023,-0.16820582747459412,0.8960776925086975,-178.51179287927445,0.502204179763794,0.8790263235569,130.03640077733726,143.86957668770643,1.6052120527030331,-0.022609719503073757,-0.2613381041351916,-0.13415286068944604,-1.4935307173865748,178.68804207268337,0.985842532615148,4,1762115274.9814281
0.4670897126197815,0.16410163044929504,-0.47831329703330994,0.9998602867126465,0.5747894048690796,0.3703545928001404,-0.1535009741783142,0.9996520280838013,0.3927293121814728,0.3753097951412201,-0.11873118579387665,0.9997771382331848,0.5524417757987976,0.8623853921890259,-0.03082568570971489,0.9758358001708984,0.4463520050048828,0.8635918498039246,0.03129315376281738,0.9788224697113037,0.5558575391769409,1.2007333040237427,-0.08848533034324646,0.3497092127799988,0.4467753767967224,1.1309977769851685,-0.05404134839773178,0.2429646998643875,0.5656296610832214,1.5159225463867188,0.2483820617198944,0.03283156827092171,0.4677125811576843,1.5363541841506958,0.18890632688999176,0.03284395858645439,0.6072076559066772,0.8297266364097595,-0.24629464745521545,0.876522958278656,0.38603511452674866,0.8615660667419434,-0.142554372549057,0.9003168940544128,-178.17270418068557,0.4993968904018402,0.8629886209964752,123.428565410686,131.32024190243322,1.5308011392074894,-0.033569754612246296,-0.19177992364954055,-0.13106083546032032,0.8317813909117525,178.44094275909868,1.0183560124033757,5,1762115275.0650537
0.46599501371383667,0.16798950731754303,-0.41423672437667847,0.9998297691345215,0.5744332075119019,0.36806419491767883,-0.12697093188762665,0.999640703201294,0.39243537187576294,0.37517815828323364,-0.08943086117506027,0.999750018119812,0.552281379699707,0.8535798788070679,-0.02964828535914421,0.9766533374786377,0.4463740289211273,0.8560044765472412,0.030032407492399216,0.9799662828445435,0.5546242594718933,1.1888760328292847,-0.06904755532741547,0.3585180342197418,0.4442344605922699,1.1230754852294922,-0.03644457086920738,0.2624889016151428,0.5615697503089905,1.4956525564193726,0.27084457874298096,0.036498066037893295,0.4671408534049988,1.522626280784607,0.2061646431684494,0.03953181952238083,0.6056292653083801,0.8251730799674988,-0.24280373752117157,0.8835383057594299,0.3867937922477722,0.8539926409721375,-0.141025573015213,0.9044495224952698,-178.11599339736202,0.4993277043104172,0.8547921776771545,125.36808662638948,134.65529669159892,1.492344817010829,-0.0011528323474377972,-0.1365754994696425,0.5401559160603985,0.9198589573030153,177.76155207350018,1.0647468719988387,6,1762115275.1250677
0.4618358016014099,0.17304974794387817,-0.41713738441467285,0.999800443649292,0.5676658153533936,0.3664068877696991,-0.13167977333068848,0.9996177554130554,0.39025017619132996,0.3751431703567505,-0.10378661006689072,0.999736487865448,0.5462877154350281,0.842703104019165,-0.028934985399246216,0.9754914045333862,0.4456515908241272,0.8437252640724182,0.0293593592941761,0.9798227548599243,0.5451730489730835,1.1622257232666016,-0.07785782963037491,0.3642754554748535,0.4410465359687805,1.0945173501968384,-0.017000775784254074,0.2747880816459656,0.5503645539283752,1.462633728981018,0.2426692247390747,0.04275372624397278,0.46317076683044434,1.4838738441467285,0.225955531001091,0.047604288905858994,0.5998466610908508,0.812145471572876,-0.23731207847595215,0.8850640654563904,0.3876511752605438,0.8434193730354309,-0.14470000565052032,0.9052409529685974,-177.93777626823717,0.49596965312957764,0.8432141840457916,124.43302906545827,137.40588834325484,1.4549694865384142,-0.05292070735345505,-0.18246166592146446,-0.815828114572917,-0.7231362047798495,177.1809242005942,1.24546613022424,7,1762115275.188522
0.45814505219459534,0.1795484721660614,-0.43479666113853455,0.999802827835083,0.5604006052017212,0.35846325755119324,-0.14950236678123474,0.9996112585067749,0.38883334398269653,0.37456655502319336,-0.10525651276111603,0.9997279644012451,0.5383676290512085,0.821031928062439,-0.028687477111816406,0.9750053882598877,0.4445416033267975,0.8232724666595459,0.029071873053908348,0.9800887107849121,0.5321950912475586,1.1206722259521484,-0.1002434715628624,0.3909154236316681,0.4408164620399475,1.085024356842041,-0.016624534502625465,0.3120773434638977,0.5320349335670471,1.4194194078445435,0.1503455936908722,0.06526032835245132,0.45865923166275024,1.454203486442566,0.1418694704771042,0.07463008910417557,0.5941543579101562,0.788692831993103,-0.24466070532798767,0.8920321464538574,0.38909393548965454,0.8286367058753967,-0.13308867812156677,0.9099313616752625,-177.88365211731704,0.491454616189003,0.8221521973609924,126.57073428573524,146.70189620420422,1.385476041301386,-0.047476170957398534,-0.22146939077373565,0.05724997250854366,-0.4101710435861655,174.63792927172815,1.9042138613772268,8,1762115275.2836232
0.4549993574619293,0.18055087327957153,-0.4417135715484619,0.9997843503952026,0.5554256439208984,0.34988439083099365,-0.14687511324882507,0.9995843172073364,0.38733524084091187,0.3745802044868469,-0.12558111548423767,0.9997090697288513,0.5360573530197144,0.8067126870155334,-0.02007417567074299,0.9748373627662659,0.44427505135536194,0.8150044083595276,0.020327378064393997,0.9804292917251587,0.532616138458252,1.0521056652069092,-0.08207458257675171,0.40156519412994385,0.4405786097049713,1.0631228685379028,-0.024109143763780594,0.33247122168540955,0.534168541431427,1.395209550857544,0.22514291107654572,0.07187601923942566,0.4581173062324524,1.4245747327804565,0.19194558262825012,0.08446244150400162,0.5883418917655945,0.7726609706878662,-0.16984757781028748,0.8947951793670654,0.3907862603664398,0.8235684633255005,-0.13601179420948029,0.9136674404144287,-177.60219934787838,0.49016620218753815,0.8108585476875305,123.97177152771673,138.85994237972932,1.3913331657008758,-0.01857216992641929,-0.16279517343533592,0.41664404305636726,0.8457743655917193,171.64190912369799,1.9678062020247085,9,1762115275.3529966
0.4517711102962494,0.1797010451555252,-0.4694737493991852,0.9997842907905579,0.551001787185669,0.3380582928657532,-0.1487692892551422,0.9995742440223694,0.3868645131587982,0.37342843413352966,-0.1475837379693985,0.9996947050094604,0.5344215631484985,0.7880625128746033,-0.013230877928435802,0.9751966595649719,0.4444804787635803,0.796845555305481,0.013548391871154308,0.9809519648551941,0.532845139503479,1.0300670862197876,-0.07427392899990082,0.42988723516464233,0.4406166076660156,1.0499223470687866,-0.014314966276288033,0.3713989555835724,0.5288780331611633,1.3575315475463867,0.27758997678756714,0.0921066477894783,0.4573354721069336,1.3941795825958252,0.22993461787700653,0.10630475729703903,0.5826741456985474,0.7594814896583557,-0.18683427572250366,0.8951576352119446,0.39228978753089905,0.8054206967353821,-0.16038380563259125,0.915330708026886,-177.310064456137,0.48945102095603943,0.7924540340900421,118.787504400086,138.25135628909993,1.398415049308938,-0.009740035717184837,-0.2506506209919636,0.12028461999295044,-1.1965011936311511,167.83922128061369,3.2175411553484667,10,1762115275.4264235
0.45028096437454224,0.1788974106311798,-0.4643341600894928,0.9997492432594299,0.5507197976112366,0.33453717827796936,-0.1356535404920578,0.9995284676551819,0.3869101405143738,0.3724185824394226,-0.1422058343887329,0.999670684337616,0.5301026105880737,0.776240348815918,-0.009171620011329651,0.975053608417511,0.44440311193466187,0.7874608635902405,0.009424990974366665,0.9813909530639648,0.531405508518219,1.0376957654953003,-0.07878734916448593,0.44072839617729187,0.4426519274711609,1.0559536218643188,-0.037271589040756226,0.395876944065094,0.5326701402664185,1.3702375888824463,0.27148449420928955,0.09689261764287949,0.4573763906955719,1.4087252616882324,0.1941041797399521,0.11514445394277573,0.5791232585906982,0.7442899942398071,-0.18701684474945068,0.8956888318061829,0.39238402247428894,0.796467661857605,-0.15607142448425293,0.9184073209762573,-177.53541320395698,0.4872528612613678,0.7818506062030792,118.60291330689441,136.81591156521947,1.3976779569927231,-0.02502565063027263,-0.12071810907353724,-0.17402396168535167,1.4792581524746842,166.97909292997252,2.3060199730091053,11,1762115275.5142598
0.448853075504303,0.17711178958415985,-0.4659525454044342,0.9997616410255432,0.549428403377533,0.32438039779663086,-0.16133743524551392,0.9995399713516235,0.38674813508987427,0.3703171908855438,-0.14880666136741638,0.9996629357337952,0.5310434699058533,0.7569359540939331,-0.01017381064593792,0.9757129549980164,0.44453245401382446,0.7721303105354309,0.01046143937855959,0.9820758104324341,0.5328212380409241,1.0038632154464722,-0.0764145627617836,0.46786755323410034,0.44529372453689575,1.021823525428772,-0.024382300674915314,0.43338412046432495,0.5299307703971863,1.2448203563690186,0.2591765224933624,0.11930051445960999,0.4573872685432434,1.3411271572113037,0.20684683322906494,0.1395353376865387,0.5771636366844177,0.7264127135276794,-0.2398291528224945,0.8998037576675415,0.3958815932273865,0.7873089909553528,-0.1471633017063141,0.9206127524375916,-177.29646743017733,0.48778796195983887,0.764533132314682,110.65779780856359,136.12383009750883,1.317462139067713,0.006965090369671541,-0.22541134958663323,0.41640461822236724,-1.362730198915814,164.23166245639501,4.280180185392815,12,1762115275.591086
0.44815367460250854,0.17618438601493835,-0.4758184552192688,0.9997624158859253,0.5483862161636353,0.3183911442756653,-0.18004070222377777,0.99953293800354,0.3867758810520172,0.36132290959358215,-0.15561442077159882,0.9996520280838013,0.5316519141197205,0.7435312867164612,-0.012131301686167717,0.9757358431816101,0.44700974225997925,0.7571081519126892,0.012434775941073895,0.9822694659233093,0.531669020652771,0.9708200097084045,-0.12026230245828629,0.47910448908805847,0.4492051601409912,0.987764298915863,-0.05546444654464722,0.4545104503631592,0.5255173444747925,1.2492671012878418,0.2599310874938965,0.12693357467651367,0.45992937684059143,1.2994472980499268,0.21691429615020752,0.15555380284786224,0.5761545896530151,0.7079583406448364,-0.2675529420375824,0.8982326984405518,0.3992760479450226,0.7663283348083496,-0.16822662949562073,0.9227322340011597,-176.96682247343134,0.48933082818984985,0.7503197193145752,100.77489419176382,122.44878029545623,1.3107671042906834,0.022100886255357662,-0.2036009460220966,0.21681367881872524,0.31242452455507996,165.12298670720594,9.509055381288078,13,1762115275.660896
0.4488033652305603,0.17421291768550873,-0.5164742469787598,0.9997715950012207,0.548018753528595,0.311767578125,-0.21199917793273926,0.9995586276054382,0.38699212670326233,0.3521726727485657,-0.1984175145626068,0.9996509552001953,0.532257080078125,0.7234790325164795,-0.01084761880338192,0.9770449995994568,0.44959038496017456,0.7388507127761841,0.011213763616979122,0.9830682277679443,0.5318660736083984,0.9494245648384094,-0.10238783061504364,0.49548396468162537,0.457394540309906,0.9619895219802856,-0.04015863686800003,0.47801196575164795,0.5259397625923157,1.1666862964630127,0.3481921851634979,0.13868772983551025,0.4695485234260559,1.2066292762756348,0.3030795454978943,0.17008903622627258,0.5759297013282776,0.6937770247459412,-0.32788246870040894,0.9007955193519592,0.40512052178382874,0.7475921511650085,-0.22720234096050262,0.9243841767311096,-176.64265802698904,0.4909237325191498,0.7311648726463318,93.68836375418518,112.55094760000415,1.3177971213762794,0.01953796687293102,-0.2349461626642024,-0.031435807581646755,-0.3844686671467993,165.91405765760476,7.518306590476485,14,1762115275.7424247
0.4494369924068451,0.1732553243637085,-0.5082864761352539,0.9997854828834534,0.5476385951042175,0.30837923288345337,-0.20726363360881805,0.9995880722999573,0.39089998602867126,0.3435102701187134,-0.2159680426120758,0.9996657967567444,0.5329463481903076,0.7052684426307678,-0.007045022211968899,0.9789465665817261,0.4521273672580719,0.7208274006843567,0.007354306522756815,0.9843431115150452,0.5334564447402954,0.9352861046791077,-0.06359727680683136,0.5203967094421387,0.4632287621498108,0.9448214769363403,-0.03291750326752663,0.5023860931396484,0.5258905291557312,1.1085816621780396,0.3746972680091858,0.15509556233882904,0.4741787314414978,1.1086328029632568,0.3746626079082489,0.1762775182723999,0.575919508934021,0.6839008331298828,-0.3059644103050232,0.9041217565536499,0.4085613787174225,0.7304818630218506,-0.21770617365837097,0.928799569606781,-176.56026737439575,0.49253685772418976,0.7130479216575623,97.7572574867231,101.75663800575265,1.287273475825769,0.023695650270544766,-0.2661249934333794,0.06107338191585945,-0.4579946227624713,167.36664861668504,13.74317667129756,15,1762115275.8105016
0.44957494735717773,0.17260628938674927,-0.4922869801521301,0.999797523021698,0.5471131801605225,0.3086254596710205,-0.19890038669109344,0.9996140599250793,0.39471152424812317,0.3404589891433716,-0.1956464946269989,0.9996644854545593,0.532733678817749,0.702906608581543,-0.007398366928100586,0.9802325963973999,0.4523509442806244,0.715088963508606,0.007721614092588425,0.9850966334342957,0.5339922904968262,0.9414317011833191,-0.0493537001311779,0.5319839715957642,0.4614855647087097,0.9430903196334839,-0.016974782571196556,0.5135879516601562,0.5258050560951233,1.1597113609313965,0.34096387028694153,0.16088815033435822,0.4726642966270447,1.178445816040039,0.3169017732143402,0.1837916225194931,0.5755919218063354,0.6880934834480286,-0.27926117181777954,0.9111894965171814,0.41123247146606445,0.7242454290390015,-0.21524281799793243,0.9320794343948364,-176.7798612402117,0.4925423115491867,0.7089977860450745,109.22993223759786,119.03263884311863,1.2922171236265025,8.6089774228391e-05,-0.06393224217288708,-0.3726818762788961,3.1916550891114337,168.20174181266205,14.451296000538726,16,1762115275.873852
0.4515407085418701,0.17085900902748108,-0.43620485067367554,0.9998093247413635,0.5468432903289795,0.30653876066207886,-0.15858837962150574,0.9996395707130432,0.39693349599838257,0.3381786048412323,-0.17446939647197723,0.9996734857559204,0.5340219736099243,0.6986755132675171,-0.004029308445751667,0.9820065498352051,0.45578235387802124,0.711567759513855,0.0042624706402421,0.9863616824150085,0.5358816981315613,0.9369204044342041,-0.022562501952052116,0.5565165877342224,0.4663122296333313,0.9348053932189941,-0.00045855468488298357,0.5353328585624695,0.5249780416488647,1.088996410369873,0.45820531249046326,0.17155635356903076,0.4764147400856018,1.1046578884124756,0.4035448133945465,0.1933528035879135,0.5751728415489197,0.6745719313621521,-0.18663236498832703,0.9151307940483093,0.41507792472839355,0.7141227126121521,-0.1655019223690033,0.9354676604270935,-176.55921133585585,0.4949021637439728,0.705121636390686,103.09151491105631,111.62699594408095,1.269512053771098,0.02938739018256638,-0.048269939342476004,0.3648909664168525,0.19504365801033968,168.0821078087114,57.30905640680111,17,1762115275.9541535
0.4535568654537201,0.17175650596618652,-0.4224426746368408,0.9998236298561096,0.5465160608291626,0.30724895000457764,-0.12720754742622375,0.9996659159660339,0.40072521567344666,0.3363456130027771,-0.16762511432170868,0.9996916055679321,0.536322295665741,0.6962656378746033,-0.00039983977330848575,0.9837014079093933,0.45814329385757446,0.7084453105926514,0.0006263979012146592,0.9875969290733337,0.5379809737205505,0.9224817752838135,-0.03140905499458313,0.5889133214950562,0.470233291387558,0.927195131778717,-0.016893422231078148,0.5675799250602722,0.5304733514785767,1.0142959356307983,0.4748111665248871,0.18965211510658264,0.4813639223575592,1.002908706665039,0.4149017333984375,0.2062411606311798,0.57585608959198,0.6698035001754761,-0.12269040197134018,0.9177077412605286,0.41592931747436523,0.702046275138855,-0.18357351422309875,0.9393486976623535,-176.44957099263945,0.4972327947616577,0.7023554742336273,92.46833330639724,95.4368164738522,1.2063417612879828,0.039418583082314135,-0.04678483723068362,0.16966023696286367,0.02511792752057244,168.7133115849283,13.027365328966999,18,1762115276.0132787
0.4585111141204834,0.17143094539642334,-0.38385599851608276,0.9998354315757751,0.5469073057174683,0.3069221079349518,-0.11684675514698029,0.9996888637542725,0.4051314890384674,0.3358674943447113,-0.14750699698925018,0.9996954202651978,0.5377955436706543,0.6938456296920776,-0.0014497964875772595,0.9852390885353088,0.46006840467453003,0.704509973526001,0.0017190405633300543,0.9886979460716248,0.538821816444397,0.9101670980453491,-0.054651886224746704,0.6139533519744873,0.4708099365234375,0.9152616858482361,-0.016636183485388756,0.590913712978363,0.5310102701187134,0.9554363489151001,0.47070035338401794,0.19198265671730042,0.4849734306335449,0.9351992011070251,0.4247745871543884,0.2090180516242981,0.5761640071868896,0.6584143042564392,-0.16623803973197937,0.9165707230567932,0.41920962929725647,0.6900660395622253,-0.19875246286392212,0.9402390718460083,-176.5292567049391,0.49893197417259216,0.6991778016090393,81.10507609738629,87.70609176945251,1.137056228001827,0.02062771345875543,-0.03857633863965268,-0.22811756765722366,0.09964960484618073,168.46089980277316,7.212075884788539,19,1762115276.0956523
0.46361637115478516,0.171217679977417,-0.37689438462257385,0.9998449087142944,0.5474725365638733,0.30736324191093445,-0.1108582466840744,0.9997023344039917,0.409625381231308,0.3361630439758301,-0.14725741744041443,0.9997012615203857,0.5393613576889038,0.6919920444488525,0.0011512262281030416,0.9866379499435425,0.46241021156311035,0.7018691897392273,-0.0010429000249132514,0.9897234439849854,0.5405706763267517,0.8913220763206482,-0.03552911803126335,0.6373748183250427,0.47017902135849,0.8977457880973816,0.027178019285202026,0.6139135360717773,0.5310331583023071,0.9158099889755249,0.49841809272766113,0.2072373330593109,0.48464155197143555,0.9485230445861816,0.4473114013671875,0.23313874006271362,0.5763713717460632,0.6559200882911682,-0.11424563080072403,0.9088816046714783,0.42227864265441895,0.6847199201583862,-0.18419906497001648,0.9399185180664062,-176.59273013571996,0.5008857846260071,0.6969306170940399,82.19435271240337,105.14823869610882,1.141529329239243,0.025592669048481592,-0.029435531723526254,0.06503520596185809,0.1197340539516581,168.19919114929564,9.067086932372677,20,1762115276.171995
0.4659467339515686,0.17158325016498566,-0.3539201319217682,0.9998561143875122,0.5485055446624756,0.3080596923828125,-0.1058955192565918,0.9997186064720154,0.41309013962745667,0.33646419644355774,-0.13513363897800446,0.9997147917747498,0.5398475527763367,0.6918557286262512,0.00267131719738245,0.9879102110862732,0.4643210768699646,0.7003947496414185,-0.002618167083710432,0.9906766414642334,0.54147869348526,0.885642945766449,-0.008022424764931202,0.6583922505378723,0.4714563488960266,0.8852048516273499,0.06587941944599152,0.6338522434234619,0.5311610102653503,0.9241094589233398,0.48233360052108765,0.2265992909669876,0.4851072430610657,0.9546430706977844,0.4272720217704773,0.2653135061264038,0.5766295194625854,0.6562415361404419,-0.10697801411151886,0.9080195426940918,0.4233107566833496,0.6819183826446533,-0.16626784205436707,0.9412513375282288,-176.74129633309235,0.5020843148231506,0.6961252391338348,91.31644623853603,121.25570493599317,1.1159384786296194,0.017477679192278807,-0.01174449976358023,-0.11833760191719317,0.25798113548844825,168.15348543752606,12.764693465203695,21,1762115276.2405698
0.4700731337070465,0.17416159808635712,-0.34807246923446655,0.9998672604560852,0.5498731136322021,0.30850690603256226,-0.10524100065231323,0.9997339844703674,0.4179813265800476,0.3360552191734314,-0.12531273066997528,0.9997276067733765,0.5401686429977417,0.6883389353752136,0.00226760795339942,0.9890351891517639,0.46624070405960083,0.6942644119262695,-0.0022086803801357746,0.9915090203285217,0.5418088436126709,0.8820144534111023,0.008975671604275703,0.677492618560791,0.4713708758354187,0.8760791420936584,0.07454383373260498,0.6517300605773926,0.5315181016921997,0.9383988976478577,0.46083372831344604,0.24991098046302795,0.48574933409690857,0.9626293778419495,0.40897995233535767,0.29831254482269287,0.5767360329627991,0.6534050703048706,-0.08596652746200562,0.9085182547569275,0.4249897599220276,0.6730341911315918,-0.13287629187107086,0.942409336566925,-177.00961518044917,0.5032046735286713,0.6913016736507416,99.08261455534863,127.42101851359186,1.1032981390741303,0.01408036591797109,-0.060621269506436225,-0.04269651657502323,-0.6142700542930336,168.20221309829478,9.427281412746934,22,1762115276.3201387
0.4739806652069092,0.18142904341220856,-0.3425068259239197,0.9998780488967896,0.5524601936340332,0.31047260761260986,-0.11500263214111328,0.9997519850730896,0.42647624015808105,0.3339652121067047,-0.11078663915395737,0.9997414946556091,0.5393038988113403,0.6828493475914001,0.0005282647907733917,0.990050196647644,0.46743854880332947,0.6818199753761292,-0.000526061630807817,0.9922441244125366,0.5406445264816284,0.8665066361427307,0.03873847797513008,0.698846697807312,0.47082576155662537,0.8609681129455566,0.08851520717144012,0.672508180141449,0.5312308669090271,0.9471173882484436,0.4576145112514496,0.29359307885169983,0.4860003590583801,0.9531254172325134,0.406829297542572,0.33788201212882996,0.5769674777984619,0.6519008874893188,-0.12170074135065079,0.910886824131012,0.4276878237724304,0.6648828983306885,-0.11868490278720856,0.9430854916572571,-177.7890769895922,0.5033712238073349,0.6823346614837646,112.62944206924573,132.57201088636717,1.091921301414092,0.0020026101838739084,-0.10781987294525064,-0.1452236335208578,-0.5675187377025596,169.43720016833785,4.824971943891847,23,1762115276.4033053
0.4818872809410095,0.1923781782388687,-0.3283795416355133,0.9998884797096252,0.5550809502601624,0.3130887448787689,-0.10262461751699448,0.9997653961181641,0.43343672156333923,0.3333263099193573,-0.10933560132980347,0.9997573494911194,0.5379249453544617,0.6773820519447327,0.00026387014077045023,0.990974485874176,0.46947890520095825,0.6743771433830261,-0.00024352918262593448,0.9929419159889221,0.5394859910011292,0.8531943559646606,0.01700296439230442,0.7176862955093384,0.4703766405582428,0.854443371295929,0.07978454232215881,0.6926590800285339,0.526974081993103,0.9262911677360535,0.4335974156856537,0.3260895907878876,0.4855082929134369,0.9584839940071106,0.3839649260044098,0.3793328106403351,0.5772097706794739,0.6438115239143372,-0.10680210590362549,0.9094377160072327,0.42999014258384705,0.6574487686157227,-0.12736330926418304,0.9450678825378418,-178.46622410296817,0.50370192527771,0.6758795976638794,105.3674551091126,132.8012576835485,1.0519092797502607,0.004346523251441464,-0.08484112559538731,0.030806856213809436,0.30201758562459624,170.55439352363058,7.2036718438970615,24,1762115276.4793894
0.48700690269470215,0.200867161154747,-0.30594751238822937,0.9998965263366699,0.556873619556427,0.31385716795921326,-0.10229101032018661,0.9997764825820923,0.4416279196739197,0.33186468482017517,-0.09361147880554199,0.9997653961181641,0.5376594066619873,0.6692575812339783,-0.0008715411531738937,0.9917570948600769,0.4728319048881531,0.6668175458908081,0.0008621546439826488,0.9934950470924377,0.5393663644790649,0.8381730914115906,0.013228516094386578,0.7277451157569885,0.4702081084251404,0.8437665104866028,0.07438690960407257,0.7032318711280823,0.5265886783599854,0.9362658262252808,0.41150206327438354,0.340803325176239,0.485128253698349,0.9541817307472229,0.37883779406547546,0.4001883268356323,0.5773389339447021,0.6395143270492554,-0.08323144912719727,0.9069758653640747,0.4341813027858734,0.6490828394889832,-0.05018555372953415,0.9453821778297424,-179.0050104505038,0.5052456557750702,0.6680375635623932,108.5783556270859,132.3875037482529,1.0227354601074974,0.025054560017954502,-0.12727526883384732,0.33608894227833624,-0.6887010332415452,171.11915824827017,5.591047186283828,25,1762115276.5410042
0.4886247515678406,0.20345452427864075,-0.3228856027126312,0.9999052882194519,0.5577728152275085,0.3155084550380707,-0.09801764786243439,0.9997900128364563,0.4437800347805023,0.33023208379745483,-0.09831462800502777,0.9997804164886475,0.5363770723342896,0.6636592745780945,-0.0006823231233283877,0.9925225973129272,0.47385305166244507,0.6606234908103943,0.0006958351004868746,0.9940863847732544,0.5376662015914917,0.8312943577766418,0.011806981638073921,0.7430110573768616,0.4706042408943176,0.8406713008880615,0.0713195651769638,0.7238465547561646,0.5214332342147827,0.9032705426216125,0.4108925759792328,0.36025604605674744,0.4857195019721985,0.9563801884651184,0.3554634749889374,0.4407993257045746,0.5774478316307068,0.6398115754127502,-0.09840844571590424,0.906416654586792,0.43627047538757324,0.6455175876617432,-0.08787497878074646,0.9457445740699768,-179.26733509179888,0.5051150619983673,0.6621413826942444,104.45373653949892,133.43485425139863,1.0130962426831247,-0.0018301463782981894,-0.08262931308116127,-0.3767633442032665,0.6256701987594568,172.64026273240282,7.749598263227879,26,1762115276.6123612
0.4914836287498474,0.20755498111248016,-0.3183014988899231,0.9999113082885742,0.5588539838790894,0.31823715567588806,-0.10344264656305313,0.9998003840446472,0.4470742642879486,0.32949909567832947,-0.09035281836986542,0.9997862577438354,0.536363959312439,0.654047966003418,-0.0031215506605803967,0.9931974411010742,0.4746646285057068,0.6533298492431641,0.003097009379416704,0.9945853352546692,0.5377222299575806,0.8198400139808655,-0.02143080160021782,0.7529969811439514,0.4705645442008972,0.8299255967140198,0.06877275556325912,0.7374998927116394,0.5222221612930298,0.8753190040588379,0.4121794104576111,0.3680737018585205,0.4848572313785553,0.9449055790901184,0.35655051469802856,0.4683064818382263,0.5760484933853149,0.6306799054145813,-0.09820881485939026,0.905255138874054,0.4387546479701996,0.6391205191612244,-0.07637764513492584,0.9455052018165588,-179.5569986355992,0.5055142939090729,0.653688907623291,90.97206361895844,132.0333917522103,0.9937163978323152,0.00707253306076592,-0.14973855491402724,0.15771408290210107,-1.1888637125901524,174.24679604206923,4.217312491042212,27,1762115276.6688094
0.49411383271217346,0.20805548131465912,-0.30675071477890015,0.9999192357063293,0.5600923299789429,0.31958600878715515,-0.0972205102443695,0.9998136162757874,0.4498754143714905,0.32832857966423035,-0.08828505873680115,0.9998016953468323,0.5365726351737976,0.6412188410758972,-0.0030088613275438547,0.993816077709198,0.4767596125602722,0.643100917339325,0.002997011411935091,0.9950772523880005,0.5382900834083557,0.8048052191734314,-0.02453203685581684,0.7648224234580994,0.4729025959968567,0.8142549991607666,0.06328929960727692,0.7570520043373108,0.5241075754165649,0.8464205265045166,0.370334267616272,0.3822340965270996,0.4861885905265808,0.9409343004226685,0.30356213450431824,0.508557915687561,0.5750226974487305,0.6227256655693054,-0.10169120132923126,0.9062597751617432,0.4422454833984375,0.6315028667449951,-0.09645695984363556,0.9465944766998291,-179.69709540838585,0.5066661238670349,0.6421598792076111,88.50060065709965,137.02900411020278,0.9405038451675671,0.012878226470721519,-0.12890222024369632,0.06491152104193487,0.23296410624623842,175.4647088855235,3.7445219528462674,28,1762115276.7582495
0.49815887212753296,0.20723550021648407,-0.2959102392196655,0.999925971031189,0.5620541572570801,0.319566935300827,-0.09608080983161926,0.9998209476470947,0.45135292410850525,0.32324331998825073,-0.09400620311498642,0.9998171925544739,0.538155198097229,0.6294525265693665,-6.297830259427428e-05,0.9943379759788513,0.4794933795928955,0.6327728033065796,3.385532909305766e-05,0.9955148100852966,0.5392016172409058,0.7865622639656067,0.04809730127453804,0.7760651707649231,0.47636789083480835,0.797947347164154,0.06609325855970383,0.7755520343780518,0.5280447602272034,0.8523474931716919,0.3811313509941101,0.4168905019760132,0.4868629574775696,0.9217191338539124,0.3197992146015167,0.5465382933616638,0.5749560594558716,0.6115743517875671,-0.09562432020902634,0.9041256904602051,0.44522935152053833,0.6175000071525574,-0.09040658175945282,0.947062611579895,-179.60766850865866,0.5088242888450623,0.631112664937973,118.18494983193234,137.69378408800188,0.938089963278597,0.03439092128308682,-0.17604023798578317,0.3428103974494909,-0.7511565955864192,178.0979079207347,6.389812974426451,29,1762115276.8210034
0.5018319487571716,0.207254558801651,-0.2981192469596863,0.999931812286377,0.5626862049102783,0.31887075304985046,-0.09913454204797745,0.999832034111023,0.4525684416294098,0.31864506006240845,-0.09565899521112442,0.9998285174369812,0.5384276509284973,0.6139096021652222,-0.000326585111906752,0.994814395904541,0.48036473989486694,0.616204559803009,0.0002796813496388495,0.9958890676498413,0.539208173751831,0.7738515138626099,0.024891985580325127,0.7883113026618958,0.47747617959976196,0.7785020470619202,0.06822801381349564,0.7907427549362183,0.5287607312202454,0.8443422913551331,0.3539522886276245,0.44441893696784973,0.4884852468967438,0.8890101909637451,0.3084264099597931,0.5787551403045654,0.574289858341217,0.5983196496963501,-0.10951100289821625,0.9027101993560791,0.44700178503990173,0.6043074131011963,-0.09761519730091095,0.945329487323761,-179.65795482070533,0.5093961954116821,0.6150570809841156,111.03085715857607,137.301716406553,0.9115439554461257,0.008934757183190924,-0.25083248284750104,-0.3976954599285211,-1.1684610494591012,-179.88256901380728,6.276772244366877,30,1762115276.8850126
0.5034562349319458,0.2072514444589615,-0.2925383448600769,0.9999375343322754,0.5625596642494202,0.3158207833766937,-0.08980029821395874,0.9998413324356079,0.4538251459598541,0.31543591618537903,-0.097731813788414,0.9998407959938049,0.5385860800743103,0.6113333702087402,0.0018952678656205535,0.9952580332756042,0.4803180694580078,0.6171449422836304,-0.0019219135865569115,0.996245265007019,0.5392609238624573,0.7667955756187439,0.018934547901153564,0.7997705936431885,0.4782279133796692,0.7789302468299866,0.06740236282348633,0.8041693568229675,0.5298168063163757,0.8348236680030823,0.36123940348625183,0.4671088755130768,0.4890427589416504,0.886349081993103,0.3037205934524536,0.6070348620414734,0.573923647403717,0.5922431945800781,-0.09002164751291275,0.9033775329589844,0.4478756785392761,0.6021877527236938,-0.11489828675985336,0.9472142457962036,-179.75830303018867,0.5094520747661591,0.6142391562461853,107.48100697025205,137.5369763155832,0.9041737356464881,0.0007008465478728653,-0.010258524536731086,-0.10327083944104838,3.0173116666876854,-179.79720171666028,1.8352793079645127,31,1762115276.9647439
0.5053340196609497,0.20716995000839233,-0.32007110118865967,0.9999431371688843,0.5626245141029358,0.31309986114501953,-0.10887700319290161,0.999851644039154,0.4551481604576111,0.31219369173049927,-0.12616945803165436,0.9998535513877869,0.5387532114982605,0.5991425514221191,0.0016606159042567015,0.9956832528114319,0.48147472739219666,0.6049570441246033,-0.0016716796671971679,0.9965956211090088,0.5391894578933716,0.7524524927139282,0.035836149007081985,0.8119794726371765,0.4800795018672943,0.7614908218383789,0.06036811321973801,0.8201608061790466,0.5303093194961548,0.8239033222198486,0.36431604623794556,0.4958888292312622,0.48966115713119507,0.8973857164382935,0.2676598131656647,0.6407550573348999,0.5736488699913025,0.5851889252662659,-0.13606692850589752,0.9064241051673889,0.447845458984375,0.5950878858566284,-0.179630845785141,0.9484918117523193,-179.75695582017215,0.5101139694452286,0.6020497977733612,114.8240992867203,144.77066431423086,0.9119329675810165,0.010285604460746174,-0.18941823200326036,0.14894367920046006,-2.784077202273697,-179.5169313901333,3.4899864469251645,32,1762115277.0290954
0.5065522789955139,0.20669867098331451,-0.2929700016975403,0.9999480247497559,0.5624996423721313,0.30965563654899597,-0.10574944317340851,0.9998600482940674,0.45696401596069336,0.30999040603637695,-0.12257151305675507,0.9998647570610046,0.5387428402900696,0.5941504836082458,0.002205741824582219,0.9960548877716064,0.48227548599243164,0.5981379151344299,-0.00224555772729218,0.9969052076339722,0.5388944149017334,0.7411295771598816,0.06711982190608978,0.82616126537323,0.4807630181312561,0.7524263858795166,0.06099572032690048,0.8356090188026428,0.5312553644180298,0.8219140768051147,0.3610547184944153,0.5363706350326538,0.49032917618751526,0.8878425359725952,0.26646023988723755,0.6725547909736633,0.5736321806907654,0.5767768025398254,-0.13095025718212128,0.9108656048774719,0.44788646697998047,0.5836615562438965,-0.17402420938014984,0.9503141641616821,-179.84444794861315,0.5105091631412506,0.5961441993713379,129.1791415923023,145.5715406084868,0.8878474268397067,0.006192860638802647,-0.09254334838991694,-0.06413511241384692,1.518072427917001,179.81825270711653,0.8059000813609384,33,1762115277.0929098
0.507468044757843,0.2063542902469635,-0.25574225187301636,0.9999521374702454,0.5624129176139832,0.30731117725372314,-0.09084140509366989,0.9998667240142822,0.4585398733615875,0.3058372735977173,-0.09732863306999207,0.9998728036880493,0.5381807088851929,0.5957376956939697,-8.480336691718549e-05,0.9963939189910889,0.48238611221313477,0.5933279395103455,-4.376315337140113e-05,0.9971688389778137,0.5366429090499878,0.7413169145584106,0.0485144704580307,0.8404004573822021,0.4815898537635803,0.7427313327789307,0.07422271370887756,0.8483673334121704,0.5311193466186523,0.8225141763687134,0.3278694152832031,0.574070394039154,0.4923899173736572,0.8570628762245178,0.28815823793411255,0.7006969451904297,0.5725699067115784,0.574597954750061,-0.12750013172626495,0.9131522178649902,0.4489801526069641,0.5732038617134094,-0.16097775101661682,0.9514163732528687,179.9616013512443,0.5102834105491638,0.5945328176021576,124.67101481120764,144.44894265978007,0.8479848007216837,-0.0027212257766001165,-0.01942362462244115,-0.10745055684281615,0.8813864560963182,-179.18705769585,0.07312111225767845,34,1762115277.1758697
0.5079264640808105,0.20610463619232178,-0.24612459540367126,0.9999550580978394,0.5623464584350586,0.3064633905887604,-0.09009845554828644,0.9998714923858643,0.460116446018219,0.3035638928413391,-0.08755731582641602,0.9998778700828552,0.5380164384841919,0.5966768860816956,-0.002005445072427392,0.9966979622840881,0.4826393723487854,0.5906288623809814,0.0018227879190817475,0.9973986148834229,0.5364669561386108,0.7324674129486084,0.05254798382520676,0.8530436158180237,0.48223385214805603,0.7302807569503784,0.08930644392967224,0.859501302242279,0.5310637950897217,0.8199363946914673,0.34010717272758484,0.6091721653938293,0.49237674474716187,0.8363529443740845,0.3174577057361603,0.7253978848457336,0.5722594261169434,0.5687064528465271,-0.12848693132400513,0.9146062135696411,0.45059314370155334,0.5681119561195374,-0.13891832530498505,0.9515600204467773,179.82064375218792,0.5103279054164886,0.5936528742313385,128.80913414848675,146.91506604485642,0.8470338213521118,0.000669362648398551,-0.01323750941501381,0.05100663029778563,0.09306139578556483,-178.3753845395334,0.3811041601918011,35,1762115277.2423432
0.5088372826576233,0.20595239102840424,-0.24221539497375488,0.9999582767486572,0.5623098015785217,0.30528828501701355,-0.08774814009666443,0.9998785257339478,0.46073704957962036,0.3021591901779175,-0.09007314592599869,0.9998829960823059,0.5378237962722778,0.5914838314056396,-0.002388688502833247,0.9969803094863892,0.4827662408351898,0.5853590369224548,0.0021955594420433044,0.9976084232330322,0.53519606590271,0.73365718126297,0.04868403822183609,0.8654592037200928,0.4827912449836731,0.730126678943634,0.08564479649066925,0.8704043626785278,0.5309663414955139,0.8247233033180237,0.33174699544906616,0.6429048776626587,0.49305152893066406,0.8324201703071594,0.3170395791530609,0.748654305934906,0.5722830891609192,0.5640578269958496,-0.12701040506362915,0.9190678596496582,0.45141711831092834,0.5686929821968079,-0.14114834368228912,0.9525229930877686,179.75278303213503,0.5102950185537338,0.5884214341640472,127.59936699998958,143.74410147662104,0.8418493380373165,-0.0004426976353086166,-0.07042161985211051,-0.014969699651439444,-0.7697684834354667,-178.2354790921198,0.40725898094624663,36,1762115277.3166306
0.5086186528205872,0.2060355693101883,-0.2461182326078415,0.9999606013298035,0.5618554353713989,0.3052772879600525,-0.08456357568502426,0.9998828768730164,0.4616081118583679,0.3022800087928772,-0.09289740025997162,0.9998871088027954,0.537108302116394,0.5896601676940918,-0.0020817616023123264,0.9972307682037354,0.48274368047714233,0.5833948254585266,0.0018819483229890466,0.9977917075157166,0.5351776480674744,0.7253797650337219,0.06899919360876083,0.876481294631958,0.4826306700706482,0.7233954668045044,0.09538885205984116,0.8801333904266357,0.5302658081054688,0.8183233737945557,0.34179455041885376,0.6729053258895874,0.4928373396396637,0.8101437091827393,0.3266192078590393,0.7687865495681763,0.5722484588623047,0.5606553554534912,-0.117115318775177,0.9212172031402588,0.4523593783378601,0.5666589736938477,-0.14471377432346344,0.9531832933425903,179.63408410128403,0.5099259912967682,0.5865274965763092,136.45992626364347,144.23054245266368,0.8406489223878235,-0.004368033018202343,-0.02241780725271624,-0.046462677854699264,0.5682025771155349,-178.28743257050735,0.6818351550238431,37,1762115277.4011142
0.5089737176895142,0.20761534571647644,-0.24784855544567108,0.9999603033065796,0.5613762140274048,0.3066857159137726,-0.08097939938306808,0.9998807907104492,0.46202319860458374,0.3031635284423828,-0.09332577139139175,0.9998863339424133,0.5364537239074707,0.5914797186851501,-0.0006834392552264035,0.997442901134491,0.4828425347805023,0.5841825604438782,0.000483516079839319,0.9979384541511536,0.5349082350730896,0.7263058423995972,0.07129514217376709,0.8850984573364258,0.4824340343475342,0.7211019992828369,0.09569009393453598,0.8865770697593689,0.5298826098442078,0.812123715877533,0.3434654772281647,0.6967294812202454,0.49273985624313354,0.7871732115745544,0.3393496870994568,0.7830928564071655,0.5721926093101501,0.5598950982093811,-0.11052663624286652,0.9176517128944397,0.4527053236961365,0.5635998249053955,-0.1444145292043686,0.9516266584396362,179.58451066287444,0.5096481293439865,0.5878311395645142,135.5978094947289,139.91686005309265,0.8353032218952622,-0.0038728761178108686,0.018170345902440158,0.006901561422488682,0.5657229694349888,-177.96964393289022,0.7767893175710345,38,1762115277.4728599
0.5094315409660339,0.20984363555908203,-0.24581269919872284,0.999951958656311,0.5606473088264465,0.30863499641418457,-0.07644778490066528,0.9998719096183777,0.46258506178855896,0.30360880494117737,-0.09413503855466843,0.9998739361763,0.5363495349884033,0.5913679003715515,0.0018046976765617728,0.9976410269737244,0.483288437128067,0.5852001309394836,-0.0019680727273225784,0.9980659484863281,0.5345900654792786,0.7295950055122375,0.06272058188915253,0.8926693797111511,0.4823886752128601,0.7245675921440125,0.07212666422128677,0.8918223977088928,0.5298012495040894,0.8103491067886353,0.3465089797973633,0.7118304371833801,0.49271631240844727,0.7632307410240173,0.34624335169792175,0.7826244235038757,0.5721702575683594,0.5599773526191711,-0.09722570329904556,0.9105519652366638,0.4532420039176941,0.5566760897636414,-0.14046193659305573,0.9481004476547241,179.63506603472527,0.5098189860582352,0.5882840156555176,129.67043086920899,125.98011599478066,0.826775671031815,0.0024430592061527763,0.006475619692429372,0.09031078472115805,-0.16722145603960398,-177.06586600376815,0.6487122315556324,39,1762115277.5427954
0.5091339945793152,0.21373647451400757,-0.23625051975250244,0.9999478459358215,0.5593919157981873,0.3115156888961792,-0.07839573919773102,0.9998739361763,0.4626852571964264,0.3069356381893158,-0.09129706025123596,0.999855101108551,0.5353628993034363,0.5893506407737732,0.001577321090735495,0.9978185892105103,0.4838399887084961,0.5829596519470215,-0.001743291155435145,0.9981597065925598,0.53410404920578,0.7277622818946838,0.059528350830078125,0.8999771475791931,0.4822217524051666,0.7242769598960876,0.07266849279403687,0.8951976299285889,0.5298184156417847,0.8152303099632263,0.3269621431827545,0.7302363514900208,0.4944531321525574,0.7549926042556763,0.3461637496948242,0.7801035046577454,0.5714279413223267,0.5545720458030701,-0.10053093731403351,0.9105416536331177,0.453479140996933,0.5563027858734131,-0.12226500362157822,0.9403524994850159,179.70266271656598,0.5096014440059662,0.5861551463603973,130.83047066827964,124.10495909585264,0.809069619047149,-0.003032532579108823,-0.02967640245543949,-0.07632965813053534,-0.5039585855727806,-177.28848413689562,0.3616478076119613,40,1762115277.6145315
0.5092088580131531,0.21734413504600525,-0.23615479469299316,0.9999457597732544,0.5581780672073364,0.31303808093070984,-0.07799087464809418,0.9998766183853149,0.4631187319755554,0.3100396990776062,-0.09238966554403305,0.9998384714126587,0.5345929861068726,0.5896416902542114,0.002068484667688608,0.9979858994483948,0.48450058698654175,0.5837687253952026,-0.002200869144871831,0.9982503056526184,0.5337663888931274,0.7243759036064148,0.0658528059720993,0.9050731658935547,0.48233962059020996,0.7236713171005249,0.07453189790248871,0.8961310386657715,0.529201865196228,0.8178039789199829,0.3251645565032959,0.7428916096687317,0.4943617284297943,0.7484645247459412,0.34905552864074707,0.7718856334686279,0.5713777542114258,0.5509547591209412,-0.10368086397647858,0.9120643138885498,0.45344895124435425,0.5530585646629333,-0.12532350420951843,0.9350793957710266,179.77062075978225,0.5095467865467072,0.586705207824707,135.14425958149985,123.82248754451454,0.8054549335079833,-0.0007833375475811357,0.007883348481845704,0.03223492170901429,0.538297308104542,-178.19336327514907,0.29535508244626213,41,1762115277.6843066
0.5091336369514465,0.22156012058258057,-0.2366151362657547,0.9999467730522156,0.55634605884552,0.3155336081981659,-0.09096021950244904,0.9998842477798462,0.46314939856529236,0.31304702162742615,-0.09001927822828293,0.9998182654380798,0.533266544342041,0.584534227848053,0.00018310424638912082,0.9981376528739929,0.48539453744888306,0.5776103734970093,-0.00027865980518981814,0.9982700943946838,0.5329571962356567,0.7197576761245728,0.06297621130943298,0.9121869802474976,0.48233476281166077,0.7192191481590271,0.06106048822402954,0.8987615704536438,0.5288349390029907,0.8191691637039185,0.2720825672149658,0.7628825902938843,0.4993487000465393,0.7060763835906982,0.3490050435066223,0.7433372139930725,0.5711432099342346,0.5492808222770691,-0.1465492844581604,0.9164936542510986,0.45397481322288513,0.551555871963501,-0.11925137042999268,0.9262720346450806,179.91040219143045,0.509330540895462,0.5810723006725311,140.32568212011617,110.69279720503846,0.7695169169795797,-0.003678692381010322,-0.09582496805986494,-0.04925472352729156,-1.7642481673629133,-178.47164992255765,0.06471198445634829,42,1762115277.74309
0.5075437426567078,0.2262374311685562,-0.24019603431224823,0.9999479651451111,0.5536471605300903,0.31805679202079773,-0.10532297194004059,0.999891459941864,0.46307340264320374,0.31677424907684326,-0.09251236915588379,0.9997955560684204,0.529872477054596,0.5762037038803101,-0.0010548828868195415,0.9982751607894897,0.4852926731109619,0.5681027173995972,0.00100123998709023,0.9982671737670898,0.5324064493179321,0.7096168994903564,0.07598797231912613,0.9189140796661377,0.48603400588035583,0.7076153755187988,0.09545028954744339,0.8988192677497864,0.5286966562271118,0.8202645778656006,0.24219223856925964,0.7820864915847778,0.5013152360916138,0.6994626522064209,0.35763445496559143,0.7212215065956116,0.5697392821311951,0.5460423231124878,-0.1627623438835144,0.921302855014801,0.45475879311561584,0.5484494566917419,-0.12210850417613983,0.9175005555152893,179.825078252393,0.5075825750827789,0.5721532106399536,153.57968891669904,122.27149773324912,0.7592962084195638,-0.022028556147804506,-0.11240189833482564,-0.23125223694788116,-0.2089090282376216,-179.18873425859434,0.1343950800051862,43,1762115277.82244
0.5059636831283569,0.23274515569210052,-0.23898473381996155,0.9999476075172424,0.5506901741027832,0.32020214200019836,-0.10115870088338852,0.9998934268951416,0.4629170894622803,0.3204510509967804,-0.09952183067798615,0.9997856020927429,0.5290737748146057,0.5713759660720825,-0.0010518004419282079,0.9983856678009033,0.4857965409755707,0.5638247132301331,0.0009996849112212658,0.9982595443725586,0.5317323803901672,0.7026075720787048,0.06877085566520691,0.9248430132865906,0.4903337061405182,0.6981194019317627,0.09669721126556396,0.8988882899284363,0.5286850929260254,0.8209728002548218,0.19464142620563507,0.7995736598968506,0.5003372430801392,0.7003446221351624,0.345217764377594,0.7109289765357971,0.5680723190307617,0.5457812547683716,-0.15593264997005463,0.9194532036781311,0.45584040880203247,0.5470301508903503,-0.12869645655155182,0.9103556871414185,-179.85366945245002,0.5074351578950882,0.5676003396511078,161.13967914581826,126.01435690769165,0.7333209228956131,-0.002089691334867703,-0.06453857384744852,0.28264053655740223,0.6784797350025645,179.837519704179,0.18151867500064658,44,1762115277.8929849
0.5046374201774597,0.23783659934997559,-0.2462160885334015,0.999946653842926,0.5472515225410461,0.3222068250179291,-0.10210695117712021,0.9998931288719177,0.4624769687652588,0.3248528242111206,-0.10954270511865616,0.9997594356536865,0.527995765209198,0.5655374526977539,-0.002029414987191558,0.9984899163246155,0.4861990809440613,0.5589723587036133,0.0019771121442317963,0.9982388615608215,0.5302013754844666,0.6979466676712036,0.05770336836576462,0.9308992028236389,0.4928964078426361,0.6906217932701111,0.10461758077144623,0.8997330665588379,0.5286849737167358,0.8190901279449463,0.19048123061656952,0.8168624639511108,0.4997798800468445,0.7016241550445557,0.3522029519081116,0.7092816233634949,0.5658854246139526,0.5407208204269409,-0.14449383318424225,0.9114351272583008,0.45680785179138184,0.5447995066642761,-0.14389948546886444,0.894336998462677,-179.4640365872051,0.5070974230766296,0.5622549057006836,156.61422014892116,130.5107434425091,0.7355176752399685,-0.005126992888036338,-0.08114651007075771,-0.046107841450845725,-0.2521172418363367,178.21225382760946,0.831867433999332,45,1762115277.962192
0.5041441321372986,0.2396067976951599,-0.2410254180431366,0.9999504089355469,0.5453989505767822,0.3234058618545532,-0.10050193965435028,0.999899685382843,0.46241632103919983,0.3260245621204376,-0.10907886922359467,0.9997696280479431,0.5271605253219604,0.5580494999885559,-0.003264895174652338,0.9986198544502258,0.4864054322242737,0.5545550584793091,0.0032522506080567837,0.9983376860618591,0.5291169881820679,0.6903882622718811,0.05232754349708557,0.9361304044723511,0.4922580122947693,0.6843967437744141,0.11804331839084625,0.9008665680885315,0.5286878347396851,0.8176757097244263,0.15194296836853027,0.8325121402740479,0.4978295862674713,0.6976743340492249,0.3573443591594696,0.707263708114624,0.5628796815872192,0.5371221899986267,-0.1401505470275879,0.9121120572090149,0.45677703619003296,0.5428308844566345,-0.14910247921943665,0.8959454894065857,-179.28866255785337,0.5067829787731171,0.5563022792339325,164.7022095581932,134.66948940577527,0.7170534144088785,-0.004846203875860751,-0.09174165705172958,0.004327509781235488,-0.16329201003460733,178.1925048975988,1.1178491136872983,46,1762115278.0237434
0.5034858584403992,0.24185611307621002,-0.26159894466400146,0.9999472498893738,0.5420951843261719,0.3241737186908722,-0.10606324672698975,0.999889075756073,0.46220168471336365,0.32707521319389343,-0.11580363661050797,0.9997403621673584,0.5263368487358093,0.5549469590187073,-0.0038506377022713423,0.998717725276947,0.48645132780075073,0.5515159368515015,0.0038332263939082623,0.9983541965484619,0.5280393362045288,0.6859853267669678,0.032739318907260895,0.9412590265274048,0.4917891025543213,0.6765141487121582,0.12005320936441422,0.9024554491043091,0.5286878347396851,0.8139726519584656,0.14784465730190277,0.8474500179290771,0.4973497986793518,0.7029964327812195,0.38720524311065674,0.7111110091209412,0.5578402280807495,0.535341203212738,-0.15025058388710022,0.8770812153816223,0.4565516412258148,0.5408572554588318,-0.16349747776985168,0.8665079474449158,-178.9313604052471,0.50639408826828,0.5532314479351044,153.6260372766095,138.5859765281126,0.7395727870672791,-0.006124611843513328,-0.04836232694885534,-0.020133565829301536,0.6831783126797379,177.92010163172785,1.367097307616697,47,1762115278.0872397
0.5007001757621765,0.2435949742794037,-0.26088303327560425,0.9999405741691589,0.5392738580703735,0.3242998421192169,-0.10561503469944,0.9998723268508911,0.461139053106308,0.32656997442245483,-0.11397308111190796,0.9997361302375793,0.5250335931777954,0.5488117337226868,-0.007168148644268513,0.99878990650177,0.4864092469215393,0.5454117655754089,0.007150981575250626,0.9983717203140259,0.5254898071289062,0.6808504462242126,0.022319447249174118,0.9465847611427307,0.4912923276424408,0.6679198741912842,0.12264537811279297,0.9067208170890808,0.5285570621490479,0.8068252801895142,0.13962015509605408,0.8614519238471985,0.49733075499534607,0.7044493556022644,0.37468841671943665,0.7292226552963257,0.5548517107963562,0.5311005115509033,-0.14797422289848328,0.84233158826828,0.4567146301269531,0.5339055061340332,-0.143406480550766,0.8426581621170044,-178.5748668248467,0.5057214200496674,0.5471117496490479,149.6176116187782,141.56972729212856,0.7284915474568376,-0.00848618058333609,-0.07720427892091546,-0.02979284323470772,-0.36386141940168387,178.33579389129255,1.211057706106988,48,1762115278.166506
0.498248815536499,0.24403220415115356,-0.2606164216995239,0.9999309182167053,0.5368608832359314,0.3242415189743042,-0.1106865257024765,0.9998543858528137,0.45954689383506775,0.32635927200317383,-0.11496543884277344,0.9997199177742004,0.5237675905227661,0.544611394405365,-0.007423559669405222,0.99886554479599,0.48598164319992065,0.5414221286773682,0.007397404871881008,0.9983969330787659,0.523673415184021,0.6741313338279724,0.021171007305383682,0.9506509304046631,0.49135875701904297,0.6644130349159241,0.11888383328914642,0.9086789488792419,0.5273087024688721,0.8028451800346375,0.13927903771400452,0.8736494183540344,0.497188001871109,0.7075059413909912,0.3711676597595215,0.7416110038757324,0.5510362386703491,0.5285375118255615,-0.14950139820575714,0.7924764752388,0.4555908143520355,0.53370201587677,-0.1489998996257782,0.8103713393211365,-178.245032969041,0.5048746168613434,0.5430167615413666,149.88277027384254,141.89378835223823,0.7263292550536807,-0.010875722649551712,-0.05259304112978296,-0.030689535809417853,0.31608879131442047,178.43096988627485,1.4093288290502146,49,1762115278.2443678
0.4961332380771637,0.24551592767238617,-0.25943320989608765,0.9999184012413025,0.5347194671630859,0.3241786062717438,-0.10874011367559433,0.9998375177383423,0.45867976546287537,0.3261421322822571,-0.1135149821639061,0.999705970287323,0.5227515697479248,0.5390827059745789,-0.007191520184278488,0.9989369511604309,0.4857954978942871,0.5367087721824646,0.007162858732044697,0.9984371662139893,0.5231561660766602,0.666200578212738,0.02090594172477722,0.9537661671638489,0.4914841651916504,0.6580679416656494,0.12008748203516006,0.9091088175773621,0.5265309810638428,0.7932827472686768,0.1429121494293213,0.8841646909713745,0.4970913529396057,0.7091974020004272,0.3661862313747406,0.7524786591529846,0.5481942296028137,0.5247844457626343,-0.14741221070289612,0.7525818347930908,0.45559555292129517,0.5302648544311523,-0.14770743250846863,0.7845138311386108,-177.96098647748218,0.504273533821106,0.5378957390785217,148.61613961247946,144.68115716672781,0.7212354803337044,-0.009498266963041103,-0.08092199449949139,0.021766446504743967,-0.44765189479102413,178.52081536830522,1.686089760080425,50,1762115278.3076513
0.4947529733181,0.24533191323280334,-0.25852856040000916,0.9999112486839294,0.5339151620864868,0.32411909103393555,-0.10825125873088837,0.9998278617858887,0.45845943689346313,0.3263269364833832,-0.11220578104257584,0.9997026920318604,0.5224364995956421,0.5344939231872559,-0.0069784969091415405,0.9990161061286926,0.4858047068119049,0.5322346091270447,0.006947520188987255,0.9985093474388123,0.5225586295127869,0.6644261479377747,0.012036328203976154,0.9569748640060425,0.4924343526363373,0.6582136750221252,0.11722041666507721,0.9101312756538391,0.5259479284286499,0.789848268032074,0.1266663670539856,0.8940325379371643,0.49763378500938416,0.7080450654029846,0.3638104498386383,0.7596300840377808,0.5445776581764221,0.5189371109008789,-0.14544013142585754,0.7251734733581543,0.45556455850601196,0.5289724469184875,-0.1470285803079605,0.7761103510856628,-177.8172279977499,0.5041206032037735,0.5333642661571503,145.88117097490522,142.62177898919163,0.7125301876404079,-0.002245913894160405,-0.06654846604715653,0.10650686439947406,0.21108727488512655,178.32399538976992,1.8469449100427373,51,1762115278.375744
0.49302560091018677,0.24472086131572723,-0.2580767273902893,0.9998795390129089,0.5325635671615601,0.3228933811187744,-0.10771225392818451,0.9997844696044922,0.4584697186946869,0.32546475529670715,-0.10885874927043915,0.9996910095214844,0.5224505066871643,0.5292960405349731,-0.006828622426837683,0.9990649223327637,0.48579224944114685,0.5280284285545349,0.006796371191740036,0.9985576272010803,0.5223492383956909,0.6589174866676331,0.016962597146630287,0.9596598744392395,0.49221229553222656,0.650680661201477,0.11751998960971832,0.9106497168540955,0.5258198380470276,0.7764587998390198,0.1540294885635376,0.9026588201522827,0.49778643250465393,0.7076536417007446,0.35738605260849,0.772454559803009,0.5420440435409546,0.5106997489929199,-0.1344381868839264,0.6851438879966736,0.4556872844696045,0.5274061560630798,-0.14168348908424377,0.7560449242591858,-177.5903918114128,0.5041213780641556,0.528662234544754,140.9977608010351,145.4379242744229,0.7153108177016538,1.0095895474864326e-05,-0.0612642235635094,0.029394249019785993,0.0688500290020319,178.01238852251169,1.9022848777158206,52,1762115278.4524941
0.49230748414993286,0.24055346846580505,-0.2655104398727417,0.999836266040802,0.5312554240226746,0.31684160232543945,-0.10706202685832977,0.9997292160987854,0.45840829610824585,0.3215330243110657,-0.11028909683227539,0.9996693134307861,0.5223796963691711,0.5212274193763733,-0.006423059850931168,0.9990975260734558,0.48549705743789673,0.5204359889030457,0.006406349129974842,0.9985964298248291,0.5220576524734497,0.6458622217178345,0.019973838701844215,0.9609445929527283,0.4904094636440277,0.6393682956695557,0.11350744962692261,0.9122239351272583,0.5254052877426147,0.7513347268104553,0.21144071221351624,0.909025251865387,0.49752277135849,0.7062283158302307,0.3495404124259949,0.7868183255195618,0.5405853986740112,0.5016176700592041,-0.13334797322750092,0.6409637928009033,0.4556712210178375,0.5198205709457397,-0.1429290771484375,0.7312899231910706,-177.41420680253293,0.5039383769035339,0.5208317041397095,130.79638045897585,147.83156807645236,0.7327009616624172,-0.002466270274786006,-0.10553050214636403,-0.033373494760654224,-0.5965678396434129,176.31518774780847,1.7407180469823529,53,1762115278.5266957
0.49202075600624084,0.23620469868183136,-0.2644888460636139,0.9998099207878113,0.5305491089820862,0.30989599227905273,-0.10080283880233765,0.9996812343597412,0.45850706100463867,0.31742650270462036,-0.11131896823644638,0.9996667504310608,0.5214800238609314,0.509456992149353,-0.0031761538702994585,0.9991085529327393,0.4851333498954773,0.5104165077209473,0.003156286431476474,0.9986413717269897,0.5220696926116943,0.6312105059623718,0.04283689707517624,0.960365355014801,0.49038252234458923,0.6265159845352173,0.08297470957040787,0.913975715637207,0.5247901678085327,0.730284571647644,0.23133055865764618,0.9128252267837524,0.4974699020385742,0.7042431831359863,0.2887595295906067,0.7995709776878357,0.5396197438240051,0.4893066883087158,-0.11630209535360336,0.6054344177246094,0.45566076040267944,0.5121399164199829,-0.14276176691055298,0.7185682058334351,-177.43910040988982,0.5033066868782043,0.5099367499351501,138.42614270763784,145.21846833285971,0.7119823733192755,-0.009836022972375978,-0.1696449453719275,-0.11475415777920982,-0.998323720718402,174.03257899442056,1.7897516288551563,54,1762115278.5909178
0.4918253421783447,0.2340410202741623,-0.2409043312072754,0.999795138835907,0.5302459597587585,0.30712074041366577,-0.0860307514667511,0.9996672868728638,0.4587060809135437,0.31461867690086365,-0.0912480428814888,0.999668300151825,0.52132648229599,0.5058339238166809,-0.003214478027075529,0.9991132020950317,0.4851222038269043,0.5080021619796753,0.003192329779267311,0.9986842274665833,0.5222439765930176,0.6243943572044373,0.04042510688304901,0.9607495069503784,0.48947209119796753,0.6231798529624939,0.05932478979229927,0.9183218479156494,0.5238159894943237,0.7106871008872986,0.24497978389263153,0.9159790873527527,0.4974300265312195,0.7032952904701233,0.26057493686676025,0.8138195276260376,0.5394060611724854,0.48475056886672974,-0.10413198173046112,0.5860357284545898,0.4557313024997711,0.505223274230957,-0.11861380189657211,0.7122383713722229,-177.4449685002098,0.5032243430614471,0.5069180428981781,133.07973119853057,137.71460036996535,0.6839275058543774,-0.0012564390797572794,-0.04606079291628469,0.1309111590312502,1.8857027145316296,174.0168000859224,1.8355791512964688,55,1762115278.6564553
0.4916191101074219,0.232414111495018,-0.24434709548950195,0.9998058676719666,0.5298870801925659,0.3050003945827484,-0.08653788268566132,0.9996806979179382,0.45883551239967346,0.31299570202827454,-0.09580886363983154,0.9996781349182129,0.5210224986076355,0.5008624792098999,-0.002949353074654937,0.9991435408592224,0.4849807322025299,0.5040639042854309,0.0029230022337287664,0.9987443685531616,0.5223203897476196,0.6183786392211914,0.03882350027561188,0.9623070359230042,0.4891536831855774,0.6176725625991821,0.05569678544998169,0.9237127304077148,0.5235504508018494,0.7082600593566895,0.22625167667865753,0.9209092259407043,0.49742451310157776,0.7031950354576111,0.23698189854621887,0.8286665081977844,0.5402973294258118,0.4839951694011688,-0.11316294968128204,0.5987379550933838,0.45630350708961487,0.499578058719635,-0.1245766282081604,0.7127587795257568,-177.44282065676128,0.5030016154050827,0.5024631917476654,135.1872626669729,140.19544028604352,0.6715081846772085,-0.0035213557137041447,-0.0704318260633566,-0.03580865196624803,-0.3853094771530853,173.5796158046337,1.8184611685077128,56,1762115278.7197058
0.4914502203464508,0.2317676693201065,-0.2360420674085617,0.9998177886009216,0.5295840501785278,0.30455145239830017,-0.08648049831390381,0.999697208404541,0.45918431878089905,0.31300756335258484,-0.08847934007644653,0.9996870160102844,0.5206495523452759,0.4986235797405243,-0.00308175734244287,0.9991797804832458,0.4849494397640228,0.5028784275054932,0.0030517231207340956,0.9988148808479309,0.5219184756278992,0.6112644076347351,0.032997868955135345,0.9634073972702026,0.48850250244140625,0.6164636611938477,0.05020158737897873,0.9281786680221558,0.5222568511962891,0.693054735660553,0.243524432182312,0.9242664575576782,0.497406542301178,0.7000247240066528,0.24731707572937012,0.841666579246521,0.5403986573219299,0.4821516275405884,-0.104958675801754,0.612733781337738,0.45694097876548767,0.5001519918441772,-0.11073075234889984,0.714495062828064,-177.48997450510382,0.5027994960546494,0.5007510036230087,128.9886724732154,135.53785183819284,0.669445587979232,-0.003452664589569715,-0.02924812144908058,0.0011734028009104014,0.7035126438123949,173.15069331400403,1.8206260071999842,57,1762115278.778246
0.491607129573822,0.23165498673915863,-0.23949377238750458,0.9998217225074768,0.5298854112625122,0.30440986156463623,-0.09221900999546051,0.9996854066848755,0.4599296450614929,0.3122707009315491,-0.09186147153377533,0.9996805787086487,0.5204496383666992,0.4971418082714081,-0.003932454623281956,0.9991844892501831,0.4848501682281494,0.5005661845207214,0.003899806411936879,0.9988574981689453,0.5211253762245178,0.6064257025718689,0.020459892228245735,0.9628351926803589,0.48796334862709045,0.6113192439079285,0.05707138776779175,0.9298290014266968,0.5212095975875854,0.6794978380203247,0.2663661241531372,0.9213524460792542,0.4972328543663025,0.6966620683670044,0.26619571447372437,0.8512064814567566,0.5407291054725647,0.4805642068386078,-0.11686364561319351,0.6081002354621887,0.45690950751304626,0.5010120868682861,-0.11104587465524673,0.7125108242034912,-177.67281087610885,0.5026499032974243,0.49885399639606476,119.1302608688178,137.8583172189021,0.6814998497140491,-0.0018866158708012977,-0.023924446662837932,0.01975050411586403,0.06714047878401638,173.5886415950312,1.6551092289845024,58,1762115278.8575375
0.4916818141937256,0.23235416412353516,-0.26010823249816895,0.9998184442520142,0.5301064848899841,0.3040122091770172,-0.10885858535766602,0.9996609687805176,0.4615725874900818,0.3121654689311981,-0.10988935083150864,0.999668538570404,0.519609808921814,0.49641451239585876,-0.004285391885787249,0.9991574883460999,0.48473024368286133,0.49851253628730774,0.004250071477144957,0.9988803863525391,0.5200080275535583,0.603838324546814,0.02560441568493843,0.9615415930747986,0.48758190870285034,0.6088031530380249,0.06131315976381302,0.9299060702323914,0.5202950239181519,0.666330873966217,0.2819873094558716,0.914454460144043,0.49697327613830566,0.6954292058944702,0.2763631343841553,0.8584334254264832,0.5407641530036926,0.4796003997325897,-0.13949404656887054,0.6062648892402649,0.45707136392593384,0.5002695322036743,-0.14230674505233765,0.7137410640716553,-178.08540750188936,0.5021700263023376,0.49746352434158325,119.24628981153793,139.30420719543508,0.7016334421674313,-0.006042116954851105,-0.017507392231027857,-0.05232179040236083,0.08079694125708071,173.21559028742018,1.307903348068955,59,1762115278.9369595
0.49236059188842773,0.23487962782382965,-0.24549531936645508,0.9998281598091125,0.5303248167037964,0.30398863554000854,-0.10700339078903198,0.9996625185012817,0.4641079008579254,0.3115885853767395,-0.09899313747882843,0.9996715188026428,0.5190383195877075,0.4919430613517761,-0.004868325777351856,0.9991500973701477,0.48465704917907715,0.49358877539634705,0.004835875704884529,0.9989404678344727,0.5195021629333496,0.600980818271637,0.014424353837966919,0.959342360496521,0.4873451590538025,0.604809045791626,0.04521102458238602,0.9320691823959351,0.5175496339797974,0.6587817072868347,0.26133501529693604,0.9018046259880066,0.4969998896121979,0.696462094783783,0.21052522957324982,0.8667653203010559,0.5410184860229492,0.47982779145240784,-0.135474294424057,0.6276177763938904,0.45761838555336,0.49322518706321716,-0.12493236362934113,0.7243186831474304,-178.5657701092665,0.5018476843833923,0.4927659183740616,113.20547333563981,138.952161453639,0.6542274902251629,-0.004396047459104078,-0.0640651977408478,0.02244883212200247,-0.6349478940951192,173.45260977567727,1.2022856721765989,60,1762115279.010285
0.49274587631225586,0.2361653447151184,-0.23970961570739746,0.9998377561569214,0.5304642915725708,0.3042846620082855,-0.10191786289215088,0.9996660947799683,0.4645029604434967,0.3115532696247101,-0.09715710580348969,0.9996829628944397,0.5188571214675903,0.490742951631546,-0.004566342569887638,0.9991468191146851,0.48451313376426697,0.4928598701953888,0.004529115278273821,0.9989964365959167,0.5192848443984985,0.59940505027771,0.018788199871778488,0.9587788581848145,0.4872972369194031,0.6039091348648071,0.04369029030203819,0.934838593006134,0.5170232057571411,0.6603600978851318,0.25725892186164856,0.897774875164032,0.4969828724861145,0.6969596743583679,0.2070506513118744,0.8751572966575623,0.5412627458572388,0.479905366897583,-0.12285663932561874,0.648157000541687,0.4582098126411438,0.4941617250442505,-0.11981326341629028,0.7369953393936157,-178.69108532672738,0.5016851276159286,0.4918014109134674,116.46348485887077,139.08839969345638,0.6470399524128799,-0.002585678908406905,-0.015341758062558782,0.02879628975783257,0.7750103073951274,173.71166372828506,1.131565673977062,61,1762115279.073153
0.49447089433670044,0.23633936047554016,-0.23628278076648712,0.9998504519462585,0.5307207107543945,0.30454856157302856,-0.09528408199548721,0.9996840953826904,0.4662024974822998,0.31120017170906067,-0.09661779552698135,0.9997077584266663,0.5188658833503723,0.4880400002002716,-0.0012761936523020267,0.9992022514343262,0.48457974195480347,0.4905831217765808,0.0012228202540427446,0.9990906715393066,0.5195640921592712,0.5935546159744263,0.05924093723297119,0.9580051302909851,0.4873063564300537,0.6000933051109314,-0.0009492601966485381,0.9396824836730957,0.517838180065155,0.6357765793800354,0.31671005487442017,0.8898464441299438,0.4969817101955414,0.697300136089325,0.12357582151889801,0.8846848607063293,0.541344404220581,0.47880271077156067,-0.11975886672735214,0.6725384593009949,0.459878146648407,0.48936575651168823,-0.12213723361492157,0.7500762343406677,-178.97025873289326,0.5017228126525879,0.4893115609884262,129.14300073272693,126.85292936657164,0.6273460235063542,0.0005224964795017751,-0.03452133620262203,0.0430943112127271,-0.26592151540484027,174.1137942953529,0.8202810682702855,62,1762115279.145278
0.49604982137680054,0.23900344967842102,-0.2484792172908783,0.9998635649681091,0.5322182178497314,0.3055231273174286,-0.09746461361646652,0.9997090697288513,0.46857792139053345,0.31131675839424133,-0.1047603040933609,0.9997351765632629,0.5189434289932251,0.48799121379852295,0.005152564961463213,0.9992678165435791,0.48479288816452026,0.49068719148635864,-0.005297463852912188,0.9991800785064697,0.5196679830551147,0.5872941017150879,0.13001422584056854,0.9594276547431946,0.4878206253051758,0.5991344451904297,-0.028363019227981567,0.9450756311416626,0.5202866792678833,0.6231468915939331,0.40055856108665466,0.889387845993042,0.49729815125465393,0.6971638202667236,0.07719375938177109,0.8945943117141724,0.5420502424240112,0.4781210124492645,-0.13459810614585876,0.6943612098693848,0.4613784849643707,0.48840612173080444,-0.1390957236289978,0.7654079794883728,-179.53444404305833,0.5018681585788727,0.4893392026424408,149.05128133487926,120.90609606513812,0.6442410774245492,0.0020659651619899687,0.0003929019249017216,0.0219390567603191,0.4962753444327822,174.79829419545587,0.29115797516048336,63,1762115279.2156305
0.497828871011734,0.24167975783348083,-0.229868084192276,0.9998759031295776,0.5337032675743103,0.30749839544296265,-0.0802278071641922,0.9997332096099854,0.47111502289772034,0.31142500042915344,-0.09292028099298477,0.9997598528862,0.5191877484321594,0.4878764748573303,0.009663620963692665,0.9993285536766052,0.485927015542984,0.4905191659927368,-0.009824804030358791,0.9992606043815613,0.5197420120239258,0.585205614566803,0.14055107533931732,0.9606402516365051,0.4882020056247711,0.5982272028923035,-0.027017245069146156,0.9500225782394409,0.5205982327461243,0.6274941563606262,0.39530450105667114,0.8911376595497131,0.49729079008102417,0.6973804235458374,0.06272675096988678,0.9038177728652954,0.5421063303947449,0.47644704580307007,-0.12414972484111786,0.7170135974884033,0.4628794193267822,0.4870947599411011,-0.13098382949829102,0.7806751728057861,-179.9527455127575,0.5025573819875717,0.48919782042503357,152.7877098003756,128.7673738703876,0.6226834812238574,0.009191801881722994,-0.0018855385867681614,0.09503345147972843,-0.03038633557454567,176.4101338357015,0.02980530298255513,64,1762115279.290613
0.49971455335617065,0.24487140774726868,-0.2219369113445282,0.999886691570282,0.5355566143989563,0.31042712926864624,-0.07116357237100601,0.9997541308403015,0.4732295572757721,0.31289899349212646,-0.08718536049127579,0.9997822642326355,0.5204557180404663,0.4895969033241272,0.011269817128777504,0.9993825554847717,0.48769932985305786,0.49205827713012695,-0.011422532610595226,0.9993332028388977,0.5202113389968872,0.5859894752502441,0.14999571442604065,0.961635947227478,0.48860564827919006,0.6000063419342041,-0.021028924733400345,0.9545571804046631,0.5213485956192017,0.6269801259040833,0.40955597162246704,0.8916608691215515,0.4976871907711029,0.6975390315055847,0.06809348613023758,0.9122117161750793,0.5424467325210571,0.47632378339767456,-0.11121688038110733,0.7362916469573975,0.46550244092941284,0.48787185549736023,-0.12793344259262085,0.794979453086853,179.89908523787054,0.5040775239467621,0.4908275902271271,154.17631421511965,132.4100408696163,0.6217799287741093,0.027510355316807972,0.029494315362543957,0.33151503439687036,0.5678883651069645,177.7288643214695,0.06174896641160894,65,1762115279.34587
0.5003640055656433,0.24752934277057648,-0.22568297386169434,0.9998965859413147,0.5360000729560852,0.3122396767139435,-0.07514845579862595,0.999775230884552,0.4740881025791168,0.31388992071151733,-0.08606164157390594,0.9998023509979248,0.5210644602775574,0.4901643395423889,0.011478358879685402,0.9994326233863831,0.48817116022109985,0.49218669533729553,-0.011620992794632912,0.9993985891342163,0.5203181505203247,0.5875083804130554,0.14557220041751862,0.9631852507591248,0.4888150095939636,0.600975751876831,-0.029410313814878464,0.9587355852127075,0.5216978192329407,0.6278076767921448,0.40688556432724,0.8934028148651123,0.4978005886077881,0.6978463530540466,0.05436765402555466,0.9200512766838074,0.542474627494812,0.4769211709499359,-0.11499699205160141,0.755731463432312,0.4664342403411865,0.4875679016113281,-0.12573137879371643,0.8053106069564819,179.86287262080873,0.5046178102493286,0.4911755174398422,152.7814684341869,129.76750223736786,0.6170726651018142,0.007039644744322153,0.004533307549649124,-0.26672253101659027,-0.3252287289689199,178.4731606343542,0.08223542631960648,66,1762115279.422619
0.5015784502029419,0.25048762559890747,-0.22445984184741974,0.9999057054519653,0.5366763472557068,0.3144797086715698,-0.07383586466312408,0.9997928738594055,0.47538071870803833,0.31601107120513916,-0.08605873584747314,0.9998202919960022,0.5221866369247437,0.48950836062431335,0.010648674331605434,0.9994763731956482,0.4896700382232666,0.4921117424964905,-0.010772107169032097,0.9994572997093201,0.520249605178833,0.5849833488464355,0.13886825740337372,0.9645583629608154,0.4896961748600006,0.6017025709152222,-0.019612204283475876,0.9624555706977844,0.5216916799545288,0.6268208622932434,0.3952053189277649,0.8937971591949463,0.4978210926055908,0.698052704334259,0.060837097465991974,0.9270073175430298,0.5426214933395386,0.477369487285614,-0.11499293148517609,0.7712568044662476,0.46772536635398865,0.487119197845459,-0.12597061693668365,0.8143094182014465,179.9673010882652,0.5059283375740051,0.4908100515604019,152.5766903147161,135.40273725940915,0.6119706592882058,0.017976100542545156,-0.005012983148070024,0.15001200303586532,-0.13094353559771935,178.56886430211574,0.02094168380726585,67,1762115279.495523
0.5025694370269775,0.25333690643310547,-0.22833660244941711,0.9999138116836548,0.5377814173698425,0.3154781758785248,-0.07987075299024582,0.999808669090271,0.476525217294693,0.31632474064826965,-0.08627869188785553,0.9998364448547363,0.5228811502456665,0.485361784696579,0.009784108959138393,0.9995120763778687,0.4904518723487854,0.48702049255371094,-0.00990615226328373,0.9995098114013672,0.5193918943405151,0.5830851197242737,0.12464047968387604,0.965644121170044,0.4907739758491516,0.5940524339675903,-0.02507380023598671,0.9656869173049927,0.5211108326911926,0.6280807256698608,0.37451592087745667,0.8932318687438965,0.49777406454086304,0.6979243159294128,0.05456087738275528,0.9331523776054382,0.5426583290100098,0.4768698513507843,-0.12469391524791718,0.7864805459976196,0.4700356125831604,0.48276999592781067,-0.12895658612251282,0.8222497701644897,179.8362093627066,0.506666511297226,0.48619113862514496,149.766822805266,134.38658015587689,0.6033335900699325,0.010233939874725238,-0.06403597930817923,-0.10733626012752163,-0.8182867730554503,179.208218912489,0.11163961140715836,68,1762115279.567653
0.503990113735199,0.2533753514289856,-0.24778524041175842,0.9999211430549622,0.5386267900466919,0.3151805102825165,-0.09736466407775879,0.9998222589492798,0.4776855409145355,0.31638193130493164,-0.10366971790790558,0.9998512864112854,0.5233451128005981,0.47913995385169983,0.00952829234302044,0.9995430707931519,0.49088340997695923,0.4809301495552063,-0.009668541140854359,0.9995570778846741,0.5191802382469177,0.578039824962616,0.12259192764759064,0.9673370122909546,0.4923696517944336,0.5859063267707825,-0.024907570332288742,0.9685776829719543,0.5210262537002563,0.6277855634689331,0.3691106140613556,0.8956326842308044,0.4977127015590668,0.6936798691749573,0.05660014599561691,0.9385872483253479,0.5426943898200989,0.4737335741519928,-0.133515402674675,0.8001338243484497,0.4718948304653168,0.4798251688480377,-0.14187189936637878,0.8313074111938477,179.6365630796056,0.5071142613887787,0.48003505170345306,150.1643610317291,134.6314287305852,0.6149461289316475,0.007134526473348099,-0.0980921410037724,-0.04938658278614936,-0.542656700203525,178.87059357781803,0.28977740021912496,69,1762115279.6304111
0.5050662755966187,0.252474844455719,-0.2614752948284149,0.9999274611473083,0.5399585962295532,0.3149419128894806,-0.11061457544565201,0.9998347759246826,0.4793616831302643,0.3160046935081482,-0.11245046555995941,0.9998646974563599,0.5241912007331848,0.4752204418182373,0.007160520646721125,0.9995707869529724,0.4917840361595154,0.4771156311035156,-0.007291847374290228,0.9995995163917542,0.5193504691123962,0.5756402015686035,0.11743441969156265,0.969222903251648,0.4935015141963959,0.5834726691246033,-0.025586087256669998,0.9712122678756714,0.5212869644165039,0.6265683770179749,0.36785605549812317,0.8980295062065125,0.49767154455184937,0.6877893805503845,0.0655323937535286,0.9435474276542664,0.5429134964942932,0.47186583280563354,-0.1455724984407425,0.8111351728439331,0.4735240042209625,0.4788210690021515,-0.1499180644750595,0.8383997082710266,179.40368333289774,0.5079876184463501,0.47616803646087646,149.09004329754015,129.10890432649916,0.6264590322754502,0.010664988703591559,-0.04722200790748591,0.04311219503819544,0.6211999893041844,178.9952194181055,0.5476022617473331,70,1762115279.7123013
0.5057795643806458,0.2524450421333313,-0.2600194215774536,0.9999334216117859,0.5403996706008911,0.3146541118621826,-0.10987349599599838,0.9998458027839661,0.47966331243515015,0.3156759738922119,-0.11176051944494247,0.999876081943512,0.5250064134597778,0.47165602445602417,0.00467285793274641,0.9995894432067871,0.49272575974464417,0.47508853673934937,-0.004746774677187204,0.9996360540390015,0.5193631052970886,0.5721445679664612,0.08889907598495483,0.9708080291748047,0.4936046600341797,0.5804483890533447,-0.019046448171138763,0.9736112952232361,0.5212764739990234,0.6270301342010498,0.33061033487319946,0.9011574983596802,0.49750933051109314,0.6860448718070984,0.08048402518033981,0.9481824636459351,0.5430840253829956,0.4691624045372009,-0.14122027158737183,0.8216962814331055,0.4742715358734131,0.4776061475276947,-0.14661774039268494,0.842744767665863,179.57794866818335,0.508866086602211,0.47337228059768677,142.65632515066963,128.95980504061413,0.6164868479314648,0.011673861386138613,-0.037152475247524755,0.013406792009181278,0.13381285105364185,179.0361151058773,0.4004800930017981,71,1762115279.787552
0.5066646933555603,0.2521452307701111,-0.25881534814834595,0.9999388456344604,0.5405826568603516,0.3130028545856476,-0.10453124344348907,0.9998552203178406,0.4804513454437256,0.3149415850639343,-0.10956187546253204,0.9998856782913208,0.5257095694541931,0.46828559041023254,0.0029391986317932606,0.9996014833450317,0.49371546506881714,0.47191351652145386,-0.002970609348267317,0.9996674060821533,0.5198555588722229,0.5662585496902466,0.07652942836284637,0.9719027876853943,0.4940800070762634,0.5758538842201233,-0.005842908285558224,0.9756467342376709,0.5211183428764343,0.6260954737663269,0.298198938369751,0.9038399457931519,0.497114360332489,0.6814286112785339,0.08433440327644348,0.9522331357002258,0.5432177782058716,0.46420371532440186,-0.13051025569438934,0.8333653211593628,0.4756409525871277,0.4745694100856781,-0.1383851021528244,0.8487831354141235,179.7047722355459,0.5097125172615051,0.4700995534658432,141.9058697988481,137.90120513103818,0.6032212677879303,0.0130458768019814,-0.05044192870345532,0.02114661595603243,-0.20482785051325791,178.15333135100826,0.3742536429049351,72,1762115279.8524332
0.5073960423469543,0.2518559694290161,-0.24464404582977295,0.9999432563781738,0.5407218933105469,0.31143832206726074,-0.10230521857738495,0.9998607039451599,0.4811989367008209,0.31362947821617126,-0.10056444257497787,0.9998927116394043,0.5258784890174866,0.46536898612976074,-0.00035133343772031367,0.999596357345581,0.49418655037879944,0.4686034023761749,0.0003600581840146333,0.9996907711029053,0.5204095840454102,0.5629795789718628,0.05137185379862785,0.9725538492202759,0.494673490524292,0.5695419311523438,0.0044736964628100395,0.977317214012146,0.5209646821022034,0.6262872219085693,0.25990381836891174,0.9064104557037354,0.4970058798789978,0.6746315956115723,0.1065857782959938,0.9558287858963013,0.5432382225990295,0.4603254199028015,-0.12321978807449341,0.8413477540016174,0.4764464497566223,0.4709186851978302,-0.12425611168146133,0.8521183729171753,179.6557911575857,0.510032519698143,0.46698619425296783,134.72416434063058,138.15046452029713,0.5847872181268138,0.004923922813067484,-0.047905699139717886,-0.12497365630360288,0.03902532349212968,177.89178253655004,0.6422559958892606,73,1762115279.9174225
0.507858157157898,0.25182512402534485,-0.23679938912391663,0.999946653842926,0.5410007238388062,0.3104533851146698,-0.10123053938150406,0.9998630881309509,0.48167577385902405,0.3127993643283844,-0.09449972212314606,0.9998959302902222,0.525874137878418,0.4650692045688629,-0.002778060268610716,0.9995680451393127,0.4944171905517578,0.4664023816585541,0.0027963602915406227,0.9996958374977112,0.5204228758811951,0.5641173720359802,0.030385185033082962,0.972873866558075,0.49476557970046997,0.5665211081504822,0.015127891674637794,0.978165864944458,0.5197452306747437,0.627541720867157,0.22334671020507812,0.9091001152992249,0.4969472885131836,0.665560781955719,0.13766367733478546,0.9582554697990417,0.5432696342468262,0.45795321464538574,-0.1172792911529541,0.8457845449447632,0.4771609306335449,0.4681977927684784,-0.11869131028652191,0.8521947860717773,179.55662215194866,0.5101456642150879,0.4657357931137085,126.65881425568855,135.9627940403925,0.5744145443748958,0.0016404386601679974,-0.018129083272840404,-0.04760596880791913,0.4317196551450368,177.7354433706147,1.5837108457683287,74,1762115279.9863946
0.5083041787147522,0.25140488147735596,-0.22973521053791046,0.9999499320983887,0.5410763025283813,0.30975040793418884,-0.0913972556591034,0.9998681545257568,0.4820031225681305,0.3119160234928131,-0.0937953069806099,0.9998996257781982,0.5258821845054626,0.4639652669429779,-0.0019156240159645677,0.9995549917221069,0.49449652433395386,0.463976114988327,0.0019120632205158472,0.9996964335441589,0.5205029845237732,0.563709020614624,0.03643233701586723,0.9733522534370422,0.4948391318321228,0.5628048181533813,0.024660665541887283,0.9786648750305176,0.5178379416465759,0.6283479332923889,0.21398933231830597,0.9138317704200745,0.496820867061615,0.6569156050682068,0.15797388553619385,0.9601441621780396,0.5432760119438171,0.45594486594200134,-0.10850449651479721,0.8526910543441772,0.4772377014160156,0.4668157398700714,-0.11813074350357056,0.857997715473175,179.49478195173543,0.5101893544197083,0.46397069096565247,131.01720571678845,138.17694225317126,0.5708589158741529,0.0006939106265833091,-0.02803427331558639,-0.015033252111557325,-0.15731939661791805,177.90048393358475,3.940881538589788,75,1762115280.049357
0.5082603693008423,0.25133126974105835,-0.22708460688591003,0.9999531507492065,0.5410352945327759,0.3089323043823242,-0.09155137836933136,0.9998722672462463,0.48262715339660645,0.31091931462287903,-0.08961131423711777,0.9999028444290161,0.525861382484436,0.4621184766292572,-0.003394466359168291,0.9995436668395996,0.4946911931037903,0.4620906412601471,0.0033883657306432724,0.9996996521949768,0.5205289721488953,0.5639786124229431,0.015988804399967194,0.9738276600837708,0.4950881898403168,0.5612566471099854,0.02242983505129814,0.9790166616439819,0.5175883769989014,0.6289334893226624,0.20153167843818665,0.9169171452522278,0.49670153856277466,0.6568251252174377,0.14879348874092102,0.9620020389556885,0.5433356165885925,0.4558086395263672,-0.10960984230041504,0.8587667346000671,0.4770682454109192,0.4627133309841156,-0.11252737045288086,0.8626832962036133,179.4145819964218,0.5102762877941132,0.46210455894470215,120.07005439612966,137.96519599410868,0.5613500797907378,0.0013667475064003329,-0.0293389196463043,0.010578194324091348,-0.02051136438047198,178.05158305605318,2.3395754742938784,76,1762115280.112963
0.5084291696548462,0.2508620023727417,-0.2210981547832489,0.999955415725708,0.5411807894706726,0.3085387647151947,-0.08850327879190445,0.999875545501709,0.48329344391822815,0.3097940981388092,-0.0873049721121788,0.999904990196228,0.5258113145828247,0.4612455666065216,-0.0038073130417615175,0.9995410442352295,0.49480000138282776,0.4605085253715515,0.003793171141296625,0.9996930360794067,0.5205323100090027,0.5625459551811218,0.018314247950911522,0.9743047952651978,0.49512022733688354,0.5582969188690186,0.031085725873708725,0.979080080986023,0.5175613164901733,0.6294746398925781,0.18992218375205994,0.9218406081199646,0.49677959084510803,0.6491848230361938,0.1735984832048416,0.9633403420448303,0.5433509349822998,0.4562655985355377,-0.10404195636510849,0.860910177230835,0.4772537648677826,0.4606141746044159,-0.10985217988491058,0.8666141629219055,179.2705951760886,0.5103056579828262,0.46087704598903656,123.62506896464268,138.11766055311088,0.559646068936482,0.0003698968867856542,-0.015459663035383988,-0.012554633011999824,0.17479948329352588,178.7576898770716,2.9406434019192496,77,1762115280.192364
0.5088993906974792,0.2503960430622101,-0.2246488332748413,0.9999571442604065,0.5413156151771545,0.3078094720840454,-0.0893210619688034,0.9998810291290283,0.48372405767440796,0.3088970482349396,-0.08809583634138107,0.9999067187309265,0.5259454250335693,0.4605109691619873,-0.0033140734303742647,0.9995518922805786,0.4951402246952057,0.4595264494419098,0.0032941773533821106,0.9996870160102844,0.5211337804794312,0.5596081018447876,0.028111839666962624,0.9751019477844238,0.4951271116733551,0.5543164610862732,0.0397113673388958,0.9793954491615295,0.5175600647926331,0.6302055716514587,0.19228926301002502,0.9272100925445557,0.49729499220848083,0.6410645842552185,0.19193266332149506,0.9646242260932922,0.5435763597488403,0.45458248257637024,-0.10304845869541168,0.862949550151825,0.4778743386268616,0.45954471826553345,-0.11310674995183945,0.8692025542259216,179.25317200496974,0.5105428248643875,0.46001870930194855,130.8674991317453,140.6847664981076,0.5675385522688184,0.0030082771092717537,-0.010887332121655664,0.03346579748660855,0.05799645521008604,178.9181380000228,2.808583887176352,78,1762115280.271202
0.509137749671936,0.2501141130924225,-0.22570261359214783,0.9999577403068542,0.5413050055503845,0.3070918917655945,-0.09101870656013489,0.9998866319656372,0.48383158445358276,0.3085939288139343,-0.09041674435138702,0.9999068379402161,0.5259760022163391,0.4604320526123047,-0.00399545393884182,0.9995695352554321,0.49530115723609924,0.4593707323074341,0.003963961731642485,0.9996811747550964,0.5220522284507751,0.5578156113624573,0.02625364623963833,0.9760093688964844,0.49528685212135315,0.5514793992042542,0.0485549159348011,0.9794992208480835,0.5180244445800781,0.630329430103302,0.19803620874881744,0.9321534037590027,0.4985886216163635,0.6311973333358765,0.21257996559143066,0.965735673904419,0.5438336730003357,0.4536161720752716,-0.10617981851100922,0.8627694249153137,0.4779581129550934,0.4600749611854553,-0.11465565115213394,0.870757520198822,179.27292049463395,0.5106385797262192,0.4599013924598694,130.15430296664616,141.73641733388513,0.5750345909586432,0.0014691734219074654,-0.0018000003658072636,-0.02361457358698452,0.13942755528401996,178.50294629147842,5.301310908714967,79,1762115280.336378
0.5091615319252014,0.24911268055438995,-0.22106444835662842,0.9999581575393677,0.5412651896476746,0.30633848905563354,-0.09443021565675735,0.9998931884765625,0.4840019643306732,0.30798956751823425,-0.0865747481584549,0.9999030232429504,0.5262104272842407,0.4600468873977661,-0.007644774857908487,0.9995898604393005,0.4954831004142761,0.4588850140571594,0.007610152009874582,0.9996740221977234,0.5228758454322815,0.555135190486908,0.017136868089437485,0.9769180417060852,0.49554258584976196,0.5483917593955994,0.05570399761199951,0.9794140458106995,0.5189337134361267,0.6296332478523254,0.18807284533977509,0.9366788864135742,0.499857097864151,0.6242200136184692,0.22764572501182556,0.9665404558181763,0.5440988540649414,0.4527113735675812,-0.12333269417285919,0.8661879301071167,0.477832168340683,0.45943281054496765,-0.11002844572067261,0.871764600276947,179.32783412472787,0.5108467638492584,0.45946595072746277,128.16990705978762,142.02613688234658,0.5715933911756624,0.003244904215983203,-0.006787101209609989,0.02767778952605973,-0.07773246257851371,178.34844047093944,9.545451428433028,80,1762115280.4005353
0.5091453194618225,0.24840940535068512,-0.22285985946655273,0.9999586343765259,0.5412366986274719,0.30590128898620605,-0.0984644666314125,0.9998996257781982,0.4841741621494293,0.30752328038215637,-0.08674465119838715,0.9998986721038818,0.5264183282852173,0.45945069193840027,-0.009266442619264126,0.9996086955070496,0.4957531988620758,0.458119660615921,0.00923468079417944,0.9996668100357056,0.5232478380203247,0.5536772608757019,0.01080537773668766,0.9776923060417175,0.49564290046691895,0.5471358895301819,0.05462269112467766,0.9791532158851624,0.5193570256233215,0.6282912492752075,0.18693271279335022,0.9406658411026001,0.5006314516067505,0.6214905977249146,0.23119258880615234,0.9671270251274109,0.5442680716514587,0.4526388347148895,-0.1305510550737381,0.8710764646530151,0.47783344984054565,0.4589034616947174,-0.11089354753494263,0.8726288676261902,179.3897889160818,0.5110857635736465,0.45878517627716064,124.99913088553734,139.82346028614006,0.5729712986237033,0.0029537753222836096,-0.008413627992633517,-0.003598034868095114,-0.020102092941856983,178.37181712947924,2.9455483411242347,81,1762115280.4814487
0.5091065764427185,0.24707864224910736,-0.2167314738035202,0.9999591708183289,0.5411278009414673,0.3053472340106964,-0.0979498028755188,0.9999067187309265,0.4842250943183899,0.30658644437789917,-0.07839377224445343,0.9998936653137207,0.5264003872871399,0.45926475524902344,-0.010704917833209038,0.9996317625045776,0.49573859572410583,0.45721516013145447,0.010677896440029144,0.999666154384613,0.5236139297485352,0.5524635910987854,0.007570127956569195,0.9784997701644897,0.49568215012550354,0.546088457107544,0.05728384852409363,0.9789994359016418,0.5199070572853088,0.627475380897522,0.17947807908058167,0.9444702863693237,0.5019471645355225,0.6164976954460144,0.239389106631279,0.967548668384552,0.5443372130393982,0.45196887850761414,-0.13314926624298096,0.876940131187439,0.47798675298690796,0.45705777406692505,-0.10256397724151611,0.8726249933242798,179.39537334650146,0.5110694915056229,0.45823995769023895,124.68152578244961,138.77284568698445,0.5676054164750004,-0.0002448896112982917,-0.008205371783693401,-0.048138921931640107,0.0031341917931745327,178.75242661058692,1.2553648646856883,82,1762115280.5478952
0.5090447664260864,0.2460375279188156,-0.2141711413860321,0.999958872795105,0.5410338640213013,0.3051300644874573,-0.09752108156681061,0.9999131560325623,0.48426705598831177,0.3060460090637207,-0.07477836310863495,0.9998871088027954,0.5263878107070923,0.45910170674324036,-0.011902103200554848,0.999652624130249,0.4957956373691559,0.45656657218933105,0.011879786849021912,0.9996629953384399,0.5239993333816528,0.5512607097625732,0.0038829990662634373,0.9792876243591309,0.49584612250328064,0.5456475615501404,0.060586802661418915,0.9786580801010132,0.520583987236023,0.6255117654800415,0.17604848742485046,0.947909414768219,0.5030977725982666,0.6134849786758423,0.2464793175458908,0.9678263664245605,0.5443809032440186,0.4517131447792053,-0.135088711977005,0.8817545771598816,0.47837892174720764,0.4551682472229004,-0.09841980040073395,0.8696220517158508,179.41341111288796,0.5110917240381241,0.4578341394662857,123.06013931175268,138.6716426842665,0.5661058177801783,0.000365461265025063,-0.006670892822850245,0.010033027202728329,0.025223965023026193,179.07560057127796,0.8122003818608114,83,1762115280.6087294
0.5090118050575256,0.24524135887622833,-0.21304933726787567,0.9999595284461975,0.5407902002334595,0.3051653504371643,-0.09613233059644699,0.9999187588691711,0.48416489362716675,0.3055100440979004,-0.07596467435359955,0.999887228012085,0.5263820290565491,0.4581497311592102,-0.011206020601093769,0.9996733069419861,0.4958328604698181,0.4557810127735138,0.011179085820913315,0.9996681809425354,0.5246638655662537,0.5516843199729919,0.003458189545199275,0.9800273180007935,0.4964084029197693,0.545630156993866,0.057814471423625946,0.9785770177841187,0.5212827920913696,0.6252326369285583,0.17626023292541504,0.9509784579277039,0.5043057203292847,0.6127052903175354,0.24138924479484558,0.9682339429855347,0.5443822145462036,0.4507056772708893,-0.13126255571842194,0.8858866691589355,0.4782789349555969,0.4539082944393158,-0.09993121773004532,0.8724502325057983,179.48229150491883,0.5111074447631836,0.456965371966362,121.97424538494764,137.4669412513128,0.5636172154888246,0.00019744367521469893,-0.010911242798452491,-0.002110208677226848,-0.05325646751089486,179.6512292959498,0.6064755187863958,84,1762115280.6883507
0.5089749097824097,0.24515779316425323,-0.2158673256635666,0.9999608993530273,0.5404055714607239,0.3052060902118683,-0.09930478036403656,0.9999243021011353,0.48409566283226013,0.30528658628463745,-0.07861938327550888,0.9998879432678223,0.5263633131980896,0.45678672194480896,-0.011556083336472511,0.9996926188468933,0.4958306849002838,0.455112487077713,0.011522073298692703,0.9996725916862488,0.5249427556991577,0.5512667894363403,0.007412657141685486,0.9807298183441162,0.4973284602165222,0.5449831485748291,0.06331196427345276,0.9782695174217224,0.5220823884010315,0.6255050897598267,0.1768878698348999,0.9538450241088867,0.5052851438522339,0.612791895866394,0.24181857705116272,0.9685400724411011,0.5443758964538574,0.4507618844509125,-0.13863341510295868,0.8913734555244446,0.4782226085662842,0.45408517122268677,-0.10069358348846436,0.8767900466918945,179.56141523151848,0.5110969990491867,0.455949604511261,125.0126002647825,140.73653412607646,0.5663071005509545,-0.00016463561277328104,-0.016009580336542435,-0.005706756423560738,-0.08035524665509587,179.91809466206294,0.45254865368030445,85,1762115280.7517982
0.5089637041091919,0.2450031042098999,-0.21594464778900146,0.9999619126319885,0.5401760339736938,0.3052380084991455,-0.09903964400291443,0.9999294877052307,0.48405471444129944,0.30522584915161133,-0.07763950526714325,0.9998863935470581,0.526351809501648,0.4562723934650421,-0.012030217796564102,0.9997109174728394,0.49581179022789,0.4550127685070038,0.011996528133749962,0.9996759295463562,0.5252158641815186,0.55124431848526,-0.0015156107256188989,0.9814749956130981,0.49770277738571167,0.5454379320144653,0.060203295201063156,0.9780142903327942,0.5224853157997131,0.625457227230072,0.17173229157924652,0.9565455317497253,0.5057523846626282,0.6133156418800354,0.2438831776380539,0.9689438939094543,0.5443354845046997,0.451037734746933,-0.13945266604423523,0.8964129090309143,0.47817254066467285,0.45470017194747925,-0.10191065073013306,0.879386842250824,179.60628775480757,0.511081799864769,0.45564258098602295,119.50996831369558,138.3409081363529,0.5654693052319932,-0.00023974547492168315,-0.004842858593418,-0.00118475104171192,0.17613912260329284,-179.98758619201678,0.38848445886486804,86,1762115280.8151953
0.5072558522224426,0.25005438923835754,-0.22654783725738525,0.9999580979347229,0.5391373038291931,0.30744481086730957,-0.10986517369747162,0.999932587146759,0.4836333394050598,0.30626362562179565,-0.08615134656429291,0.9998835921287537,0.5259361267089844,0.4574703574180603,-0.011676643043756485,0.9997263550758362,0.49564021825790405,0.45505815744400024,0.011641453020274639,0.9996781945228577,0.5254663228988647,0.5517493486404419,0.0011339301709085703,0.9817735552787781,0.4987927973270416,0.5461657643318176,0.06866182386875153,0.9773114323616028,0.5224435925483704,0.6262609958648682,0.16847623884677887,0.9585095643997192,0.5058743953704834,0.6145760416984558,0.2576916515827179,0.9689845442771912,0.5442333221435547,0.4534516930580139,-0.13952705264091492,0.8984173536300659,0.47806960344314575,0.4556252658367157,-0.10298658907413483,0.8749376535415649,179.77100639881826,0.5107881724834442,0.4562642574310303,121.73785464007887,141.9517397947591,0.5748855068427416,-0.004114754563921632,0.008711878224146687,-0.05430253562274089,0.18994963933946368,-178.7808669841079,0.29409928066326074,87,1762115280.886555
0.506381630897522,0.25306037068367004,-0.2195822298526764,0.9999588131904602,0.5374552607536316,0.31270554661750793,-0.10335785150527954,0.999934196472168,0.48189106583595276,0.3099502921104431,-0.08652408421039581,0.9998856782913208,0.5244256258010864,0.46094802021980286,-0.011194610968232155,0.9997369647026062,0.4949451982975006,0.457983136177063,0.01115973386913538,0.9996798038482666,0.5246323943138123,0.5550062656402588,0.015300681814551353,0.9819918274879456,0.49864014983177185,0.5494593977928162,0.06945417821407318,0.9767970442771912,0.5219113826751709,0.6295763254165649,0.17371708154678345,0.9603835344314575,0.5057640671730042,0.616686224937439,0.24287831783294678,0.9688929915428162,0.5421905517578125,0.4567521810531616,-0.1150563508272171,0.8922464847564697,0.4773496985435486,0.45757895708084106,-0.10382039844989777,0.8701029419898987,-179.9952625015061,0.5096854120492935,0.4594655781984329,130.92789401835864,143.71630080616225,0.5657643518250121,-0.013919337995871126,0.040407929423943854,-0.12375608198450616,0.4000760601500902,-177.16120683858486,0.005561415080526296,88,1762115280.96578
0.5061025619506836,0.2543928027153015,-0.2028796672821045,0.9999604225158691,0.5365803241729736,0.3144928514957428,-0.09380996227264404,0.9999381899833679,0.4814372658729553,0.31104743480682373,-0.07483890652656555,0.9998856782913208,0.5237151384353638,0.46239230036735535,-0.010920973494648933,0.9997497797012329,0.4946219027042389,0.4596797525882721,0.010889416560530663,0.9996818900108337,0.5245236754417419,0.557271420955658,0.01523484755307436,0.9822254180908203,0.49866318702697754,0.5526511669158936,0.06436220556497574,0.9763485789299011,0.5219587087631226,0.630706250667572,0.1724521815776825,0.9619730114936829,0.5064805746078491,0.6177590489387512,0.2318839132785797,0.9688724279403687,0.5418738722801208,0.4585441052913666,-0.118385910987854,0.8957267999649048,0.4769136905670166,0.4582902193069458,-0.09254497289657593,0.8685884475708008,-179.93827577883374,0.5091685205698013,0.4610360264778137,130.43009294019183,141.17246501401587,0.5485535987206512,-0.007653232325728346,0.023252473709664323,0.09277762233240919,-0.25400822695725944,-176.42472593277023,0.06079663194411777,89,1762115281.033319
