nose_x,nose_y,nose_z,nose_visibility,left_shoulder_x,left_shoulder_y,left_shoulder_z,left_shoulder_visibility,right_shoulder_x,right_shoulder_y,right_shoulder_z,right_shoulder_visibility,left_hip_x,left_hip_y,left_hip_z,left_hip_visibility,right_hip_x,right_hip_y,right_hip_z,right_hip_visibility,left_knee_x,left_knee_y,left_knee_z,left_knee_visibility,right_knee_x,right_knee_y,right_knee_z,right_knee_visibility,left_ankle_x,left_ankle_y,left_ankle_z,left_ankle_visibility,right_ankle_x,right_ankle_y,right_ankle_z,right_ankle_visibility,left_wrist_x,left_wrist_y,left_wrist_z,left_wrist_visibility,right_wrist_x,right_wrist_y,right_wrist_z,right_wrist_visibility,trunk_lateral_inclination,center_mass_x,center_mass_y,left_knee_angle,right_knee_angle,person_height,center_mass_velocity_x,center_mass_velocity_y,center_mass_acceleration_x,center_mass_acceleration_y,body_orientation,torso_leg_ratio,frame,timestamp
0.49543577432632446,0.18225954473018646,-0.2196173369884491,0.9999895095825195,0.5289583802223206,0.2549217939376831,-0.10472863912582397,0.9999445676803589,0.4684930741786957,0.25512954592704773,-0.09339229762554169,0.9998911619186401,0.5143603086471558,0.4131903052330017,-0.0069351112470030785,0.9998816251754761,0.48239555954933167,0.4140336215496063,0.0069127813912928104,0.9998173117637634,0.5167939066886902,0.516063392162323,0.022647792473435402,0.9936648607254028,0.486768901348114,0.5136152505874634,0.0464254729449749,0.9919615387916565,0.5185438990592957,0.6080201268196106,0.15210819244384766,0.9943991303443909,0.4906848073005676,0.602806806564331,0.1781909316778183,0.9923601746559143,0.5331429243087769,0.420849472284317,-0.12211818993091583,0.9036068320274353,0.4643636643886566,0.42642706632614136,-0.11762724071741104,0.8080761432647705,179.87434572987513,0.4983779340982437,0.413611963391304,141.42583340094194,145.73822760323884,0.5720044183268275,0.0,0.0,0.0,0.0,179.8031389218973,0.12272383251811517,0,1762115369.906765
0.49549373984336853,0.18230557441711426,-0.2095656394958496,0.9999877214431763,0.5294139981269836,0.25498783588409424,-0.09428282082080841,0.9999452233314514,0.46865907311439514,0.2551736831665039,-0.08215571194887161,0.9998820424079895,0.5148362517356873,0.41646066308021545,-0.007260303013026714,0.9998840093612671,0.48248106241226196,0.41703516244888306,0.007226496934890747,0.9998169541358948,0.5176950693130493,0.5159934759140015,0.017231998965144157,0.9934613108634949,0.4870174825191498,0.5142287015914917,0.059166472405195236,0.9913206696510315,0.5196666717529297,0.6070579290390015,0.16627056896686554,0.9940720796585083,0.4906831383705139,0.6026965379714966,0.222652405500412,0.9917571544647217,0.5335502028465271,0.4190697968006134,-0.11260244995355606,0.9026501178741455,0.4644182324409485,0.42447078227996826,-0.10253675282001495,0.8039928078651428,179.86607788884305,0.4986586570739746,0.41674791276454926,135.24595970439339,146.52911409530284,0.5847208318144393,0.0042135007371781105,0.0470689118392236,0.0632423777069792,0.7064790269352819,179.82473467457805,0.13401710905899653,1,1762115369.9733896
0.4955623745918274,0.18231824040412903,-0.2049984186887741,0.9999853372573853,0.5298177003860474,0.2549963593482971,-0.08969365060329437,0.9999450445175171,0.46875104308128357,0.25520071387290955,-0.0783746987581253,0.9998708367347717,0.5152231454849243,0.41897961497306824,-0.007259788457304239,0.9998841881752014,0.4825679659843445,0.4192793667316437,0.007225595414638519,0.99981290102005,0.5182430148124695,0.5164101123809814,0.016759995371103287,0.99330735206604,0.4871472716331482,0.5160612463951111,0.05851859599351883,0.990890622138977,0.520048975944519,0.6064768433570862,0.17133937776088715,0.9937428832054138,0.4906221032142639,0.6026722192764282,0.22049161791801453,0.9912465810775757,0.533690869808197,0.41805893182754517,-0.10338649898767471,0.9008358716964722,0.4644884467124939,0.4231395423412323,-0.09957008063793182,0.795787513256073,179.86418737773533,0.4988955557346344,0.41912949085235596,134.0698108572914,146.04479598816283,0.5823468540613616,0.003825136086109593,0.038454671968956196,-0.00627081485912215,-0.13909170989144698,179.8082651221587,0.14720092956215977,2,1762115370.0353217
0.49570852518081665,0.18251755833625793,-0.20678579807281494,0.9999832510948181,0.5304033756256104,0.25506332516670227,-0.09289076179265976,0.9999449849128723,0.46898436546325684,0.25570666790008545,-0.08168862760066986,0.9998645782470703,0.5159375071525574,0.42070698738098145,-0.007252479437738657,0.9998846054077148,0.48287805914878845,0.4213288128376007,0.007217120379209518,0.999809980392456,0.5190144777297974,0.5177960991859436,0.017240753397345543,0.9932197332382202,0.4876733422279358,0.518085777759552,0.061881016939878464,0.9905997514724731,0.5202090740203857,0.6061594486236572,0.17771503329277039,0.9934778213500977,0.49054646492004395,0.6026727557182312,0.23187318444252014,0.9907878041267395,0.5341335535049438,0.41801661252975464,-0.10754477977752686,0.8985263109207153,0.46518978476524353,0.42315757274627686,-0.10389930009841919,0.7924314141273499,179.901036668561,0.4994077831506729,0.4210179001092911,132.98422232984058,145.89365860168107,0.5894827354317297,0.008074950575429786,0.029769611970142298,0.06699571495295699,-0.13691463603695803,179.39986861898365,0.1405931932779909,3,1762115370.0987558
0.49673381447792053,0.1830834448337555,-0.23034267127513885,0.9999829530715942,0.5316886901855469,0.2551570236682892,-0.10170987993478775,0.999945342540741,0.46987342834472656,0.2559281587600708,-0.09350968897342682,0.9998661875724792,0.5168647170066833,0.42097771167755127,-0.00726925116032362,0.9998802542686462,0.4836491048336029,0.42132726311683655,0.00723454263061285,0.999801754951477,0.5194386839866638,0.5182362198829651,0.017634080722928047,0.9933332204818726,0.4879125952720642,0.5181351900100708,0.06387608498334885,0.9905810952186584,0.5202373266220093,0.6060612797737122,0.1758127510547638,0.9933882355690002,0.49048224091529846,0.6029144525527954,0.2324231117963791,0.9906148314476013,0.5351294875144958,0.41871270537376404,-0.12019924819469452,0.896217405796051,0.46596255898475647,0.4233449399471283,-0.12026353180408478,0.7941323518753052,179.81866187694732,0.5002569109201431,0.4211524873971939,133.39001450365188,147.0123494410992,0.6053198402178128,0.010713082504120995,0.0016980303449603542,0.03328418410630739,-0.3541671592714175,179.28528177084723,0.31104065983012885,4,1762115370.1780167
0.49849581718444824,0.18312455713748932,-0.23050840198993683,0.999982476234436,0.5333173871040344,0.2552163898944855,-0.10096906125545502,0.9999440312385559,0.47142690420150757,0.25609835982322693,-0.09447063505649567,0.9998658299446106,0.5181783437728882,0.4217625558376312,-0.006642082240432501,0.9998752474784851,0.48487383127212524,0.42166128754615784,0.006612527184188366,0.9997923970222473,0.5203755497932434,0.5195869207382202,0.017945673316717148,0.9933430552482605,0.4883759617805481,0.518812358379364,0.0622873418033123,0.9905023574829102,0.5203350782394409,0.6060404181480408,0.1801569014787674,0.9931818246841431,0.49048179388046265,0.6031615138053894,0.23213689029216766,0.9903228878974915,0.5364532470703125,0.41910693049430847,-0.12074162811040878,0.8916091322898865,0.4668639302253723,0.4249027669429779,-0.1267920434474945,0.7949022054672241,179.70807700512657,0.5015260875225067,0.42171192169189453,132.14954279751367,146.21002529290072,0.6069250338142153,0.01993608132754598,0.008787530100854247,0.14487381368774024,0.11136105364840995,179.18356212584726,0.8184911256581773,5,1762115370.241679
0.5000866651535034,0.18299217522144318,-0.22375623881816864,0.9999781847000122,0.5355197191238403,0.2553619146347046,-0.09595192968845367,0.999934732913971,0.47302141785621643,0.2564973533153534,-0.08347491919994354,0.9998564720153809,0.5199212431907654,0.4242745339870453,-0.006876632571220398,0.9998652338981628,0.4862547814846039,0.42271360754966736,0.006854337640106678,0.9997765421867371,0.5217016935348511,0.5200231075286865,0.01747943088412285,0.9930368661880493,0.48903727531433105,0.5186772346496582,0.05850271135568619,0.9902752637863159,0.5207213163375854,0.6060820817947388,0.1865384876728058,0.9927272796630859,0.4905504584312439,0.6036015152931213,0.22463390231132507,0.9898489713668823,0.5379189252853394,0.41911637783050537,-0.1149599552154541,0.8649411201477051,0.4689958095550537,0.4265514016151428,-0.10965599864721298,0.7821072340011597,179.59565195918032,0.5030880123376846,0.4234940707683563,131.2315577080043,145.35210285409917,0.6019325743260513,0.024571898219516677,0.028036423580245523,0.0729297721163644,0.30281985843220227,178.95919269831367,4.422374954726828,6,1762115370.3052444
0.5006685256958008,0.1829937994480133,-0.22446763515472412,0.9999771118164062,0.5362969636917114,0.25579699873924255,-0.09799511730670929,0.9999322295188904,0.4739587903022766,0.25655248761177063,-0.08456051349639893,0.9998536109924316,0.5207885503768921,0.42466142773628235,-0.007750403136014938,0.9998595714569092,0.48704224824905396,0.42284345626831055,0.007725190371274948,0.9997666478157043,0.5220555067062378,0.5200183391571045,0.014705657958984375,0.9929518699645996,0.4890710711479187,0.5186306238174438,0.058024726808071136,0.9901387691497803,0.5207210779190063,0.6061096787452698,0.18258249759674072,0.9925917387008667,0.4905015826225281,0.6036009788513184,0.22485215961933136,0.9896373748779297,0.5379945635795593,0.4201786518096924,-0.12384331226348877,0.8550041317939758,0.4697955250740051,0.42668405175209045,-0.1121172308921814,0.7781261801719666,179.58545413662915,0.503915399312973,0.42375244200229645,130.38646056354872,144.68953179785396,0.6011105925329717,0.01153023506935792,0.003600589749979234,-0.1817449951569515,-0.3405309928652587,179.30565490659416,24.723582039490992,7,1762115370.3770025
0.5026620030403137,0.1837867796421051,-0.2245045155286789,0.9999757409095764,0.5379191637039185,0.25623655319213867,-0.09897966682910919,0.9999324083328247,0.47536858916282654,0.257217139005661,-0.08507350832223892,0.9998518228530884,0.5220019221305847,0.4261699318885803,-0.007957863621413708,0.9998573660850525,0.4882113039493561,0.423351913690567,0.007937521673738956,0.9997609853744507,0.5229212045669556,0.5210825800895691,0.0194077305495739,0.99274742603302,0.48904484510421753,0.518582820892334,0.060327671468257904,0.9900319576263428,0.5210273861885071,0.6062802076339722,0.18954014778137207,0.9922733306884766,0.4905131757259369,0.6037025451660156,0.23195931315422058,0.9893327951431274,0.5402528643608093,0.42194032669067383,-0.12826015055179596,0.8539725542068481,0.47078752517700195,0.42744114995002747,-0.11388913542032242,0.7788712978363037,179.4758429418743,0.5051066130399704,0.42476092278957367,132.6690548224205,145.19281304034425,0.6056973108571183,0.0145377722752111,0.01230766880626633,0.03670448888977128,0.10626265432789178,179.10186553621688,7.192081500365278,8,1762115370.4589417
0.5042939186096191,0.18478232622146606,-0.23302793502807617,0.9999750256538391,0.5400899648666382,0.25689899921417236,-0.11065107583999634,0.9999339580535889,0.47687339782714844,0.25799620151519775,-0.08703799545764923,0.9998462796211243,0.5232961177825928,0.4279012084007263,-0.00889869686216116,0.9998551607131958,0.4888528883457184,0.424071729183197,0.008881250396370888,0.9997518062591553,0.5230244994163513,0.5225939154624939,0.018793022260069847,0.9925464391708374,0.48942166566848755,0.5186054706573486,0.059726543724536896,0.9899063110351562,0.5211539268493652,0.6069066524505615,0.19004078209400177,0.991965651512146,0.4905260503292084,0.6037369966506958,0.23320718109607697,0.9889883995056152,0.5415892004966736,0.42449498176574707,-0.14199653267860413,0.8537682294845581,0.47224220633506775,0.42820385098457336,-0.11485396325588226,0.7699011564254761,179.1817212241278,0.5060745030641556,0.42598646879196167,132.51053124204458,144.40883214238542,0.6120222111524515,0.012849761023011427,0.01627041591491786,-0.02241012992481276,0.052609647861252634,179.0056601816588,6.267160060982585,9,1762115370.5342653
0.50497967004776,0.18675528466701508,-0.23151111602783203,0.9999740719795227,0.5411670804023743,0.25744348764419556,-0.10835234820842743,0.9999361634254456,0.47773709893226624,0.25900664925575256,-0.08788394927978516,0.9998461604118347,0.5242801904678345,0.43063491582870483,-0.008533760905265808,0.9998594522476196,0.4894532561302185,0.4265674650669098,0.00851907767355442,0.9997545480728149,0.5234917402267456,0.5258325934410095,0.025927934795618057,0.992510199546814,0.4896810054779053,0.523915708065033,0.07055595517158508,0.9899488687515259,0.5211402773857117,0.6078687906265259,0.2023731917142868,0.9917827248573303,0.49064522981643677,0.6037907600402832,0.2532040774822235,0.9887717366218567,0.5431821346282959,0.4253057837486267,-0.13513211905956268,0.8567667007446289,0.4727213978767395,0.4306282103061676,-0.11682363599538803,0.7730502486228943,179.13063396736223,0.5068667232990265,0.4286011904478073,134.8346851649747,146.12470417614594,0.621755999869768,0.013406654481779155,0.044248642313030564,0.009424245754185292,0.47347239797984936,178.58829473885555,3.7219906641469125,10,1762115370.5933568
0.50593101978302,0.18682360649108887,-0.2319072186946869,0.9999722242355347,0.5422843098640442,0.2574441134929657,-0.10710857063531876,0.9999354481697083,0.47850924730300903,0.2593819200992584,-0.09057183563709259,0.9998457431793213,0.5252590179443359,0.43149158358573914,-0.007207833230495453,0.999859631061554,0.4902912676334381,0.4274652600288391,0.0072024064138531685,0.9997542500495911,0.5243417024612427,0.5272242426872253,0.032216187566518784,0.9923776984214783,0.48990464210510254,0.5246726870536804,0.07229748368263245,0.9899736046791077,0.5212458968162537,0.6090239882469177,0.20751135051250458,0.9914605021476746,0.49111613631248474,0.6043490767478943,0.2554234564304352,0.9884306192398071,0.5446600317955017,0.42606833577156067,-0.13280165195465088,0.8553141951560974,0.4733235836029053,0.43125033378601074,-0.11951873451471329,0.7717727422714233,179.1219913315663,0.507775142788887,0.4294784218072891,137.3966445975138,147.31361764261723,0.625300711338637,0.011142234887808187,0.010759696337865065,-0.027774277503065593,-0.41075924324091645,178.25960201966146,2.779642579027874,11,1762115370.6748862
0.5062311887741089,0.18691089749336243,-0.2318423092365265,0.9999699592590332,0.543131411075592,0.25757789611816406,-0.10609209537506104,0.9999353289604187,0.47874554991722107,0.25970104336738586,-0.09245625138282776,0.9998470544815063,0.525570809841156,0.4324638843536377,-0.006274825427681208,0.9998614192008972,0.4906178116798401,0.42846107482910156,0.006266343407332897,0.9997565150260925,0.5251153111457825,0.5281400680541992,0.035184722393751144,0.992329478263855,0.49036234617233276,0.5253064632415771,0.07303343713283539,0.9900473356246948,0.5213550329208374,0.6101210117340088,0.21128425002098083,0.9912397265434265,0.49166232347488403,0.6049595475196838,0.2578314542770386,0.9882031679153442,0.5451588034629822,0.4264766275882721,-0.12572798132896423,0.855661153793335,0.47319602966308594,0.4316805899143219,-0.12002062797546387,0.7760185599327087,179.05167508606857,0.508094310760498,0.43046247959136963,138.38378394715906,147.8930292188575,0.6280591251266324,0.004810421899536094,0.014831479145780107,-0.09543154254735758,0.061368918348800316,178.11133514206762,2.3101723351859564,12,1762115370.7412355
0.5073809623718262,0.18661484122276306,-0.23057253658771515,0.9999680519104004,0.5442478060722351,0.2576141357421875,-0.09493272006511688,0.9999345541000366,0.47922611236572266,0.2597440183162689,-0.0899541825056076,0.9998502731323242,0.526238203048706,0.4338516294956207,-0.004501922521740198,0.9998635649681091,0.49121198058128357,0.4299671947956085,0.004486831836402416,0.9997614026069641,0.5255006551742554,0.5291427373886108,0.0397123284637928,0.9920221567153931,0.49039238691329956,0.5304259657859802,0.0687737986445427,0.9901137351989746,0.5216442346572876,0.610383927822113,0.23783060908317566,0.9906870722770691,0.49243617057800293,0.6087936162948608,0.2525278925895691,0.987967312335968,0.5450445413589478,0.4280632734298706,-0.10950826108455658,0.8472101092338562,0.47335654497146606,0.43211835622787476,-0.11769892275333405,0.7773862481117249,179.00392789010033,0.5087250918149948,0.4319094121456146,137.18402315017784,145.69683155628704,0.6365899979744011,0.009457463198758875,0.021694233340244364,0.06967428992548708,0.10289504539424411,178.12386210296577,3.319526328615772,13,1762115370.8079321
0.507408618927002,0.18647730350494385,-0.22254672646522522,0.9999657273292542,0.5448529720306396,0.25783056020736694,-0.0869196355342865,0.999931812286377,0.4794863164424896,0.26025646924972534,-0.08517914265394211,0.9998520612716675,0.5264652967453003,0.43626242876052856,-0.002786735538393259,0.9998639225959778,0.4917373061180115,0.433151513338089,0.0027679894119501114,0.9997686147689819,0.5256186723709106,0.5336961150169373,0.040015093982219696,0.9914789199829102,0.49041256308555603,0.5398887395858765,0.04866080731153488,0.9901590347290039,0.5216389894485474,0.6107597947120667,0.2523312568664551,0.989697277545929,0.49279338121414185,0.6197142004966736,0.2357911765575409,0.9876680970191956,0.5457331538200378,0.4286400377750397,-0.09694851189851761,0.8404908776283264,0.4733445644378662,0.432662695646286,-0.11106594651937485,0.7785348892211914,178.99930685363435,0.5091013014316559,0.4347069710493088,133.66331140169834,136.34613849236274,0.6336859513599785,0.005672891635568785,0.04218459019104525,-0.05706782446333487,0.30897555203499344,177.87459542530945,3.8333565918063144,14,1762115370.8742492
0.5069679617881775,0.18688155710697174,-0.22287699580192566,0.999966025352478,0.5455709099769592,0.2598347067832947,-0.09028469026088715,0.999927282333374,0.47937077283859253,0.26103565096855164,-0.08535793423652649,0.9998577237129211,0.526556670665741,0.4395538866519928,-0.0031132115982472897,0.9998540878295898,0.4916844367980957,0.43662363290786743,0.0030905555468052626,0.9997795224189758,0.5254424810409546,0.5363175868988037,0.05087832361459732,0.9907733201980591,0.49043044447898865,0.5466950535774231,0.033831529319286346,0.9903175234794617,0.5216915607452393,0.6112631559371948,0.2665218114852905,0.9886865615844727,0.4927104115486145,0.6368185877799988,0.18926768004894257,0.9878659844398499,0.5462955236434937,0.43249067664146423,-0.100639209151268,0.8409218192100525,0.4734953045845032,0.43587633967399597,-0.10813343524932861,0.7830855250358582,178.9196131501593,0.5091205537319183,0.4380887597799301,138.32467109305654,135.6871688746125,0.6279358914504326,0.0002533516143909992,0.04450281902694155,-0.07131870970763717,0.03050684905676395,178.96070477555622,4.549075444509769,15,1762115370.9502397
0.5067443251609802,0.18758061528205872,-0.2308640480041504,0.9999673366546631,0.5459150671958923,0.26101401448249817,-0.09514205157756805,0.9999178647994995,0.4791383743286133,0.2630891501903534,-0.09190051257610321,0.9998674988746643,0.5271271467208862,0.4427257180213928,-0.003329641418531537,0.9998418688774109,0.4920894205570221,0.44093212485313416,0.0033126261550933123,0.999797523021698,0.5249356031417847,0.5403684377670288,0.07523133605718613,0.9909205436706543,0.4904009699821472,0.5565011501312256,0.008520375937223434,0.9909007549285889,0.5216914415359497,0.6114005446434021,0.3109428584575653,0.9874300956726074,0.4926680624485016,0.6546709537506104,0.11463616788387299,0.9883682131767273,0.5470587015151978,0.4336141347885132,-0.10259874165058136,0.8383139371871948,0.47340527176856995,0.44194743037223816,-0.1180284172296524,0.7889915704727173,179.06996374277958,0.5096082836389542,0.4418289214372635,145.59019607686133,135.3172057353945,0.6286962289300397,0.006552700278676447,0.05024944745187226,0.08463238188285054,0.07720652996316524,178.22006358565676,5.96165685468733,16,1762115371.0246716
0.5065529346466064,0.18794949352741241,-0.25247710943222046,0.9999695420265198,0.5458420515060425,0.26155292987823486,-0.11336807161569595,0.9999176263809204,0.4790566861629486,0.2635595202445984,-0.1094055324792862,0.9998781681060791,0.5272306203842163,0.44263800978660583,-0.003479568986222148,0.9998360276222229,0.49220389127731323,0.44187918305397034,0.0034531126730144024,0.9998148679733276,0.5243565440177917,0.5403773188591003,0.08567255735397339,0.9911031126976013,0.49038904905319214,0.5564614534378052,-0.0008647058857604861,0.9914644956588745,0.5217715501785278,0.6099243760108948,0.32044535875320435,0.9861544370651245,0.4926362633705139,0.6574960350990295,0.09821572154760361,0.9888457655906677,0.5477113723754883,0.43541043996810913,-0.14182394742965698,0.8461683392524719,0.47329431772232056,0.44319722056388855,-0.14345808327198029,0.7988423109054565,179.1289681734461,0.5097172558307648,0.4422585964202881,148.8650138595424,133.36466437369745,0.6418483787975533,0.0013123081693650963,0.005174402579467051,-0.06310792929335418,-0.5428205915446903,178.27904538348736,16.081681368637796,17,1762115371.1077101
0.506434440612793,0.1888195425271988,-0.25391364097595215,0.9999710917472839,0.5460206270217896,0.26262587308883667,-0.11414621025323868,0.999911904335022,0.4790017604827881,0.2655866742134094,-0.11005935817956924,0.9998875260353088,0.5276273488998413,0.4429817199707031,-0.0035705971531569958,0.9998109936714172,0.49226197600364685,0.44331613183021545,0.0035373694263398647,0.999829888343811,0.523654580116272,0.5412184000015259,0.09940968453884125,0.9912981986999512,0.49048781394958496,0.5622247457504272,-0.0064399391412734985,0.992002546787262,0.5223573446273804,0.6092122197151184,0.33626577258110046,0.9846904277801514,0.49277180433273315,0.6713035106658936,0.07461197674274445,0.989363431930542,0.5478115081787109,0.4355425238609314,-0.14745691418647766,0.8461019396781921,0.47323837876319885,0.44504860043525696,-0.14285215735435486,0.804940402507782,179.17873568885773,0.5099446624517441,0.4431489259004593,152.33846571140697,138.5472072367517,0.6440516827044721,0.0027613283036784417,0.010810995663225425,0.01759500357662601,0.06844340745873138,177.47039631779904,5.191440903004416,18,1762115371.1900642
0.5061367154121399,0.18948842585086823,-0.25815874338150024,0.9999725818634033,0.5460625886917114,0.264218270778656,-0.11774951219558716,0.9999046325683594,0.4784555435180664,0.2692095935344696,-0.10890879482030869,0.9998955726623535,0.52806556224823,0.44552361965179443,-0.003613297361880541,0.9997722506523132,0.49234920740127563,0.44641220569610596,0.003578606992959976,0.9998419880867004,0.5233691930770874,0.5445651412010193,0.08932898193597794,0.9913225173950195,0.4907536506652832,0.5680390000343323,-0.011172284372150898,0.9924037456512451,0.5226002931594849,0.6083608865737915,0.3325563669204712,0.9818354249000549,0.49294549226760864,0.6822811365127563,0.07135216146707535,0.989662766456604,0.5475796461105347,0.43649694323539734,-0.15565679967403412,0.8412947654724121,0.473198801279068,0.4482272267341614,-0.14184576272964478,0.8069915175437927,179.34424025028758,0.5102073848247528,0.4459679126739502,147.83113168179318,137.2085273945346,0.647680479090693,0.003510640839798015,0.037668851649489465,0.010012726213410872,0.3588894429316827,175.77760238319863,2.8796705186361167,19,1762115371.2649002
0.5053240656852722,0.19177110493183136,-0.2632609009742737,0.9999740123748779,0.5458425879478455,0.2658884823322296,-0.12176500260829926,0.9999032616615295,0.4777412414550781,0.2719353437423706,-0.10834336280822754,0.9999032020568848,0.5284082293510437,0.4484773874282837,-0.00547513784840703,0.9997479915618896,0.49239444732666016,0.4498450458049774,0.0054306392557919025,0.9998535513877869,0.5227286219596863,0.5468806624412537,0.08660339564085007,0.9907261729240417,0.49097222089767456,0.5746698379516602,-0.005816430319100618,0.9923315644264221,0.5227905511856079,0.607244610786438,0.34229570627212524,0.9735654592514038,0.49344903230667114,0.6913890242576599,0.07781898230314255,0.989283561706543,0.5479308366775513,0.4395656883716583,-0.1656559258699417,0.8438034057617188,0.47304877638816833,0.4516371786594391,-0.14643338322639465,0.8130980134010315,179.55798677453055,0.5104013383388519,0.44916121661663055,146.30165024621328,139.1928026923888,0.6583206334998992,0.0029807597181560693,0.04907604693001902,-0.008143437411474186,0.17531060649906832,174.92589443992767,1.0946228383162977,20,1762115371.3299687
0.5047202110290527,0.1951315701007843,-0.2867610454559326,0.9999757409095764,0.5457231402397156,0.2686101794242859,-0.13120006024837494,0.9999058246612549,0.4764862060546875,0.2752606272697449,-0.12875333428382874,0.9999108910560608,0.5291482210159302,0.4511115252971649,-0.0019961935468018055,0.9997298121452332,0.49246254563331604,0.45315268635749817,0.0019208384910598397,0.9998646974563599,0.5223675966262817,0.54893958568573,0.10456690937280655,0.989952802658081,0.491290807723999,0.5794353485107422,-0.02681434527039528,0.992479681968689,0.5227319002151489,0.6057450771331787,0.3777599334716797,0.9624580144882202,0.49419790506362915,0.6988360285758972,0.0567423477768898,0.9891294240951538,0.5489376783370972,0.4443731904029846,-0.1762373000383377,0.8456841707229614,0.4729522168636322,0.4556109607219696,-0.1699269860982895,0.8160764575004578,179.90483717137604,0.5108053833246231,0.45213210582733154,149.0788970736663,132.1673009873754,0.6804679580590574,0.005094230584246156,0.03745720207534238,0.026646804945246055,-0.14649129898081464,174.51337388884966,0.1828616959034236,21,1762115371.409283
0.5040348768234253,0.19621345400810242,-0.28793108463287354,0.9999775290489197,0.5456231832504272,0.26936784386634827,-0.1295294165611267,0.9999101758003235,0.47592979669570923,0.2763664722442627,-0.13064385950565338,0.9999181032180786,0.5293253660202026,0.45215877890586853,0.0009458566200919449,0.9997216463088989,0.49251818656921387,0.454520046710968,-0.0010474856244400144,0.9998753070831299,0.5223103761672974,0.5511335730552673,0.11793272197246552,0.9890725016593933,0.491689532995224,0.5805062055587769,-0.02976093254983425,0.9926443696022034,0.522720456123352,0.6041932702064514,0.3892383575439453,0.9503008127212524,0.49518126249313354,0.7016414403915405,0.04540681093931198,0.9889494180679321,0.5499628782272339,0.4452250599861145,-0.17791013419628143,0.8520379662513733,0.472788006067276,0.4569043815135956,-0.17670336365699768,0.8215294480323792,-179.95387495288918,0.5109217762947083,0.4533394128084183,150.71573392766047,135.30579718929087,0.681090221812983,0.001607048215972796,0.016669396172875675,-0.048147840884256075,-0.2870191074693765,174.26556682958943,0.07443310097652413,22,1762115371.4817095
0.5036909580230713,0.1994081288576126,-0.3047986626625061,0.9999794363975525,0.5455600023269653,0.27200356125831604,-0.13572204113006592,0.9999154806137085,0.47480469942092896,0.27965474128723145,-0.14737924933433533,0.9999250173568726,0.5292739868164062,0.45515021681785583,0.005224933382123709,0.9997179508209229,0.4924868941307068,0.4582101106643677,-0.005359356291592121,0.9998854994773865,0.5221725702285767,0.5541443228721619,0.13059042394161224,0.9885296821594238,0.49176526069641113,0.5848994255065918,-0.04036027938127518,0.9928956627845764,0.5227107405662537,0.6014745831489563,0.40588077902793884,0.9402154088020325,0.4970073103904724,0.7095794081687927,0.0288105271756649,0.9889969825744629,0.5508149862289429,0.4491523206233978,-0.1824091076850891,0.85751873254776,0.47230595350265503,0.4618133008480072,-0.19235272705554962,0.8253114223480225,-179.77883790318094,0.5108804404735565,0.45668016374111176,151.34268520042588,135.47512189383525,0.6933376898692135,-0.0006372511182907151,0.05150247916873417,-0.03459910123204499,0.537002059573051,173.8282576149388,0.24146075236763745,23,1762115371.5465753
0.5025931596755981,0.20555607974529266,-0.3206171691417694,0.9999811053276062,0.5453905463218689,0.27641353011131287,-0.1459752470254898,0.9999194145202637,0.47238463163375854,0.2856750786304474,-0.16141222417354584,0.9999317526817322,0.5291847586631775,0.45885607600212097,0.006773182190954685,0.9997020363807678,0.4924647808074951,0.46219953894615173,-0.006931001786142588,0.9998947381973267,0.5214320421218872,0.5584093332290649,0.15328983962535858,0.9869874715805054,0.4920324385166168,0.5895675420761108,-0.042622800916433334,0.9930543899536133,0.5225924849510193,0.6005349159240723,0.42709070444107056,0.924705982208252,0.49987903237342834,0.7189787030220032,0.01863798126578331,0.9890551567077637,0.5521902441978455,0.45336028933525085,-0.18775321543216705,0.8547887802124023,0.4705967307090759,0.46960949897766113,-0.20059402287006378,0.8292304277420044,-179.38162577570412,0.5108247697353363,0.46052780747413635,154.40912249152365,138.8956644398641,0.7083397146024246,-0.0008785164171579711,0.0607180413786876,-0.0038073058256742273,0.14542689667163247,172.77006313148627,0.43005280698769477,24,1762115371.6099443
0.49957507848739624,0.2070179432630539,-0.3195098340511322,0.9999826550483704,0.5445581078529358,0.27837440371513367,-0.1450028121471405,0.9999242424964905,0.47037702798843384,0.28942060470581055,-0.15946193039417267,0.9999377727508545,0.5290958285331726,0.46496182680130005,0.006119729485362768,0.9996932148933411,0.49206000566482544,0.4696023166179657,-0.006271174643188715,0.9999032020568848,0.5202351212501526,0.5700151920318604,0.15007178485393524,0.9839752316474915,0.49205437302589417,0.5964512825012207,-0.037200067192316055,0.9927987456321716,0.5227158665657043,0.6007699966430664,0.42645397782325745,0.8973739743232727,0.5019955039024353,0.728528618812561,0.023578565567731857,0.9884275794029236,0.5533866286277771,0.4579421877861023,-0.18346300721168518,0.8543716073036194,0.4696306586265564,0.4772574007511139,-0.1988629698753357,0.8288884162902832,-179.02831084624168,0.510577917098999,0.4672820717096329,150.04812432458021,141.4145199002307,0.7114059948371798,-0.0037712259512067193,0.1031864878745274,-0.044192605863858155,0.6488004742785793,171.53040056795942,0.5007051149292316,25,1762115371.6754012
0.4963403344154358,0.20579969882965088,-0.32021766901016235,0.9999840259552002,0.5439542531967163,0.2798970639705658,-0.15111173689365387,0.9999281167984009,0.4680913984775543,0.2915920913219452,-0.15852485597133636,0.9999426603317261,0.5290325880050659,0.47188490629196167,0.005142965354025364,0.999687671661377,0.491801917552948,0.4763951301574707,-0.005267626605927944,0.9999106526374817,0.5202573537826538,0.5788309574127197,0.14501485228538513,0.9815385937690735,0.4921763837337494,0.6052210927009583,-0.02694224752485752,0.9923667907714844,0.5231140851974487,0.601810097694397,0.42784151434898376,0.875316858291626,0.504025936126709,0.734738826751709,0.04556936025619507,0.9876230955123901,0.5546621680259705,0.46519923210144043,-0.18134146928787231,0.855222225189209,0.46873489022254944,0.4829845130443573,-0.19340558350086212,0.8224151730537415,-178.66378683066753,0.510417252779007,0.4741400182247162,147.074089531574,140.99826993307423,0.7241154016207583,-0.0020090603366545623,0.08575661562587578,0.022035365680370674,-0.21795545525883678,171.2362651444508,0.5975444857210069,26,1762115371.755371
0.49643048644065857,0.20477133989334106,-0.3227614760398865,0.999984860420227,0.5428321957588196,0.2794286012649536,-0.14319531619548798,0.9999295473098755,0.46703004837036133,0.292373925447464,-0.1548110544681549,0.9999472498893738,0.5290122628211975,0.47241368889808655,0.006064017303287983,0.999677836894989,0.4916304647922516,0.476910263299942,-0.006216723006218672,0.9999172687530518,0.5202624201774597,0.5836791396141052,0.1481776088476181,0.9779734015464783,0.49234265089035034,0.6065282821655273,-0.030886197462677956,0.9918740391731262,0.5235593914985657,0.6019363403320312,0.4487582743167877,0.8425734043121338,0.5044722557067871,0.7334323525428772,0.04213063418865204,0.9862544536590576,0.5544077157974243,0.4628503918647766,-0.17614158987998962,0.8386048078536987,0.4683404564857483,0.48314061760902405,-0.1914481222629547,0.8157868385314941,-178.36430901121193,0.5103213638067245,0.4746619760990143,145.26010398665431,139.11689051742317,0.7331136848610167,-0.0012079988105857865,0.006575568350769064,0.010091685703410467,-0.9975141943075392,170.30864718476465,0.6987348273853852,27,1762115371.8347495
0.4949066638946533,0.20305705070495605,-0.3228456377983093,0.999985933303833,0.5419346690177917,0.27862176299095154,-0.14002454280853271,0.999933660030365,0.4649537205696106,0.2931564450263977,-0.15773646533489227,0.9999512434005737,0.5290004014968872,0.47317132353782654,0.0077592977322638035,0.9996844530105591,0.491109699010849,0.478574275970459,-0.00792780239135027,0.9999237656593323,0.520301103591919,0.5866689682006836,0.15399987995624542,0.9747336506843567,0.49233564734458923,0.6120128035545349,-0.026529764756560326,0.9915135502815247,0.5240429639816284,0.6036306023597717,0.4660799503326416,0.813317596912384,0.5048924684524536,0.7373268008232117,0.04983571171760559,0.9853790402412415,0.5556527376174927,0.46327894926071167,-0.16482913494110107,0.840216338634491,0.4669164717197418,0.4870070219039917,-0.1963384598493576,0.8101628422737122,-178.0070850317937,0.5100550502538681,0.47587279975414276,145.14105787581542,140.51524785342758,0.7457870365478244,-0.003318991644579674,0.015090158016092802,-0.026308715807527895,0.1061149598025423,169.30791889827432,0.8111139968167432,28,1762115371.9149888
0.49288612604141235,0.2000720351934433,-0.3129381537437439,0.9999867081642151,0.5409702062606812,0.27811282873153687,-0.13910645246505737,0.9999361038208008,0.4625677168369293,0.29401686787605286,-0.1515076756477356,0.9999542832374573,0.5289908051490784,0.4760074317455292,0.006990884430706501,0.9996882081031799,0.49035540223121643,0.48178520798683167,-0.00713468249887228,0.9999294877052307,0.5224124789237976,0.5920527577400208,0.1412976086139679,0.9737767577171326,0.49232855439186096,0.6162066459655762,-0.025192495435476303,0.9915867447853088,0.5252028703689575,0.606798529624939,0.4537176191806793,0.8025081753730774,0.5049996972084045,0.7396324276924133,0.05391094088554382,0.9854129552841187,0.5556482076644897,0.4638606309890747,-0.15134994685649872,0.837476909160614,0.464813232421875,0.4895765483379364,-0.1780732423067093,0.8024933934211731,-177.65276590100365,0.5096731036901474,0.4788963198661804,141.78931661765301,139.54286806496728,0.7386247711252737,-0.005088525090049742,0.04028117912751806,-0.023574803886810138,0.33561014850023635,168.53307535834472,1.0222943872433246,29,1762115371.9900491
0.49093565344810486,0.19683922827243805,-0.30878371000289917,0.9999871850013733,0.5404609441757202,0.27800288796424866,-0.14035263657569885,0.9999381303787231,0.46037888526916504,0.29339486360549927,-0.13737976551055908,0.999954104423523,0.5289789438247681,0.48088836669921875,-0.0026267762295901775,0.9996882677078247,0.4885311722755432,0.4866631031036377,0.0025375508703291416,0.9999322891235352,0.5236333012580872,0.6088463068008423,0.0665690079331398,0.9711332321166992,0.49174267053604126,0.6235777735710144,-0.0006126474472694099,0.9904434084892273,0.5252631306648254,0.6114272475242615,0.4037805497646332,0.7745490670204163,0.5050941705703735,0.7416179180145264,0.11829793453216553,0.9838465452194214,0.5555756092071533,0.46804940700531006,-0.1523146629333496,0.8313178420066833,0.4625401496887207,0.49420034885406494,-0.15388570725917816,0.7735010385513306,-177.5903952142035,0.5087550580501556,0.4837757349014282,118.80780562765678,133.4296301438535,0.7452395858323908,-0.0145987355929633,0.07759231877464362,-0.15123109627393216,0.5933206788993681,169.1202826256038,1.112588942330226,30,1762115372.0529344
0.4901893138885498,0.19141559302806854,-0.2667818069458008,0.9999864101409912,0.5400184392929077,0.2760428190231323,-0.11441775411367416,0.9999349117279053,0.45826539397239685,0.29245927929878235,-0.10261324793100357,0.9999457001686096,0.5289194583892822,0.4867848753929138,-0.007250047288835049,0.9996777176856995,0.4872884154319763,0.4934851825237274,0.007225894834846258,0.9999290108680725,0.526691198348999,0.6241344809532166,0.009083245880901814,0.969352126121521,0.49102479219436646,0.6310965418815613,0.012487483210861683,0.9886046648025513,0.5254524946212769,0.6203022003173828,0.3285459876060486,0.7502132058143616,0.504875123500824,0.74189293384552,0.1519860327243805,0.9813010096549988,0.5557055473327637,0.469648540019989,-0.1059887632727623,0.8279525637626648,0.46111559867858887,0.4986022114753723,-0.11473460495471954,0.7461833357810974,-177.50751862124108,0.5081039369106293,0.4901350289583206,96.0969644579459,130.63863698392896,0.705343639624676,-0.009067486536558804,0.08855927068323229,0.07702794964664228,0.15272532673497796,168.64569830853978,1.4210060067233292,31,1762115372.1247427
0.4895407259464264,0.18792936205863953,-0.2668711543083191,0.9999856352806091,0.5400816202163696,0.27509814500808716,-0.1146617904305458,0.9999294877052307,0.45700040459632874,0.2920807898044586,-0.10095392167568207,0.9999305009841919,0.5288794040679932,0.48846006393432617,-0.009445199742913246,0.9996655583381653,0.48658818006515503,0.49505507946014404,0.00942605547606945,0.999922513961792,0.5277183651924133,0.628824770450592,-0.008702431805431843,0.9669468402862549,0.4906565248966217,0.6326027512550354,0.017341729253530502,0.9865691661834717,0.5254347920417786,0.6230223178863525,0.3112211227416992,0.7288169860839844,0.5047487616539001,0.7412815690040588,0.16677886247634888,0.9790089130401611,0.556014895439148,0.4716073274612427,-0.1096666231751442,0.8250904083251953,0.4598686695098877,0.5023948550224304,-0.1094161719083786,0.722376823425293,-177.47144023670737,0.5077337920665741,0.4917575716972351,89.26757231615673,129.32846551460736,0.7076824382715992,-0.005735999911327537,0.025143954200673172,0.05162683553162468,-0.9827240756230667,168.44730976310532,1.5566914724510208,32,1762115372.1892729
0.4891227185726166,0.18400876224040985,-0.27502596378326416,0.9999844431877136,0.5401629209518433,0.27362287044525146,-0.1182389035820961,0.9999263882637024,0.45613551139831543,0.291798859834671,-0.09285156428813934,0.9999037981033325,0.5288485288619995,0.4911440908908844,-0.014584055170416832,0.9996666312217712,0.48565635085105896,0.4974655210971832,0.014600912109017372,0.999914288520813,0.5288609266281128,0.6375290155410767,-0.048750609159469604,0.9623982906341553,0.4899364411830902,0.6335980892181396,0.024518022313714027,0.9831728339195251,0.5255717635154724,0.6208580732345581,0.29434412717819214,0.7035814523696899,0.5045290589332581,0.7410147786140442,0.21026849746704102,0.9762098789215088,0.5558538436889648,0.47449636459350586,-0.11047448962926865,0.8013735413551331,0.45969924330711365,0.5007511377334595,-0.09696605801582336,0.6709374189376831,-177.53653220995406,0.5072524398565292,0.4943048059940338,74.0814489775708,124.24388481513138,0.7250439142587041,-0.0064049537617181925,0.03389392954015513,-0.008901212856332748,0.11642864891039621,167.7943846349078,1.6104126677458042,33,1762115372.264426
0.48801207542419434,0.17866040766239166,-0.3099712133407593,0.9999805092811584,0.5402240753173828,0.27105915546417236,-0.1439966857433319,0.9999089241027832,0.45421546697616577,0.2897472679615021,-0.10592839866876602,0.9998463988304138,0.5287492275238037,0.49423128366470337,-0.012755891308188438,0.9996557235717773,0.48414215445518494,0.5003995299339294,0.012786591425538063,0.9998721480369568,0.5287750363349915,0.6441702246665955,-0.03223700076341629,0.962213933467865,0.48987913131713867,0.6375370025634766,0.04689403995871544,0.9814195036888123,0.5278047919273376,0.6948167681694031,0.29460498690605164,0.7213113903999329,0.5044400095939636,0.7413992285728455,0.2854021191596985,0.975111722946167,0.5552747249603271,0.47957196831703186,-0.11927679926156998,0.7548566460609436,0.4581886827945709,0.5010861158370972,-0.0663183405995369,0.6174362897872925,-177.564508277474,0.5064456909894943,0.4973154067993164,91.40548326334077,127.55586522576962,0.8073187807781229,-0.012682008132976033,0.04732633097839327,-0.09867464069705319,0.2111559510597529,167.7412127970805,1.3574881706546862,34,1762115372.3280396
0.4870883822441101,0.1722596436738968,-0.3302365839481354,0.9999799728393555,0.5402272939682007,0.26930731534957886,-0.1555107682943344,0.9999052286148071,0.45221152901649475,0.28482723236083984,-0.10798869282007217,0.9997877478599548,0.5285123586654663,0.4973333477973938,-0.013399998657405376,0.9996755719184875,0.48261183500289917,0.5021805763244629,0.013413903303444386,0.9998567700386047,0.5283803939819336,0.6499572992324829,-0.030894964933395386,0.962281346321106,0.488109827041626,0.6372775435447693,0.049237512052059174,0.979887068271637,0.5275800228118896,0.7089487910270691,0.31195729970932007,0.7398839592933655,0.504158616065979,0.7388874292373657,0.3230838477611542,0.9736162424087524,0.5531252026557922,0.48761066794395447,-0.09353698790073395,0.705023467540741,0.4586018919944763,0.501392126083374,-0.020595278590917587,0.5612910985946655,-177.5976314292087,0.5055620968341827,0.49975696206092834,93.22366202243428,125.26669407203946,0.8513194120252398,-0.013911489360104804,0.038440351647691655,-0.019357207046734142,-0.13990269873341932,169.99977087168213,1.2252366369351906,35,1762115372.391555
0.48659124970436096,0.1667063683271408,-0.31617578864097595,0.9999764561653137,0.5402573347091675,0.2678030729293823,-0.15165522694587708,0.9999028444290161,0.45010557770729065,0.28119906783103943,-0.1115744486451149,0.9996898770332336,0.5280992388725281,0.4999668598175049,-0.011986890807747841,0.9996923804283142,0.4808776378631592,0.5034943222999573,0.011980336159467697,0.9998266696929932,0.5281391739845276,0.6411997079849243,0.0044488427229225636,0.9635785222053528,0.48632413148880005,0.6353518962860107,0.054449718445539474,0.9795392155647278,0.5273939371109009,0.7413243055343628,0.29165923595428467,0.7633147239685059,0.5040945410728455,0.7381404638290405,0.3125273883342743,0.9733503460884094,0.5510417819023132,0.4909435212612152,-0.10968799889087677,0.6768857836723328,0.4566507339477539,0.5048990249633789,-0.04710793495178223,0.5140843391418457,-177.6545613342319,0.5044884383678436,0.5017305910587311,115.85616973232074,129.62180312265343,0.8434840799891923,-0.016691253053221496,0.03068232782425305,-0.0432146168307806,-0.12060738390250386,171.54804529321888,1.0931917257079027,36,1762115372.4558797
0.486469030380249,0.16621339321136475,-0.31461378931999207,0.9999718070030212,0.5402376055717468,0.2659541964530945,-0.15390001237392426,0.9999018311500549,0.4496518075466156,0.2794758677482605,-0.11185510456562042,0.9996205568313599,0.52790367603302,0.5017939805984497,-0.011285961605608463,0.9997022151947021,0.4800565838813782,0.5050326585769653,0.011263303458690643,0.9997854232788086,0.5279341340065002,0.6438131928443909,0.008297750726342201,0.9652032852172852,0.48612698912620544,0.6384119391441345,0.04945942386984825,0.9794830083847046,0.5273715257644653,0.7467462420463562,0.2851693630218506,0.7845801711082458,0.5040724277496338,0.7374321818351746,0.30874213576316833,0.9727674126625061,0.5509361624717712,0.49136555194854736,-0.14409542083740234,0.6690934896469116,0.4535445272922516,0.5108826756477356,-0.10389288514852524,0.48188361525535583,-177.7571261007594,0.5039801299571991,0.5034133195877075,118.24418004940875,126.9524896485623,0.84053910923288,-0.008957795004306632,0.029654313985000316,0.1362848428747119,-0.01811643687331401,171.51018809880318,1.0394606331837764,37,1762115372.5126245
0.4865494668483734,0.1643408238887787,-0.3607679009437561,0.999971866607666,0.5402988791465759,0.26608800888061523,-0.19135549664497375,0.9999017715454102,0.4483332633972168,0.27909237146377563,-0.15964703261852264,0.9995852112770081,0.5271872282028198,0.5050562024116516,-0.012300113216042519,0.9997153878211975,0.4786696434020996,0.5073511004447937,0.012238772585988045,0.9997455477714539,0.5272758603096008,0.6486244797706604,0.0014987236354500055,0.9676015973091125,0.4850664734840393,0.6471771001815796,0.07755638659000397,0.979163646697998,0.5277785062789917,0.7747061848640442,0.23716846108436584,0.8050444722175598,0.5021901726722717,0.7368188500404358,0.3576500713825226,0.9702622890472412,0.550987958908081,0.49896010756492615,-0.1974499523639679,0.6597170233726501,0.4461929202079773,0.5231784582138062,-0.17331859469413757,0.4623698592185974,-177.88869712546236,0.5029284358024597,0.5062036514282227,123.63552305166377,132.83748697630077,0.885316522489107,-0.012165768026807508,0.03227794861894452,-0.03710913049400144,0.030349631782039296,171.95147336305354,0.9771041414898756,38,1762115372.5990715
0.4868523180484772,0.16416804492473602,-0.375187486410141,0.9999722242355347,0.5406343340873718,0.2694508135318756,-0.20238478481769562,0.9999039173126221,0.44823694229125977,0.2792416512966156,-0.1726798415184021,0.999573826789856,0.5255086421966553,0.514464259147644,-0.012932230718433857,0.9997346997261047,0.47695475816726685,0.513984739780426,0.012840263545513153,0.9997259974479675,0.5263229608535767,0.6749225854873657,-0.00035712780663743615,0.9704707264900208,0.482607901096344,0.6576572060585022,0.0781095027923584,0.9792996644973755,0.5294243693351746,0.820981502532959,0.2073773890733719,0.8241139054298401,0.4998990595340729,0.7364262342453003,0.3837892413139343,0.9626205563545227,0.5510870218276978,0.5158390998840332,-0.22141602635383606,0.6560007929801941,0.44111496210098267,0.5280630588531494,-0.19626575708389282,0.4531499445438385,-178.37717045945942,0.5012317001819611,0.514224499464035,129.59159626418665,128.92628912808013,0.9101434552490165,-0.027688023530418746,0.13088746795108724,-0.25329849296312335,1.6091503346816256,173.9512568496721,0.6664580836188307,39,1762115372.660352
0.4876507818698883,0.1655474603176117,-0.34957122802734375,0.9999725222587585,0.5428862571716309,0.27795711159706116,-0.184077650308609,0.9999006390571594,0.4476544260978699,0.282823383808136,-0.16418729722499847,0.9995836615562439,0.525256872177124,0.5286039710044861,-0.01261795312166214,0.9997537732124329,0.47634977102279663,0.5285336971282959,0.012525019235908985,0.9997246265411377,0.5262948274612427,0.6993306279182434,0.006210657302290201,0.9729709625244141,0.4799286723136902,0.6780364513397217,0.09064292162656784,0.9795786738395691,0.5304235816001892,0.8617029786109924,0.18825198709964752,0.8412787318229675,0.49895811080932617,0.7361928224563599,0.37869012355804443,0.9573495984077454,0.552480936050415,0.5268335342407227,-0.19093894958496094,0.6407527923583984,0.434417188167572,0.5435689091682434,-0.1743234395980835,0.46319884061813354,-178.72283947872185,0.5008033215999603,0.528568834066391,138.02186592186416,128.99511126927698,0.8959184199813934,-0.006720188804859257,0.22502674236813955,0.32893289745425025,1.4768098234051457,177.07477468095848,0.4778008587845839,40,1762115372.724097
0.4888485372066498,0.16651096940040588,-0.3097976744174957,0.9999686479568481,0.5458949208259583,0.28577765822410583,-0.17732246220111847,0.9998847842216492,0.44685396552085876,0.2880393862724304,-0.15966811776161194,0.9995979070663452,0.5251561403274536,0.5441542863845825,-0.017141025513410568,0.9997639060020447,0.4757081866264343,0.5426871180534363,0.01701817661523819,0.9996982216835022,0.5262757539749146,0.7065171003341675,0.022907894104719162,0.9752629399299622,0.4808367192745209,0.6717556118965149,0.1572379767894745,0.9769827723503113,0.5307332277297974,0.8841625452041626,0.16138795018196106,0.8567447066307068,0.49908509850502014,0.7360287308692932,0.3810790181159973,0.9531062841415405,0.553298830986023,0.537225067615509,-0.17727789282798767,0.6282988786697388,0.4308815896511078,0.5516763925552368,-0.15583297610282898,0.4918600022792816,-179.09372389892886,0.500432163476944,0.5434207022190094,155.90588872415518,153.26776813000052,0.8674546611504748,-0.005847782969963788,0.23399865520712815,0.013745192864804754,0.1413570008422657,178.69180429686674,0.35738476078276293,41,1762115372.787567
0.4896519184112549,0.16727782785892487,-0.3696662485599518,0.9999682903289795,0.5476861000061035,0.2894960045814514,-0.19219744205474854,0.9998852610588074,0.44682732224464417,0.2904853820800781,-0.17560163140296936,0.9996072053909302,0.5250256061553955,0.5507944226264954,-0.01614541746675968,0.9997788071632385,0.47527050971984863,0.5492904782295227,0.015981445088982582,0.999681830406189,0.5267475247383118,0.7172372341156006,0.03408414497971535,0.9774753451347351,0.48127347230911255,0.680320143699646,0.14418357610702515,0.975713312625885,0.5305321216583252,0.8915093541145325,0.2036333978176117,0.8708142042160034,0.4991057515144348,0.7363713383674622,0.42942777276039124,0.9447208642959595,0.5542993545532227,0.5412788391113281,-0.22506782412528992,0.6302534341812134,0.4296272397041321,0.5554030537605286,-0.20529600977897644,0.5097484588623047,-179.36299163846013,0.5001480579376221,0.550042450428009,152.57766758874214,145.49237871851776,0.94322419724496,-0.003578636146590066,0.08340853737277878,0.028582515016873825,-1.896855796221077,179.43797319278957,0.26748354498037846,42,1762115372.8669562
0.4917551577091217,0.16886624693870544,-0.3541223704814911,0.999967634677887,0.5495980978012085,0.2958931028842926,-0.18613210320472717,0.999879002571106,0.4466274380683899,0.295958936214447,-0.1669830083847046,0.9996211528778076,0.5250788331031799,0.5609152913093567,-0.009464170783758163,0.9997886419296265,0.4753781259059906,0.558944046497345,0.009317934513092041,0.9996576309204102,0.528293251991272,0.7266717553138733,0.03711651265621185,0.9794250130653381,0.48250240087509155,0.6853107213973999,0.12773746252059937,0.9738129377365112,0.5303866863250732,0.9160261154174805,0.16347023844718933,0.8834570050239563,0.4991670250892639,0.7364992499351501,0.38998693227767944,0.9285438656806946,0.5561477541923523,0.545606791973114,-0.19850318133831024,0.6339898705482483,0.42887353897094727,0.5614488124847412,-0.18777978420257568,0.5393320322036743,-179.54084442040306,0.5002284795045853,0.5599296689033508,161.9708591910167,144.21308584186815,0.9114126402395466,0.0012699588492859806,0.1561317575835156,0.07656548304305534,1.1483921607429504,179.96336848316804,0.22555490052184304,43,1762115372.9302824
0.49463486671447754,0.17269547283649445,-0.35096102952957153,0.9999659657478333,0.5520658493041992,0.30110105872154236,-0.18108050525188446,0.9998624324798584,0.4467117190361023,0.3013230860233307,-0.17669810354709625,0.9996324181556702,0.5251896977424622,0.5722542405128479,-0.009276686236262321,0.9997846484184265,0.4748978018760681,0.5694116950035095,0.009145533666014671,0.9995958805084229,0.5282350778579712,0.7327894568443298,0.035497747361660004,0.9810611605644226,0.4817887246608734,0.6884384751319885,0.15164536237716675,0.966044545173645,0.5302668809890747,0.9241457581520081,0.14258524775505066,0.8943041563034058,0.49728673696517944,0.7367374897003174,0.37770941853523254,0.907193124294281,0.5580313205718994,0.5574113726615906,-0.19082023203372955,0.6470162868499756,0.428659588098526,0.5749474167823792,-0.1915474683046341,0.5729341506958008,-179.8608168221605,0.5000437498092651,0.5708329677581787,166.336911400761,152.17311138210866,0.8980255253375753,-0.002548893019277584,0.15044328574248306,-0.052692366825855756,-0.07848930915431998,179.87925287348565,0.07471737784685159,44,1762115373.0027568
0.49914997816085815,0.17428851127624512,-0.3469679355621338,0.9999663233757019,0.5551862120628357,0.3056189715862274,-0.17740561068058014,0.999858021736145,0.4466603696346283,0.30532950162887573,-0.18336981534957886,0.9996421337127686,0.5253661274909973,0.5842615962028503,-0.005540191195905209,0.999792754650116,0.4741958975791931,0.5793740153312683,0.005430441349744797,0.9995529055595398,0.5286718606948853,0.7572699785232544,0.030519789084792137,0.9823631644248962,0.47736087441444397,0.7069599628448486,0.14009158313274384,0.9564010500907898,0.5300093293190002,0.9520002603530884,0.13429465889930725,0.9039825201034546,0.4969610273838043,0.7368654012680054,0.40111422538757324,0.8632787466049194,0.5594382286071777,0.5697692036628723,-0.16954126954078674,0.652955174446106,0.4280221462249756,0.5944288372993469,-0.19717997312545776,0.6024903059005737,179.76316672085804,0.4997810125350952,0.5818178057670593,163.69991698143835,142.97853655978102,0.9094619502116728,-0.003622378541844718,0.1514487870619946,-0.01480022556454349,0.013862922248479929,-179.84717586936708,0.10910209704961496,45,1762115373.0752885
0.5035997629165649,0.17393644154071808,-0.3458388149738312,0.9999662041664124,0.5582445859909058,0.307556688785553,-0.1757259964942932,0.9998505711555481,0.44668087363243103,0.30702894926071167,-0.1919233649969101,0.9996528625488281,0.5257746577262878,0.5962175130844116,-0.0030396394431591034,0.9998006224632263,0.4736698567867279,0.5908545255661011,0.0029485891573131084,0.999518632888794,0.5288231372833252,0.7735444903373718,0.04095398634672165,0.9831998944282532,0.4729098677635193,0.7253881692886353,0.13636329770088196,0.9450709223747253,0.5292226672172546,0.9604249000549316,0.17327265441417694,0.912006139755249,0.494833767414093,0.7368675470352173,0.43327364325523376,0.8137549757957458,0.561978816986084,0.5809156894683838,-0.16725152730941772,0.6557121276855469,0.42737331986427307,0.6079683303833008,-0.2164253294467926,0.6318001747131348,179.45147093812503,0.4997222572565079,0.5935360193252563,158.61386398842,136.7824070243202,0.936296251373089,-0.0008199987355839938,0.16354139631456008,0.03911049275928374,0.1687665267772444,-179.72897081600942,0.24550233578150507,46,1762115373.1469414
0.5045992136001587,0.17386262118816376,-0.358765184879303,0.9999649524688721,0.5596061944961548,0.3080553710460663,-0.17628717422485352,0.9998445510864258,0.4466036856174469,0.30852213501930237,-0.20057722926139832,0.9996562004089355,0.5269924402236938,0.5989779829978943,-0.0011741970665752888,0.9997962713241577,0.4737052917480469,0.5924356579780579,0.0011126266326755285,0.9994495511054993,0.5291605591773987,0.7766105532646179,0.051949642598629,0.98320072889328,0.4737774431705475,0.7233225703239441,0.13648103177547455,0.9339514970779419,0.5293728113174438,0.9558111429214478,0.21179541945457458,0.9181323051452637,0.4934201240539551,0.7405261397361755,0.42443591356277466,0.7801316976547241,0.563154935836792,0.5836072564125061,-0.1942063271999359,0.6667166352272034,0.427497923374176,0.6054320931434631,-0.2411639243364334,0.6553154587745667,179.45060317902497,0.5003488659858704,0.5957068204879761,154.90760523898555,139.23025199018696,0.9554593128107217,0.007900759056064932,0.02737111077709304,0.10995794164600708,-1.7169384437424926,179.76333752350882,0.2775931275666105,47,1762115373.2262514
0.5053243637084961,0.16992053389549255,-0.35748136043548584,0.9999649524688721,0.562920331954956,0.3059094548225403,-0.16486753523349762,0.999837338924408,0.44605857133865356,0.3075335621833801,-0.18811213970184326,0.999668300151825,0.5274304151535034,0.5981591939926147,0.0005384829710237682,0.9997997283935547,0.47212380170822144,0.595880389213562,-0.0005920640542171896,0.9994062185287476,0.529179036617279,0.7883732914924622,0.049500755965709686,0.9825055003166199,0.4765220582485199,0.7594367861747742,0.11452983319759369,0.9266775846481323,0.5293489694595337,0.96531081199646,0.2044985592365265,0.9225678443908691,0.4936235845088959,0.7422260046005249,0.4364282190799713,0.726745069026947,0.5657714605331421,0.587419867515564,-0.13630610704421997,0.6679157018661499,0.42669564485549927,0.6110004186630249,-0.2197365015745163,0.6792933940887451,179.07001287174995,0.4997771084308624,0.5970197916030884,153.21029703249582,122.09904976370629,0.9629615610201844,-0.007709922068903435,0.017704890626406553,-0.21050379459233845,-0.1303451146554987,179.20377284719788,0.545616623508227,48,1762115373.30041
0.5058063268661499,0.15955984592437744,-0.36689597368240356,0.9999614953994751,0.5646700859069824,0.30482178926467896,-0.1612038016319275,0.9998230338096619,0.44490161538124084,0.30733558535575867,-0.18518197536468506,0.9996774196624756,0.5296857953071594,0.6025908589363098,0.00013790109369438142,0.9997878074645996,0.4718659818172455,0.6017792820930481,-0.0001807962398743257,0.9993112683296204,0.5313679575920105,0.8061866164207458,0.0025500301271677017,0.9816147685050964,0.4800437390804291,0.7926212549209595,0.036739904433488846,0.9164567589759827,0.5290479063987732,0.9745126366615295,0.22762532532215118,0.9218705296516418,0.5004504919052124,0.7583322525024414,0.42577695846557617,0.6701621413230896,0.5695963501930237,0.59086674451828,-0.14587703347206116,0.6545235514640808,0.4277799725532532,0.6119697093963623,-0.19353385269641876,0.6901630163192749,179.2241306749227,0.5007758885622025,0.602185070514679,127.46164559882631,96.02532672784947,0.9903593625959343,0.014553420369707729,0.07526428787315571,0.324403511020141,0.8387092194505765,178.79760706870712,0.4433664907066581,49,1762115373.3690386
0.5055197477340698,0.14763686060905457,-0.3771427571773529,0.9999606013298035,0.5657392144203186,0.3025623857975006,-0.15799649059772491,0.9998206496238708,0.44306010007858276,0.30403846502304077,-0.17762422561645508,0.9996875524520874,0.5329807996749878,0.6033815741539001,-0.00039869785541668534,0.9997718930244446,0.47187548875808716,0.6052233576774597,0.00035107225994579494,0.9992341995239258,0.5335147380828857,0.8073190450668335,-0.006655064411461353,0.9775280356407166,0.4795573651790619,0.80389404296875,-0.013682259246706963,0.9080851078033447,0.5291000604629517,0.9676752090454102,0.29646211862564087,0.9168651103973389,0.508875846862793,0.7871559858322144,0.40987667441368103,0.6164950132369995,0.5732675790786743,0.5917689204216003,-0.17131993174552917,0.6486237645149231,0.4274350702762604,0.6117554306983948,-0.19411355257034302,0.7038899064064026,179.6247275913408,0.5024281442165375,0.6043024659156799,116.11776340422098,83.86965894391396,1.032528081524831,0.026067762405585147,0.03340630736360627,0.18166264503945412,-0.6603965238900622,179.31064852035342,0.1583175574547295,50,1762115373.4324217
0.5048339366912842,0.13398544490337372,-0.3923909664154053,0.9999592900276184,0.5670360326766968,0.29786646366119385,-0.16863146424293518,0.9998306632041931,0.44096431136131287,0.29832470417022705,-0.17056791484355927,0.9996820092201233,0.5347757935523987,0.610022246837616,-0.0018753163749352098,0.9997702836990356,0.47134098410606384,0.6120932102203369,0.0018440792337059975,0.9992092251777649,0.5347436666488647,0.816861629486084,-0.040504224598407745,0.97002774477005,0.4792037904262543,0.8322906494140625,-0.02883068658411503,0.9014872312545776,0.5290886163711548,0.9652863144874573,0.32987669110298157,0.8909315466880798,0.5074640512466431,0.8611758947372437,0.37033987045288086,0.5743973255157471,0.5795353055000305,0.6103395819664001,-0.20108970999717712,0.6721951961517334,0.4270642399787903,0.6179041266441345,-0.19882230460643768,0.7079449892044067,179.82758285614094,0.5030583888292313,0.6110577285289764,101.25798114407684,86.36307691112054,1.0764337547188947,0.0071426882650166175,0.07655874246804831,-0.2144816508635282,0.48905517892486056,179.79174448264118,0.08331706275709001,51,1762115373.520658
0.5049372911453247,0.13168230652809143,-0.3900483250617981,0.9999541640281677,0.5687649846076965,0.29512879252433777,-0.16857391595840454,0.9998366832733154,0.439995676279068,0.2943536043167114,-0.15842244029045105,0.9996712803840637,0.5361433029174805,0.6181716322898865,-0.003986690659075975,0.9997617602348328,0.47098860144615173,0.6179908514022827,0.003989278804510832,0.9991685152053833,0.5353891253471375,0.8305217027664185,-0.05756775662302971,0.963080644607544,0.47861427068710327,0.8450448513031006,-0.025258546695113182,0.8928486704826355,0.5291488170623779,0.9685333371162415,0.343170702457428,0.8483564853668213,0.5064087510108948,0.8892778754234314,0.371216356754303,0.5285361409187317,0.5815485715866089,0.6180714964866638,-0.1992788016796112,0.6905628442764282,0.4263027608394623,0.6224253177642822,-0.1966858208179474,0.708098828792572,179.85569266906603,0.5035659521818161,0.6180812418460846,94.84416248572045,89.16131672492979,1.0927489569695152,0.007074249085344578,0.09789139110699059,-0.0009538825089144545,0.29732735697617135,-179.65508492141205,0.07555870866975445,52,1762115373.592406
0.5043199062347412,0.12131367623806,-0.401539146900177,0.9999477863311768,0.5703693628311157,0.29163050651550293,-0.1629934310913086,0.9998398423194885,0.43869534134864807,0.2908760607242584,-0.15793202817440033,0.9996538162231445,0.5379214286804199,0.625970184803009,-0.003339559305459261,0.9997389912605286,0.4703160226345062,0.624285101890564,0.0033533063251525164,0.9991265535354614,0.5362199544906616,0.8519870042800903,-0.04661018028855324,0.9461727738380432,0.47708767652511597,0.865444540977478,-0.01834235154092312,0.878148078918457,0.5291421413421631,0.9730933904647827,0.39627593755722046,0.7873033881187439,0.49603208899497986,0.9663158059120178,0.37600210309028625,0.4897061884403229,0.5881385207176208,0.6318658590316772,-0.18013641238212585,0.7119970917701721,0.42337989807128906,0.6285946369171143,-0.20574422180652618,0.707741916179657,179.92901809900093,0.5041187256574631,0.6251276433467865,94.46135280218115,99.26926756740303,1.157701342450873,0.008501767458233715,0.10837507517197882,0.0219555202688678,0.1612411737408378,-179.67171894496684,0.06970096828093779,53,1762115373.6574247
0.5030110478401184,0.11139405518770218,-0.3892086148262024,0.9999471306800842,0.5717467069625854,0.2857207953929901,-0.1408073753118515,0.9998425245285034,0.43680042028427124,0.2881358563899994,-0.14902886748313904,0.9996558427810669,0.5402520895004272,0.638179361820221,6.199031486175954e-05,0.9996023774147034,0.4703373908996582,0.6369694471359253,-1.1173240636708215e-05,0.9989570379257202,0.5363354086875916,0.87482750415802,-0.030861100181937218,0.9311782121658325,0.4769023060798645,0.894077718257904,0.004568802192807198,0.8631714582443237,0.5289342999458313,0.9865716695785522,0.4179838299751282,0.7474294304847717,0.4902268052101135,1.0021718740463257,0.3702405095100403,0.4767514765262604,0.5918868780136108,0.6422032117843628,-0.15810035169124603,0.7341256737709045,0.422699511051178,0.6391794085502625,-0.2105443775653839,0.7107260227203369,-179.83313960674332,0.5052947402000427,0.6375744044780731,96.54874655359022,107.52490682305778,1.1803746261190953,0.018543398333088972,0.19626054037390836,0.15833644439279893,1.3857780919557214,178.97471775025932,0.34467824384979434,54,1762115373.7208443
0.5009287595748901,0.10675221681594849,-0.3669328987598419,0.999943196773529,0.5738388299942017,0.2810879349708557,-0.124649778008461,0.9998457431793213,0.4346587657928467,0.28543779253959656,-0.11099231243133545,0.9996408820152283,0.5441753268241882,0.6478601694107056,-0.002175448229536414,0.9994831681251526,0.47045135498046875,0.6476118564605713,0.0022586665581911802,0.998773992061615,0.5361427664756775,0.8956286311149597,-0.06182020902633667,0.9069430232048035,0.4746726453304291,0.9090189337730408,0.002321145497262478,0.833454430103302,0.5351065397262573,1.034358024597168,0.40213245153427124,0.6943293809890747,0.4844546318054199,1.0645315647125244,0.3678811192512512,0.45363879203796387,0.5974093675613403,0.6506673097610474,-0.15761946141719818,0.7562091946601868,0.4223572313785553,0.6501630544662476,-0.18531730771064758,0.7182266116142273,-179.5182601425358,0.5073133409023285,0.6477360129356384,93.1146534842756,113.0729956822656,1.2058859563586342,0.024964911349556675,0.12567302390451168,0.0794176396573182,-0.8729864648557867,178.2098917532872,0.7006463608839918,55,1762115373.8017018
0.4985004961490631,0.10529924184083939,-0.390453040599823,0.9999439716339111,0.5760837197303772,0.2798355519771576,-0.12998178601264954,0.9998483657836914,0.4317394196987152,0.28580808639526367,-0.11170780658721924,0.999648928642273,0.5467209219932556,0.6600223779678345,-0.006466076709330082,0.9993099570274353,0.4705294966697693,0.6597864627838135,0.006617242936044931,0.9986031651496887,0.535861611366272,0.9074443578720093,-0.06827466189861298,0.8952904939651489,0.4743746817111969,0.9190820455551147,0.009946083649992943,0.8208808898925781,0.53463214635849,1.0566248893737793,0.4055788516998291,0.6520683765411377,0.4812362790107727,1.1010013818740845,0.36496034264564514,0.4517270624637604,0.6030358076095581,0.6726551651954651,-0.1620807945728302,0.7755548357963562,0.4214431345462799,0.662691056728363,-0.16306333243846893,0.7222968339920044,-179.28382378345435,0.5086252093315125,0.659904420375824,93.45212111191132,117.87583127469959,1.244814808374808,0.021251993928415557,0.19712565321674244,-0.06014848496650153,1.1575176370830391,177.63062395739962,1.6732442097008322,56,1762115373.863431
0.49684372544288635,0.10495542734861374,-0.35003843903541565,0.9999411702156067,0.5774544477462769,0.2777708172798157,-0.11886116117238998,0.9998509883880615,0.43067091703414917,0.28591248393058777,-0.09737192094326019,0.9996351599693298,0.5467341542243958,0.6676163673400879,-0.005617357790470123,0.9991453289985657,0.4701225161552429,0.6653000712394714,0.005752652883529663,0.998389482498169,0.5351318717002869,0.907608687877655,-0.06830988079309464,0.8661984205245972,0.47392377257347107,0.9205507040023804,-0.0028435843996703625,0.793515682220459,0.5309123396873474,1.0202611684799194,0.385745108127594,0.6049249768257141,0.47915539145469666,1.110571026802063,0.32932373881340027,0.43424004316329956,0.6046992540359497,0.6788355112075806,-0.15017911791801453,0.7945156693458557,0.42113789916038513,0.6642814874649048,-0.14019548892974854,0.7293334007263184,-179.34968288098204,0.5084283351898193,0.6664582192897797,89.31880498512687,117.85007192392554,1.1929841295376116,-0.003102760263626594,0.10328866285405097,-0.3838338691287065,-1.4788823075074897,176.82521859806238,8.610017417905304,57,1762115373.9268823
0.4958101809024811,0.10775469988584518,-0.35717782378196716,0.999941885471344,0.5799749493598938,0.2784034013748169,-0.1253271996974945,0.9998563528060913,0.42878037691116333,0.2865338921546936,-0.11305515468120575,0.9996457099914551,0.5486457943916321,0.6771206259727478,-0.0017908947775140405,0.9990044832229614,0.47013530135154724,0.6784265041351318,0.0019443377386778593,0.9982773065567017,0.5351697206497192,0.9110111594200134,-0.05952136591076851,0.8387897610664368,0.4739275872707367,0.9285192489624023,-0.0001374908024445176,0.7741427421569824,0.5297068357467651,1.0092995166778564,0.4173128008842468,0.5645592212677002,0.479546457529068,1.1172137260437012,0.3364896774291992,0.42219364643096924,0.6084069013595581,0.689631998538971,-0.1523067057132721,0.812332272529602,0.4207552373409271,0.6771865487098694,-0.14304083585739136,0.7422311902046204,-179.27346781930575,0.5093905478715897,0.6777735650539398,87.82162395267996,118.8027826571385,1.2049621249878768,0.010883804060850735,0.12799042094447546,0.15820517488090244,0.2794071415896049,176.92188321990741,63.460119124239135,58,1762115374.01529
0.4932268559932709,0.10753262042999268,-0.4213949143886566,0.9999407529830933,0.5821657180786133,0.2800925672054291,-0.15417644381523132,0.9998598694801331,0.42547208070755005,0.29508572816848755,-0.1473558098077774,0.9996352195739746,0.5508987307548523,0.6901360750198364,-0.0016292087966576219,0.9990012645721436,0.46976035833358765,0.6931223273277283,0.0017928711604326963,0.9982694387435913,0.5364575386047363,0.9171556234359741,-0.018940767273306847,0.8203347325325012,0.47375574707984924,0.9341862201690674,0.04146464169025421,0.7592232823371887,0.5268923044204712,1.0022963285446167,0.5230339765548706,0.5308964848518372,0.4773541986942291,1.098662257194519,0.4491606652736664,0.410277783870697,0.6110395193099976,0.7096502780914307,-0.1796341836452484,0.8276302814483643,0.4205375611782074,0.6999234557151794,-0.23833684623241425,0.7483605146408081,-179.07682368590287,0.51032954454422,0.6916292011737823,94.62065176505557,121.31872991649745,1.3087282873285806,0.014807770396020619,0.2185003252234266,0.06188008352590465,1.42732122508402,174.53431871369685,2.1815655286178295,59,1762115374.0787024
0.4914616644382477,0.10772009193897247,-0.4603497087955475,0.9999428987503052,0.5831745862960815,0.2866858243942261,-0.17633548378944397,0.9998637437820435,0.422353595495224,0.3068901598453522,-0.180962935090065,0.9996320605278015,0.5520033240318298,0.7051970362663269,-0.0015432082582265139,0.9989114999771118,0.46964675188064575,0.7113943099975586,0.0017210489604622126,0.9981262683868408,0.5363203287124634,0.9410765767097473,0.0019512983271852136,0.7987285256385803,0.4724021553993225,0.9597223997116089,0.05146715044975281,0.7344939708709717,0.5250226259231567,1.0372371673583984,0.5174287557601929,0.49873611330986023,0.47382616996765137,1.1470938920974731,0.44846662878990173,0.39158880710601807,0.6140612363815308,0.7334727644920349,-0.1806381642818451,0.8411754369735718,0.4190567135810852,0.7287784218788147,-0.25124719738960266,0.7543522715568542,-178.87778720699342,0.5108250379562378,0.7082956731319427,101.4709124824332,126.59304447602328,1.3634537806522626,0.005798737154607879,0.19504697304943958,-0.10543231154443375,-0.2744735275037528,172.83930707679173,1.6324830999549143,60,1762115374.164151
0.4877997934818268,0.1062566414475441,-0.5326678156852722,0.9999408721923828,0.5851190090179443,0.2952752709388733,-0.21352651715278625,0.9998664259910583,0.41893061995506287,0.3203035891056061,-0.20204181969165802,0.999617338180542,0.5529662370681763,0.7270628809928894,-0.005298149771988392,0.9988158345222473,0.469149112701416,0.7334803938865662,0.005621990188956261,0.9979174733161926,0.5357866287231445,0.9748051166534424,0.0053197480738162994,0.7696358561515808,0.4687662124633789,0.9792479872703552,0.06729480624198914,0.7026554942131042,0.5247372388839722,1.1932787895202637,0.545089602470398,0.45797717571258545,0.4586319327354431,1.2148985862731934,0.4993078112602234,0.3614463806152344,0.617383599281311,0.7604866027832031,-0.20810317993164062,0.8531172275543213,0.4165324568748474,0.7625077962875366,-0.2753022313117981,0.7603408098220825,-178.77517696691828,0.5110576748847961,0.7302716374397278,114.50520401322818,132.68882406541377,1.5224958700174507,0.002591447625269901,0.24480017369272322,-0.035727443986913014,0.5542233318485186,171.43549945393994,0.8527330580399993,61,1762115374.253922
0.48768535256385803,0.10751625895500183,-0.5497232675552368,0.9999409317970276,0.5867710113525391,0.30045586824417114,-0.21811997890472412,0.999865710735321,0.4171362519264221,0.3242653012275696,-0.20954902470111847,0.9996227622032166,0.5534685850143433,0.7413368821144104,-0.009089217521250248,0.9986780881881714,0.4683592915534973,0.7485907673835754,0.009465702809393406,0.9977349042892456,0.5357616543769836,0.9863829016685486,0.014637256041169167,0.7437112927436829,0.46819743514060974,0.9939560890197754,0.08591453731060028,0.6757595539093018,0.525870680809021,1.2190418243408203,0.5647655725479126,0.4235187768936157,0.45999765396118164,1.2404931783676147,0.5220030546188354,0.33843451738357544,0.6177610158920288,0.7669300436973572,-0.21930506825447083,0.8614014983177185,0.41464561223983765,0.7657400369644165,-0.2987569272518158,0.7691444754600525,-178.81342923647665,0.5109139382839203,0.7449638247489929,118.44770300873297,136.7788476269235,1.5666395836523204,-0.00209903730654736,0.21455529829570183,-0.06849683934147195,-0.44167679911295865,172.010326863068,0.9904856136660904,62,1762115374.3223994
0.4845455586910248,0.10756377130746841,-0.5579991936683655,0.9999364614486694,0.5884633660316467,0.3090240955352783,-0.23352006077766418,0.9998586773872375,0.41329941153526306,0.33586597442626953,-0.19720996916294098,0.9996158480644226,0.55442875623703,0.7662644982337952,-0.02056974545121193,0.9985010623931885,0.46688541769981384,0.7731221318244934,0.020957011729478836,0.99746173620224,0.5354576706886292,1.0795687437057495,0.006041263230144978,0.7196052670478821,0.45473456382751465,1.066074252128601,0.09260760247707367,0.6530399918556213,0.5243508219718933,1.2767671346664429,0.547613263130188,0.39071670174598694,0.4521647095680237,1.2953137159347534,0.5238789916038513,0.31645631790161133,0.6170565485954285,0.7898581624031067,-0.22730758786201477,0.8685767650604248,0.4128257632255554,0.7946458458900452,-0.2790641188621521,0.7790444493293762,-178.7478608595625,0.5106570869684219,0.7696933150291443,114.88256456967426,131.710027575586,1.607824564986814,-0.004045484416072099,0.38949680811115284,-0.030657119403935597,2.755380677375086,171.2878463333437,1.4293311583644916,63,1762115374.3858902
0.47794026136398315,0.10746204853057861,-0.5072861909866333,0.9999310970306396,0.5896576046943665,0.3187938630580902,-0.21925731003284454,0.9998466372489929,0.40926164388656616,0.3475997745990753,-0.15417157113552094,0.9996140599250793,0.5568674206733704,0.8010115027427673,-0.035285595804452896,0.9984474778175354,0.46508723497390747,0.8077441453933716,0.03571538254618645,0.9974018335342407,0.5424246191978455,1.1285170316696167,0.0035187893081456423,0.6890870928764343,0.4512026309967041,1.1213412284851074,0.14473329484462738,0.624277651309967,0.5346584916114807,1.3486175537109375,0.5299888849258423,0.35487934947013855,0.4522925913333893,1.3655520677566528,0.56560879945755,0.2891300618648529,0.6166435480117798,0.8100563883781433,-0.18246695399284363,0.8761137127876282,0.4091816842556,0.817007303237915,-0.19333341717720032,0.7944736480712891,-178.59972196858362,0.5109773278236389,0.8043778240680695,119.45047209914408,139.22664930788545,1.6355435854728424,0.004403936760033705,0.476979691603524,0.11619603155645884,1.2030603847368542,170.9275128497693,3.449360611244127,64,1762115374.4586072
0.4698704779148102,0.10665274411439896,-0.5802510976791382,0.9999240040779114,0.5925657749176025,0.3262312114238739,-0.2751902937889099,0.9998293519020081,0.40179339051246643,0.36161088943481445,-0.18661580979824066,0.999606192111969,0.5599774122238159,0.8263382911682129,-0.04197534918785095,0.9982796907424927,0.4630305767059326,0.8365790247917175,0.04250970855355263,0.9972259402275085,0.5485946536064148,1.1743206977844238,0.015306590124964714,0.6676129102706909,0.44522157311439514,1.1442649364471436,0.193558931350708,0.5992137789726257,0.5426514744758606,1.4116798639297485,0.5536020398139954,0.32296818494796753,0.45033854246139526,1.4281837940216064,0.6462279558181763,0.26448461413383484,0.6192628145217896,0.8420189619064331,-0.2473163604736328,0.8821114301681519,0.4039507508277893,0.8657013177871704,-0.21320636570453644,0.8067016005516052,-178.31706871055786,0.5115039944648743,0.8314586579799652,123.14334275990963,148.06067862912235,1.7658433773462838,0.009384944153421957,0.4825673281586561,0.08875913633922565,0.09956897383234915,169.49358125586824,34.59126427695595,65,1762115374.5147254
0.4626673758029938,0.10346535593271255,-0.5476154088973999,0.9999135136604309,0.5937672853469849,0.33110135793685913,-0.26872366666793823,0.9998145699501038,0.3935720920562744,0.369173526763916,-0.18899723887443542,0.9996045827865601,0.5609972476959229,0.853908360004425,-0.042299944907426834,0.9980435967445374,0.4584185481071472,0.8651273846626282,0.04289667680859566,0.9969306588172913,0.5529689192771912,1.2178336381912231,0.007997928187251091,0.6497012376785278,0.4481491446495056,1.2100156545639038,0.22027628123760223,0.565727710723877,0.5504159331321716,1.4804728031158447,0.5263274312019348,0.2924986779689789,0.4527667462825775,1.4858801364898682,0.6674185991287231,0.23975156247615814,0.6208263635635376,0.8615708947181702,-0.23667140305042267,0.8878195285797119,0.39218229055404663,0.9164204001426697,-0.2144678384065628,0.8186169862747192,-178.19659695055253,0.509707897901535,0.8595178723335266,124.73707447753712,148.8266045761534,1.7930341841460835,-0.02831712625358974,0.4423795087882843,-0.594408067766809,-0.6335982030117275,169.23234257289798,15.521231978204344,66,1762115374.5781534
0.4609401822090149,0.10046838968992233,-0.5459927320480347,0.9999073147773743,0.5942475199699402,0.33203747868537903,-0.2762071490287781,0.9997974634170532,0.38870614767074585,0.36814647912979126,-0.17814548313617706,0.9995944499969482,0.5629673600196838,0.86745285987854,-0.06231426075100899,0.9971867799758911,0.4572142958641052,0.8747146725654602,0.0631280466914177,0.9955582618713379,0.5520328283309937,1.2424297332763672,0.005252694711089134,0.6411066055297852,0.4494224190711975,1.2256553173065186,0.29463186860084534,0.5322505235671997,0.5507638454437256,1.5175988674163818,0.47788602113723755,0.2661544382572174,0.45285606384277344,1.5083211660385132,0.7473118901252747,0.21773870289325714,0.622394323348999,0.8659781813621521,-0.23437988758087158,0.891080915927887,0.3899715542793274,0.9072356224060059,-0.1942172795534134,0.8262117505073547,-177.95380679183046,0.5100908279418945,0.8710837662220001,130.40720738739438,155.3522919164541,1.8273307400439276,0.0048922926496434635,0.1477652095511077,0.42428166734239614,-3.763975710249216,170.03609278755079,17.18218634514609,67,1762115374.6564255
0.45766645669937134,0.09510717540979385,-0.589429497718811,0.999897301197052,0.5983196496963501,0.3364986777305603,-0.31575265526771545,0.9997624754905701,0.3846348822116852,0.3767053484916687,-0.19370856881141663,0.9995809197425842,0.5661422610282898,0.890451967716217,-0.06126469373703003,0.9963774681091309,0.4558023512363434,0.897014856338501,0.06204496696591377,0.9946872591972351,0.5630608797073364,1.2759976387023926,0.014147551730275154,0.6311696767807007,0.4510641098022461,1.268402099609375,0.303261935710907,0.50405353307724,0.5672672986984253,1.56722891330719,0.47801440954208374,0.24317263066768646,0.45336875319480896,1.568410873413086,0.770738959312439,0.1982632726430893,0.6234077215194702,0.884110689163208,-0.2789793908596039,0.8904763460159302,0.3856932520866394,0.9329779744148254,-0.19966167211532593,0.8283607363700867,-177.92137744522373,0.5109723061323166,0.893733412027359,133.18101994418564,155.67957082196577,1.9091831722422319,0.015416831724454266,0.3961366052999187,0.18407153989381503,4.343953208409903,169.34388423005916,5.986443559095315,68,1762115374.7136018
0.45256203413009644,0.0843503549695015,-0.673003077507019,0.9998688697814941,0.6026257276535034,0.33440712094306946,-0.3786667585372925,0.9996742010116577,0.38252586126327515,0.3706245422363281,-0.2609264850616455,0.9995586276054382,0.5668992400169373,0.8953481912612915,-0.05696786195039749,0.9952483773231506,0.45368772745132446,0.8997383117675781,0.057747166603803635,0.9935460686683655,0.5617197155952454,1.28830087184906,0.05351344868540764,0.6297564506530762,0.4509662091732025,1.2831212282180786,0.34649908542633057,0.480887770652771,0.5662969350814819,1.5801512002944946,0.5259420871734619,0.22716420888900757,0.45318803191185,1.5875437259674072,0.8534417152404785,0.18213242292404175,0.6249550580978394,0.8952363729476929,-0.2626611590385437,0.867136538028717,0.37841373682022095,0.9922146201133728,-0.20392385125160217,0.8097144365310669,-178.1380910074725,0.5102934837341309,0.8975432515144348,137.39378759701665,157.96398070596481,2.0269925471462966,-0.008536116457699987,0.047908309498539935,-0.3012056698992112,-4.378932243207552,170.65571944692556,5.210286509004489,69,1762115374.7931254
0.45125800371170044,0.062382135540246964,-0.5972111225128174,0.9997882843017578,0.6061732172966003,0.3325616419315338,-0.3464270532131195,0.999358594417572,0.38218897581100464,0.36623048782348633,-0.23024961352348328,0.9994640350341797,0.5662652850151062,0.9014571905136108,-0.05388576537370682,0.9936979413032532,0.44958820939064026,0.899487316608429,0.054592035710811615,0.9918837547302246,0.5604630708694458,1.3015766143798828,0.060429006814956665,0.609875500202179,0.4479520320892334,1.2929060459136963,0.35470300912857056,0.4533868134021759,0.5658493638038635,1.6197779178619385,0.5204342603683472,0.20733194053173065,0.4458633065223694,1.6231433153152466,0.827889084815979,0.16610269248485565,0.6306065320968628,0.9119235277175903,-0.17479567229747772,0.8157497048377991,0.37111783027648926,0.9699020385742188,-0.12126985937356949,0.7732993364334106,-178.57115129822682,0.5079267472028732,0.9004722535610199,140.5952183343673,162.24813338067185,2.0124848998187157,-0.03727232364116967,0.04612710827087996,-0.4525494072603203,-0.028051076979030507,171.45142042686592,8.331789666874856,70,1762115374.856624
0.45140552520751953,0.049910202622413635,-0.7145958542823792,0.9997246861457825,0.6112887859344482,0.33113908767700195,-0.43478161096572876,0.9989457130432129,0.3813619613647461,0.36328819394111633,-0.2739807963371277,0.9993698596954346,0.566196084022522,0.905722975730896,-0.0750843733549118,0.9859021306037903,0.4474375247955322,0.9029660820960999,0.0758928582072258,0.9835667610168457,0.5619161128997803,1.3240104913711548,0.060205359011888504,0.5870339274406433,0.44878897070884705,1.3028873205184937,0.39591312408447266,0.4219553768634796,0.5719257593154907,1.6548819541931152,0.5347558856010437,0.1905762106180191,0.4476149082183838,1.647681713104248,0.9065508842468262,0.15172405540943146,0.631666362285614,0.9339547157287598,-0.23160016536712646,0.7508160471916199,0.36937257647514343,0.9832348227500916,-0.1726769506931305,0.7269467115402222,-178.92118050335594,0.5068168044090271,0.9043445289134979,142.7774229796651,162.69268655036504,2.1512177784167297,-0.01401632273953466,0.04889897153042054,0.2936760489598828,0.035003002182619904,172.04032455017213,2.3742757858192514,71,1762115374.9358132
0.44987407326698303,0.04040026292204857,-0.7061704397201538,0.9995962977409363,0.6122530102729797,0.328395813703537,-0.4318527281284332,0.9984782338142395,0.38104507327079773,0.3617255687713623,-0.27743715047836304,0.9992626309394836,0.5665601491928101,0.9116038680076599,-0.07784184068441391,0.9812521934509277,0.44752398133277893,0.9118427038192749,0.07856404036283493,0.9787933826446533,0.5622488260269165,1.3283231258392334,0.09995087236166,0.5678727626800537,0.449362188577652,1.3057491779327393,0.44008874893188477,0.39410924911499023,0.5744222402572632,1.6592531204223633,0.5857336521148682,0.17611993849277496,0.44843196868896484,1.6496831178665161,0.9758263826370239,0.13901697099208832,0.6325307488441467,0.9351832866668701,-0.21258845925331116,0.6900293827056885,0.370444118976593,0.9829356074333191,-0.16790394484996796,0.6831219792366028,-178.94926957947592,0.5070420652627945,0.9117232859134674,147.3248548495549,165.2419506532643,2.1954556433686627,0.0032542710019632833,0.10659852581545139,0.24950270524003648,0.8335668767813248,171.79704251321763,1.8484382172753053,72,1762115375.0050333
0.45199695229530334,0.03659520298242569,-0.7011405229568481,0.9995296597480774,0.6135866641998291,0.3248485028743744,-0.3986271321773529,0.9983106851577759,0.38090845942497253,0.35697126388549805,-0.2627037763595581,0.9992643594741821,0.5687602162361145,0.9219679236412048,-0.1008080467581749,0.9756075739860535,0.4463258683681488,0.9238453507423401,0.10138330608606339,0.9737863540649414,0.563125491142273,1.3523097038269043,0.0771641880273819,0.5419090390205383,0.4484499990940094,1.3367568254470825,0.4147478938102722,0.37052202224731445,0.5748711824417114,1.711653470993042,0.5523027777671814,0.16211850941181183,0.4487515091896057,1.706907033920288,0.9142315983772278,0.12780161201953888,0.6366159319877625,0.9490079283714294,-0.2523401379585266,0.6426973342895508,0.3685339093208313,0.978291928768158,-0.19759207963943481,0.670974612236023,-178.98654750917677,0.5075430423021317,0.9229066371917725,149.51460674467083,163.73439559842328,2.2043090794773885,0.008613692542930112,0.19228416064408488,0.09214875281095719,1.4732605604763276,172.13962696280385,1.7089066988246002,73,1762115375.0631938
0.4517967104911804,0.024061640724539757,-0.7371017932891846,0.9993738532066345,0.620039165019989,0.3245683014392853,-0.46035557985305786,0.9981831312179565,0.3796502947807312,0.3464566171169281,-0.21124807000160217,0.9992088079452515,0.5744518041610718,0.9327923059463501,-0.11634234338998795,0.9689525961875916,0.44610580801963806,0.9280216693878174,0.11705838143825531,0.9656856656074524,0.5628048777580261,1.3582689762115479,0.045455895364284515,0.5101202726364136,0.43289700150489807,1.3466864824295044,0.41232141852378845,0.35234037041664124,0.5722321271896362,1.72446870803833,0.6316215395927429,0.15022394061088562,0.43368402123451233,1.7196897268295288,0.9974216222763062,0.11969030648469925,0.6483514308929443,0.9433661699295044,-0.3953717350959778,0.5947475433349609,0.36942970752716064,0.9583428502082825,-0.11515641212463379,0.6362577676773071,-178.9951710625166,0.5102788060903549,0.9304069876670837,142.75014739306005,157.6597355755313,2.300742547828674,0.03452198648559205,0.0946452317486296,0.32693092042650035,-1.2320836317471966,174.7973489887244,2.0426392502650828,74,1762115375.1424408
0.44963473081588745,-0.006150257773697376,-0.7492087483406067,0.9992318153381348,0.6250149011611938,0.32039791345596313,-0.44785231351852417,0.9980486035346985,0.37976887822151184,0.3374958336353302,-0.21246638894081116,0.9991307854652405,0.5776715278625488,0.9235934615135193,-0.10272027552127838,0.9644114375114441,0.4462953507900238,0.9217491745948792,0.10339896380901337,0.9602609872817993,0.562542200088501,1.34671151638031,0.04082632064819336,0.4816833436489105,0.42631107568740845,1.3365339040756226,0.4097015857696533,0.3406035006046295,0.5705794095993042,1.7002041339874268,0.710742175579071,0.13975964486598969,0.43020400404930115,1.7039164304733276,0.9122757911682129,0.11408574134111404,0.644707977771759,0.9261177182197571,-0.32104557752609253,0.5457386374473572,0.37441056966781616,0.9463567733764648,-0.014111258089542389,0.5894374251365662,-179.07447382714525,0.5119834393262863,0.9226713180541992,136.49099233754222,162.42444792332017,2.3143896296176667,0.02366221095515937,-0.10737972392018771,-0.15074579921960263,-2.804331757986832,176.01193902481208,1.6076833401131958,75,1762115375.214481
0.45047155022621155,-0.011532548815011978,-0.7138769626617432,0.9990985989570618,0.6242405772209167,0.31723031401634216,-0.43956655263900757,0.9975407719612122,0.3803311884403229,0.3229767382144928,-0.18176552653312683,0.9990704655647278,0.5788761973381042,0.9219388961791992,-0.11565744876861572,0.9566348791122437,0.4466560482978821,0.9208412170410156,0.11629396677017212,0.9535748362541199,0.5621973276138306,1.344339370727539,-0.027333591133356094,0.46000468730926514,0.4275851845741272,1.3358808755874634,0.3702525496482849,0.3302256762981415,0.5699599981307983,1.705928921699524,0.6483167409896851,0.13150319457054138,0.4323475956916809,1.7091779708862305,0.9163905382156372,0.10968449711799622,0.6425889730453491,0.9183021783828735,-0.3005881905555725,0.500216543674469,0.3753342926502228,0.8919847011566162,0.0033472361974418163,0.5610241889953613,-179.00145322837443,0.5127661228179932,0.9213900566101074,129.89719901163656,155.67486449852984,2.279590174539631,0.012210572810117165,-0.019988841361353916,-0.178655948217605,1.363377081197868,178.65038013121216,1.6732133298297422,76,1762115375.27858
0.45107635855674744,-0.0049921306781470776,-0.750333845615387,0.9990016222000122,0.6277274489402771,0.31704455614089966,-0.47808361053466797,0.9971922039985657,0.38071489334106445,0.3179301917552948,-0.18791134655475616,0.9990557432174683,0.5804095268249512,0.9294390082359314,-0.12444256246089935,0.9512527585029602,0.44681549072265625,0.9235040545463562,0.1250077784061432,0.9486774802207947,0.5592545866966248,1.3658013343811035,-0.06229916214942932,0.4494633376598358,0.42278799414634705,1.3609486818313599,0.38220104575157166,0.3219010829925537,0.5633201003074646,1.7364968061447144,0.6179117560386658,0.12784355878829956,0.4269327223300934,1.7436491250991821,1.006561279296875,0.10728627443313599,0.6481990814208984,0.9114016890525818,-0.29450613260269165,0.46361395716667175,0.37392476201057434,0.8902688026428223,-0.021317902952432632,0.5399142503738403,-179.11649366458377,0.5136125087738037,0.9264715313911438,126.62649175400482,151.80468373683007,2.342822813975495,0.01067543957250127,0.0640924823855247,-0.019362587483168287,1.060515105045808,179.79457333520818,2.28715565567591,77,1762115375.3578634
0.4592488408088684,-0.01586526818573475,-0.8857915997505188,0.9988032579421997,0.6336123943328857,0.3093959093093872,-0.4949258267879486,0.9967067837715149,0.3809489905834198,0.3187106251716614,-0.3323759436607361,0.9989553093910217,0.5842142701148987,0.9241072535514832,-0.11984113603830338,0.9481573700904846,0.4469992518424988,0.9234374165534973,0.12033132463693619,0.945490300655365,0.5659162402153015,1.3691980838775635,0.041888076812028885,0.4328244924545288,0.42493581771850586,1.3687262535095215,0.3643170893192291,0.31515607237815857,0.5675808191299438,1.7430239915847778,0.7572998404502869,0.11966700851917267,0.42890462279319763,1.7552425861358643,0.9585273861885071,0.10247259587049484,0.6474083065986633,0.8868513107299805,-0.21022441983222961,0.42508432269096375,0.3746820092201233,0.9092668890953064,-0.0635809376835823,0.507181704044342,-179.21764143171336,0.5156067609786987,0.9237723350524902,137.50401848998848,151.63064289839656,2.481380321343591,0.03150589476063129,-0.04264284907152812,0.329086826311328,-1.6862421472433708,177.88868386770537,2.9549250011372488,78,1762115375.4211612
0.4716706871986389,-0.01000997330993414,-0.878929615020752,0.9978204965591431,0.6384652853012085,0.2973394989967346,-0.4819749891757965,0.9951843023300171,0.3839734196662903,0.32302919030189514,-0.3084617257118225,0.9985748529434204,0.5904512405395508,0.9317197799682617,-0.11261655390262604,0.9297051429748535,0.4482511878013611,0.9341362118721008,0.11326040327548981,0.9247944951057434,0.5692772269248962,1.385596513748169,0.008806942030787468,0.4179781675338745,0.4255092144012451,1.38729989528656,0.37324613332748413,0.30723196268081665,0.5693975687026978,1.7833737134933472,0.677406907081604,0.11321106553077698,0.42951494455337524,1.7922788858413696,0.9823934435844421,0.09864448010921478,0.6315270662307739,0.8759689927101135,-0.32679665088653564,0.3867618441581726,0.3996580243110657,0.9119638800621033,-0.05299939587712288,0.47133585810661316,-179.2518673231384,0.5193512141704559,0.9329279959201813,135.66717366952372,153.3198188324646,2.480541584957189,0.046749979163193865,0.11430960219560403,0.19032435223134164,1.9595715183469191,174.23580125337523,3.9397868180272737,79,1762115375.5012565
0.47878390550613403,-0.01938382349908352,-0.8734901547431946,0.9972631931304932,0.641810417175293,0.2910163402557373,-0.47220221161842346,0.9930309057235718,0.38823139667510986,0.3359992802143097,-0.29446738958358765,0.9980836510658264,0.5923837423324585,0.9478814601898193,-0.11194022744894028,0.876666784286499,0.4518670439720154,0.9463792443275452,0.11279667913913727,0.8734062314033508,0.57283616065979,1.4047173261642456,-0.0067862821742892265,0.3932950794696808,0.4266420006752014,1.4036444425582886,0.25946491956710815,0.29242366552352905,0.5719026327133179,1.8208582401275635,0.6523619890213013,0.10443847626447678,0.43030792474746704,1.824849247932434,0.7654876708984375,0.09217485785484314,0.6289972066879272,0.8754929304122925,-0.36160165071487427,0.3517809808254242,0.3985653221607208,0.9422545433044434,-0.18303313851356506,0.43793463706970215,-179.35759858225765,0.5221253931522369,0.9471303522586823,135.18172795093795,147.40048323040705,2.428656970988469,0.0437355289271109,0.22390320543661293,-0.047523456981460994,1.7277667505419196,169.94081866848242,5.196384064488074,80,1762115375.5646873
0.4814910888671875,-0.01394439022988081,-0.845433235168457,0.9954699277877808,0.6396123766899109,0.2922901511192322,-0.4745711386203766,0.990401566028595,0.39158982038497925,0.34155523777008057,-0.2415110170841217,0.9975675344467163,0.5935256481170654,0.9693819880485535,-0.13297376036643982,0.824368953704834,0.45384398102760315,0.9622918963432312,0.1339709460735321,0.8231117725372314,0.5718374252319336,1.4238241910934448,-0.08978264778852463,0.37379640340805054,0.4257081151008606,1.4162557125091553,0.26463085412979126,0.28193193674087524,0.5715476274490356,1.8526511192321777,0.4893583357334137,0.09832872450351715,0.42893141508102417,1.8490829467773438,0.7506529688835144,0.08857714384794235,0.6285451054573059,0.8840705156326294,-0.4527885913848877,0.32047730684280396,0.3983416259288788,0.9545755982398987,-0.201899915933609,0.409988671541214,-179.28628650564946,0.5236848145723343,0.9658369421958923,131.89073886990343,147.55045691407128,2.371789257264098,0.024603202217817016,0.2951363942418007,-0.3018533007560671,1.1238556340239096,168.76548213822414,5.507552365260757,81,1762115375.62807
0.48241204023361206,-0.02033999189734459,-0.8743358850479126,0.994186520576477,0.6413117051124573,0.2812901437282562,-0.46641096472740173,0.9870743751525879,0.39175158739089966,0.3470713794231415,-0.3156573474407196,0.9970507621765137,0.5972375273704529,0.9613662958145142,-0.11942055076360703,0.7796708345413208,0.4569249153137207,0.9597866535186768,0.12063875049352646,0.7819889783859253,0.5748465061187744,1.4142893552780151,-0.057274311780929565,0.35494059324264526,0.42801713943481445,1.4120795726776123,0.23577706515789032,0.27119889855384827,0.5756758451461792,1.8275299072265625,0.6388458609580994,0.09116566926240921,0.43814581632614136,1.834862232208252,0.7818607091903687,0.08376209437847137,0.6276377439498901,0.8423674702644348,-0.42894092202186584,0.29087600111961365,0.395734578371048,0.9875439405441284,-0.2734215259552002,0.3833027184009552,-179.06498069615662,0.5270812213420868,0.9605764746665955,128.449283642028,141.797193653427,2.43721680285082,0.041906848094041785,-0.06490671718627733,0.21350247728451127,-4.442421947893513,165.2333530834872,1.9251021474116872,82,1762115375.7091167
0.510617196559906,0.06491020321846008,-0.13198482990264893,0.9854400753974915,0.4641473889350891,0.1675465852022171,-0.10959593951702118,0.98735111951828,0.5478139519691467,0.14293649792671204,-0.11731058359146118,0.9949962496757507,0.5252702236175537,0.3185681700706482,0.005156525876373053,0.8005889654159546,0.5692190527915955,0.2801390290260315,-0.005026550497859716,0.8027400970458984,0.5188682079315186,0.2485995888710022,0.06264015287160873,0.32323628664016724,0.5898571610450745,0.19708503782749176,0.06899090111255646,0.2502535283565521,0.5265048146247864,0.1684887558221817,0.18736515939235687,0.09292840212583542,0.5575667023658752,0.14967933297157288,0.1993134468793869,0.09534524381160736,0.4973398745059967,0.13030317425727844,0.0383044108748436,0.2659399211406708,0.5328477621078491,0.08796510100364685,0.009070917032659054,0.359851598739624,-164.02186096663806,0.5472446382045746,0.29935359954833984,160.79806530993375,143.29370303302986,0.34013472321074933,0.11065266512887006,-3.6286545021110905,0.37726283810148203,-19.557111423047957,-16.39097398772051,3.347194635659059,83,1762115375.8913393
0.5159336924552917,0.04452528432011604,-0.15004482865333557,0.9801514148712158,0.4639219641685486,0.09092444181442261,-0.14545515179634094,0.9884821176528931,0.5472080707550049,0.09116105735301971,-0.16546478867530823,0.9952479600906372,0.5252944827079773,0.25939443707466125,0.009292980656027794,0.8195744156837463,0.5693181753158569,0.24698886275291443,-0.00934484414756298,0.8217289447784424,0.5011352300643921,0.1724730283021927,0.12614941596984863,0.2972699701786041,0.5672836303710938,0.12118374556303024,0.11417490243911743,0.23864774405956268,0.5251947641372681,0.1517646461725235,0.32058238983154297,0.0873461589217186,0.557369589805603,0.1166514903306961,0.2975350022315979,0.09338069707155228,0.5204282999038696,0.17202678322792053,0.048618949949741364,0.24103063344955444,0.5562684535980225,0.1314307600259781,0.07206114381551743,0.3288131356239319,-165.56402154966744,0.5473063290119171,0.25319164991378784,145.39484156204927,135.8501401746878,0.46846728143924016,0.0007700457414610483,-0.5762092322160354,-1.3715924100336208,38.10166510019347,0.16277667200963797,5.900877286616268,84,1762115375.9714525
0.5163718461990356,0.034757837653160095,-0.18110662698745728,0.9795582294464111,0.4787231981754303,0.0821748822927475,-0.1370365470647812,0.9894937872886658,0.5377815365791321,0.08995259553194046,-0.15765704214572906,0.9955085515975952,0.5349727869033813,0.25836896896362305,0.011205071583390236,0.8359821438789368,0.5692144632339478,0.2512757182121277,-0.01134573481976986,0.8383886218070984,0.5057589411735535,0.18110479414463043,0.13744498789310455,0.27045464515686035,0.5689058899879456,0.13086888194084167,0.11821845918893814,0.22489674389362335,0.529268205165863,0.16219349205493927,0.3104594945907593,0.08257530629634857,0.5573205947875977,0.11787822842597961,0.29163315892219543,0.09225132316350937,0.532757580280304,0.16747261583805084,0.041083596646785736,0.21853873133659363,0.5487772226333618,0.15021421015262604,0.08840330690145493,0.2993776202201843,-165.43722643847298,0.5520936250686646,0.25482234358787537,148.5985324579242,141.23191197576043,0.49424665577604626,0.07360204904512298,0.02507102012389575,1.119752072081531,9.24435382687725,7.502417893515433,7.352234180074864,85,1762115376.0364954
0.5163133144378662,0.04629550501704216,-0.17107774317264557,0.9780083894729614,0.4757230281829834,0.09100022912025452,-0.14000597596168518,0.9904443025588989,0.5384358763694763,0.09840880334377289,-0.1557122766971588,0.995746910572052,0.5343475341796875,0.2595292627811432,0.014009496197104454,0.8519914150238037,0.5676674246788025,0.25242218375205994,-0.01421115081757307,0.8541956543922424,0.5079216957092285,0.1972460001707077,0.13441063463687897,0.24594198167324066,0.5679429769515991,0.13642767071723938,0.10442312806844711,0.21419090032577515,0.5344308018684387,0.18660134077072144,0.2852579355239868,0.07843069732189178,0.5595336556434631,0.15770022571086884,0.2584119439125061,0.09092597663402557,0.5314634442329407,0.18581564724445343,0.0295773483812809,0.20071837306022644,0.5462942719459534,0.15846477448940277,0.072120800614357,0.272858589887619,-164.76307996039276,0.551007479429245,0.25597572326660156,148.73232498460172,127.70625440871015,0.4614669847647133,-0.015501966829321409,0.01646156175776013,-1.2717332264788501,-0.12287812349141504,6.737403253548251,4.853447051151789,86,1762115376.1065605
0.5155072212219238,0.048140961676836014,-0.19743962585926056,0.9743399024009705,0.47467732429504395,0.09037917107343674,-0.15496307611465454,0.9912769794464111,0.5388380289077759,0.09114330261945724,-0.16929009556770325,0.9959059953689575,0.5339595675468445,0.2545531392097473,0.013182285241782665,0.866219162940979,0.5675191283226013,0.24222956597805023,-0.013300630263984203,0.8682036399841309,0.5085939168930054,0.19157961010932922,0.13299715518951416,0.2245754599571228,0.5674434900283813,0.12800797820091248,0.10633598268032074,0.1989520639181137,0.5334219932556152,0.1756652146577835,0.29425516724586487,0.07520638406276703,0.559139609336853,0.1443869173526764,0.26990681886672974,0.08669453859329224,0.5304301977157593,0.19685813784599304,0.010970808565616608,0.18521545827388763,0.5458423495292664,0.15812809765338898,0.05979502201080322,0.2500937879085541,-164.4099301580752,0.5507393479347229,0.24839135259389877,150.72710601326963,130.54569475038173,0.4933612406404918,-0.003697867345328283,-0.10459792011916036,0.1627932373280668,-1.669561069925476,0.6823404299198802,5.322661332187246,87,1762115376.1790702
0.5162492394447327,0.07656502723693848,-0.17922072112560272,0.9749863147735596,0.474091112613678,0.10312312096357346,-0.152772456407547,0.9920794367790222,0.541398286819458,0.09771567583084106,-0.16918006539344788,0.9961511492729187,0.525476336479187,0.26094433665275574,0.012957091443240643,0.8790687322616577,0.5659530758857727,0.24424603581428528,-0.013155920431017876,0.8807178735733032,0.5041931867599487,0.19627946615219116,0.13224276900291443,0.2074592411518097,0.5611799359321594,0.1295703500509262,0.10435135662555695,0.1862288862466812,0.529134213924408,0.17641781270503998,0.29947954416275024,0.07348895072937012,0.5588723421096802,0.1447363793849945,0.27465635538101196,0.08281006664037704,0.5307299494743347,0.20237451791763306,0.010873004794120789,0.17389312386512756,0.5445027351379395,0.16350436210632324,0.06071922183036804,0.23113872110843658,-165.98996128696083,0.5457147061824799,0.2525951862335205,152.29270661055997,130.61245813709803,0.47460872196982296,-0.06471275962022674,0.054141506841323066,-0.7858156365629282,2.044417669092645,-4.593266217411687,3.354917565946677,88,1762115376.2567155
0.5116317272186279,0.09188584983348846,-0.2175026684999466,0.9747655987739563,0.46640443801879883,0.11231108009815216,-0.15591579675674438,0.9927947521209717,0.5420842170715332,0.10146357119083405,-0.1720733940601349,0.996292769908905,0.5170183777809143,0.26646021008491516,0.012906743213534355,0.8903273344039917,0.5625470876693726,0.24736960232257843,-0.013049585744738579,0.8914706707000732,0.4979380667209625,0.1982010155916214,0.1254565417766571,0.19253866374492645,0.5581375956535339,0.13232995569705963,0.10188069194555283,0.17502710223197937,0.5216295719146729,0.17684809863567352,0.2935027778148651,0.07154850661754608,0.556860089302063,0.1447685956954956,0.270571768283844,0.0786726251244545,0.529119610786438,0.20979589223861694,0.016782641410827637,0.16302669048309326,0.5437836050987244,0.16169753670692444,0.07137621194124222,0.21166211366653442,-166.673459193711,0.5397827327251434,0.2569149062037468,151.1057095038284,130.74974816077594,0.5050276698562015,-0.08273890878617676,0.0602512669972166,-0.2514279476019861,0.08521866995522236,-8.156893429523441,3.170807192674453,89,1762115376.3284106
0.5089805722236633,0.09417103976011276,-0.24794745445251465,0.9744163751602173,0.46156972646713257,0.12353808432817459,-0.15299801528453827,0.9933843612670898,0.5489276647567749,0.10224708169698715,-0.16777752339839935,0.9963493943214417,0.5162177085876465,0.2650088965892792,0.01015332993119955,0.9006204605102539,0.5630340576171875,0.2405041754245758,-0.010329680517315865,0.901519238948822,0.4974340796470642,0.19208747148513794,0.11709855496883392,0.18265098333358765,0.5570170879364014,0.12073639035224915,0.09909877926111221,0.1675647348165512,0.5193962454795837,0.1767716258764267,0.279782235622406,0.07111744582653046,0.556106448173523,0.14479759335517883,0.26326099038124084,0.0770479291677475,0.52248615026474,0.200510635972023,0.025268416851758957,0.1528901755809784,0.5492728352546692,0.1531948447227478,0.06514958292245865,0.19709691405296326,-166.19099632210686,0.539625883102417,0.2527565360069275,147.07848149966267,124.06403523757743,0.5245123804087458,-0.0024755036612807333,-0.06563012692189017,1.2667697237632245,-1.9867427547298826,-13.697172471931534,3.2656940577792026,90,1762115376.3917713
0.5087448358535767,0.09310109168291092,-0.21646253764629364,0.9745664596557617,0.45875445008277893,0.12410397827625275,-0.15143880248069763,0.9940069317817688,0.5486553311347961,0.10504423081874847,-0.1642569601535797,0.9966020584106445,0.5141575336456299,0.2649860978126526,0.00992950052022934,0.9102771282196045,0.5630512237548828,0.24364106357097626,-0.01011832058429718,0.9110493659973145,0.49238163232803345,0.18811389803886414,0.12505772709846497,0.16996824741363525,0.5536855459213257,0.12729254364967346,0.10432903468608856,0.15757930278778076,0.5036036372184753,0.17130395770072937,0.2996402978897095,0.0697396993637085,0.5452717542648315,0.14081963896751404,0.2788563668727875,0.07525081187486649,0.523220419883728,0.21621377766132355,0.0286939088255167,0.14536496996879578,0.5536764860153198,0.16678455471992493,0.06792236864566803,0.1873936504125595,-165.97741084563748,0.5386043787002563,0.2543135806918144,149.16063900749876,130.16566826053852,0.5098566470072742,-0.011562074130044661,0.01762367938148503,-0.10284791835013672,0.9423225960181664,-11.969950315149712,24.837608527266404,91,1762115376.480121
0.5060093402862549,0.09537777304649353,-0.24394527077674866,0.9763219952583313,0.45820537209510803,0.12818428874015808,-0.1568039506673813,0.9945771098136902,0.5467449426651001,0.10530110448598862,-0.17594565451145172,0.9968633651733398,0.5117715001106262,0.26608169078826904,0.009839287027716637,0.9188736081123352,0.5582176446914673,0.24538654088974,-0.010007466189563274,0.919501781463623,0.48905521631240845,0.18626463413238525,0.12136435508728027,0.16330108046531677,0.5472703576087952,0.12067679315805435,0.09722305089235306,0.1519944816827774,0.5019708871841431,0.1659683883190155,0.2890169024467468,0.07055584341287613,0.5374709963798523,0.13907074928283691,0.27017325162887573,0.07481691241264343,0.5243552923202515,0.21702435612678528,0.023413725197315216,0.13908110558986664,0.5539183616638184,0.16173741221427917,0.05496720224618912,0.18149617314338684,-166.83154695284017,0.5349945724010468,0.2557341158390045,148.25918507605536,124.72844161751517,0.5268279497401498,-0.0536697955031247,0.021120199959589803,-0.6260482164072324,0.051985488650856435,-14.491079918384637,20.857078831869202,92,1762115376.5473804
0.4994639754295349,0.1065950095653534,-0.29284167289733887,0.9780124425888062,0.45528358221054077,0.14737674593925476,-0.15817740559577942,0.9950276017189026,0.5497962236404419,0.10554719716310501,-0.17273743450641632,0.9969765543937683,0.510767936706543,0.2667679786682129,0.007316873408854008,0.9266700148582458,0.5590413808822632,0.24018383026123047,-0.0074508474208414555,0.9271746873855591,0.4877811074256897,0.18136635422706604,0.09841819107532501,0.16472271084785461,0.5465565919876099,0.10561468452215195,0.08382062613964081,0.15379364788532257,0.5052556991577148,0.1666353940963745,0.2621253430843353,0.07228291779756546,0.539695143699646,0.1379660964012146,0.24981503188610077,0.07714277505874634,0.509626030921936,0.2085120677947998,0.04719775170087814,0.13547098636627197,0.5593387484550476,0.13493560254573822,0.06956931948661804,0.1812279373407364,-165.7045279923352,0.5349046587944031,0.2534759044647217,138.71012900251492,113.21933450452089,0.5511923430327197,-0.0013499364630501316,-0.03390412184776189,0.7855149859546505,-0.8261189950561539,-23.873296028986065,6.097846164673063,93,1762115376.6139863
0.4983881413936615,0.11408916860818863,-0.29013144969940186,0.9798584580421448,0.4553655683994293,0.15263496339321136,-0.1556006819009781,0.9954645037651062,0.549512505531311,0.10842860490083694,-0.1702365279197693,0.9971506595611572,0.5104001760482788,0.2674885094165802,0.006521229632198811,0.9336487650871277,0.5584701299667358,0.2410867065191269,-0.006621580570936203,0.9340698719024658,0.4855823516845703,0.1776222437620163,0.08683373034000397,0.1660500019788742,0.5457586646080017,0.10278920084238052,0.07215528190135956,0.15558575093746185,0.5019310712814331,0.16599774360656738,0.2401772290468216,0.0744025856256485,0.5373667478561401,0.13824039697647095,0.22789935767650604,0.07890180498361588,0.5084401369094849,0.20553307235240936,0.05248785763978958,0.1307545155286789,0.5578898191452026,0.13413576781749725,0.07727362960577011,0.17840585112571716,-165.50404282773692,0.5344351530075073,0.25428760796785355,132.89769443255332,107.0137827956572,0.5259773885122285,-0.007396466372698522,0.012787356052012831,-0.09525538640093555,0.7355648339515806,-25.15223529396547,8.040434388253084,94,1762115376.6774633
