nose_x,nose_y,nose_z,nose_visibility,left_shoulder_x,left_shoulder_y,left_shoulder_z,left_shoulder_visibility,right_shoulder_x,right_shoulder_y,right_shoulder_z,right_shoulder_visibility,left_hip_x,left_hip_y,left_hip_z,left_hip_visibility,right_hip_x,right_hip_y,right_hip_z,right_hip_visibility,left_knee_x,left_knee_y,left_knee_z,left_knee_visibility,right_knee_x,right_knee_y,right_knee_z,right_knee_visibility,left_ankle_x,left_ankle_y,left_ankle_z,left_ankle_visibility,right_ankle_x,right_ankle_y,right_ankle_z,right_ankle_visibility,left_wrist_x,left_wrist_y,left_wrist_z,left_wrist_visibility,right_wrist_x,right_wrist_y,right_wrist_z,right_wrist_visibility,trunk_lateral_inclination,center_mass_x,center_mass_y,left_knee_angle,right_knee_angle,person_height,center_mass_velocity_x,center_mass_velocity_y,center_mass_acceleration_x,center_mass_acceleration_y,body_orientation,torso_leg_ratio,frame,timestamp
0.49584633111953735,0.3075897693634033,-0.25929132103919983,0.9999896287918091,0.5254451632499695,0.37444597482681274,-0.12721699476242065,0.9999539852142334,0.46728068590164185,0.3648200035095215,-0.11833302676677704,0.9999489784240723,0.5052881240844727,0.5120186805725098,0.0022795596159994602,0.9991163611412048,0.4729796051979065,0.5069829225540161,-0.002343913307413459,0.9996066689491272,0.4975516200065613,0.615614652633667,0.027812879532575607,0.9666036367416382,0.47528448700904846,0.6226226091384888,0.004842502065002918,0.9829918742179871,0.495863139629364,0.6624932289123535,0.2414151430130005,0.8001983165740967,0.4715196490287781,0.7090349793434143,0.11771850287914276,0.9574443101882935,0.5367351770401001,0.5170837640762329,-0.14328525960445404,0.9644355177879333,0.4466152787208557,0.5056951642036438,-0.13354864716529846,0.8785446882247925,177.0413035728182,0.4891338646411896,0.5095008015632629,116.18373239178871,130.92172686279773,0.5794480481502504,0.0,0.0,0.0,0.0,-170.6029679211292,2.65027976771343,0,1762115407.1713173
0.4958171844482422,0.31073489785194397,-0.2890946567058563,0.9999898076057434,0.5254442095756531,0.38011863827705383,-0.1359024941921234,0.9999557137489319,0.4669112265110016,0.36672088503837585,-0.13035334646701813,0.9999533891677856,0.5050726532936096,0.5159943699836731,0.002448607934638858,0.9991677403450012,0.4724512994289398,0.5124431252479553,-0.0025188783183693886,0.9996423125267029,0.49530577659606934,0.6161866784095764,0.07306511700153351,0.9636239409446716,0.47431236505508423,0.6297102570533752,-0.04132450744509697,0.9831159114837646,0.49641385674476624,0.6446205973625183,0.3196919560432434,0.7826554179191589,0.47152018547058105,0.7276673913002014,0.04755193740129471,0.9589020609855652,0.5348007678985596,0.5233569741249084,-0.16072238981723785,0.9568760991096497,0.4462074637413025,0.5102052092552185,-0.14744898676872253,0.8799998760223389,176.98507439886225,0.4887619763612747,0.5142187476158142,131.56251362240886,119.43854535318074,0.6037660169695815,-0.005041475972540046,0.06395848685826579,-0.06834439629965677,0.8670484985700255,-167.10752405939112,8.796327813853381,1,1762115407.245083
0.4957854747772217,0.31395620107650757,-0.29702019691467285,0.9999904036521912,0.5254421234130859,0.3845560848712921,-0.1344510167837143,0.9999585747718811,0.46613287925720215,0.36947494745254517,-0.13958042860031128,0.999957799911499,0.5049461126327515,0.522558867931366,0.006750992499291897,0.9992273449897766,0.47210806608200073,0.5197852849960327,-0.0068763247691094875,0.9996767044067383,0.49425753951072693,0.6200791597366333,0.09646265208721161,0.9601911902427673,0.47432923316955566,0.6346887946128845,-0.07641413062810898,0.9839619398117065,0.4970393180847168,0.6412972211837769,0.3602127432823181,0.7588862776756287,0.471548467874527,0.7385464906692505,0.002993775298818946,0.9614980220794678,0.534263014793396,0.5279263854026794,-0.15534256398677826,0.9526521563529968,0.44478267431259155,0.5128411054611206,-0.16089698672294617,0.8861980438232422,177.11674750198335,0.4885270893573761,0.5211720764636993,136.93509771979322,111.38631938339138,0.6087385669635655,-0.003199512532557369,0.09471474548418735,0.02509029879439689,0.418946273292686,-165.73320468521118,4818.944459706322,2,1762115407.3184965
0.4955011010169983,0.3194999098777771,-0.3064623773097992,0.999990701675415,0.5254146456718445,0.39067894220352173,-0.14641419053077698,0.9999603629112244,0.46496161818504333,0.37517544627189636,-0.14425092935562134,0.9999617338180542,0.5050098896026611,0.5295020341873169,0.00689582759514451,0.9992741346359253,0.4721011519432068,0.5269222855567932,-0.007019121199846268,0.9997073411941528,0.494393914937973,0.6199281215667725,0.09854850172996521,0.9539085030555725,0.47450050711631775,0.6409702897071838,-0.07031576335430145,0.9845026135444641,0.49768131971359253,0.6424267888069153,0.36454540491104126,0.7369834184646606,0.4726592004299164,0.7472203373908997,0.021549304947257042,0.9636353850364685,0.5342825651168823,0.5377225875854492,-0.17174503207206726,0.9433068037033081,0.4430873394012451,0.5172766447067261,-0.15588970482349396,0.8908615112304688,177.38612355073792,0.48855552077293396,0.528212159872055,139.89127195415358,110.10142964974085,0.624887624732093,0.000397778444911438,0.09849644751325928,0.05032900342226668,0.05290906283513307,-165.61618683387897,9.160444592660214,3,1762115407.389972
0.4949314594268799,0.32241442799568176,-0.3133907914161682,0.999991238117218,0.5247300267219543,0.3942531645298004,-0.14847686886787415,0.9999622106552124,0.46326154470443726,0.37903887033462524,-0.15305568277835846,0.9999653697013855,0.5049604773521423,0.5353052616119385,0.007664717733860016,0.9993237853050232,0.4718872010707855,0.5323218703269958,-0.007809378206729889,0.9997355937957764,0.4944600462913513,0.6252286434173584,0.10702250152826309,0.9498555660247803,0.4746018350124359,0.6481563448905945,-0.07209022343158722,0.9850934743881226,0.49786823987960815,0.6439536809921265,0.38064268231391907,0.7130509614944458,0.47340625524520874,0.7521436214447021,0.019556432962417603,0.9656561017036438,0.5338126420974731,0.5422641038894653,-0.17628368735313416,0.9343398213386536,0.440756618976593,0.52215176820755,-0.180188849568367,0.8956895470619202,177.83174614631608,0.48842383921146393,0.5338135659694672,141.44979881674595,109.5650361566263,0.6362859346255202,-0.0012619382182923206,0.05367971302579569,-0.015905490984856576,-0.42949027515641125,-166.09790714889195,5.031980247591203,4,1762115407.4943206
0.4945599436759949,0.3238442838191986,-0.33783024549484253,0.9999912977218628,0.5246716141700745,0.3963097333908081,-0.17514841258525848,0.9999632835388184,0.46280980110168457,0.3798680603504181,-0.16011285781860352,0.9999684691429138,0.5049598217010498,0.5363982319831848,0.0059541938826441765,0.9993688464164734,0.4717724919319153,0.533290684223175,-0.006110210437327623,0.9997608661651611,0.4942738115787506,0.6300789713859558,0.10204722732305527,0.9442135095596313,0.47462326288223267,0.650422215461731,-0.06466788798570633,0.9850738048553467,0.4978625178337097,0.64566969871521,0.38709408044815063,0.6893832683563232,0.47386616468429565,0.751375675201416,0.03698818013072014,0.966762125492096,0.5337985754013062,0.5505037307739258,-0.20664064586162567,0.9205728769302368,0.44005221128463745,0.5245060324668884,-0.16649048030376434,0.8966552019119263,177.90262449341694,0.48836615681648254,0.5348444581031799,138.55917017991797,108.2267454271484,0.6654457522496975,-0.0005785404102480714,0.010339597690979613,0.006854314013073673,-0.4346908292225957,-165.1159878597413,3.7934327622185084,5,1762115407.594024
0.4939843714237213,0.3239723742008209,-0.3158414959907532,0.9999916553497314,0.5245951414108276,0.39645975828170776,-0.1583898663520813,0.9999637603759766,0.4617571234703064,0.380934476852417,-0.14955805242061615,0.9999714493751526,0.5049596428871155,0.5378658175468445,0.005871471483260393,0.9994063973426819,0.4716102182865143,0.5363079309463501,-0.0060505918227136135,0.999783456325531,0.49435749650001526,0.6370163559913635,0.09166215360164642,0.9349814653396606,0.474614679813385,0.6566998362541199,-0.04989715665578842,0.984510600566864,0.49806007742881775,0.639582633972168,0.3779357969760895,0.6451461315155029,0.474618524312973,0.755241334438324,0.05527697876095772,0.9660656452178955,0.5325005650520325,0.5474963188171387,-0.1706942319869995,0.8949395418167114,0.4389275014400482,0.5258455276489258,-0.16250817477703094,0.8997154831886292,178.11210826565608,0.4882849305868149,0.5370868742465973,131.13293950310276,113.11564256264731,0.6503970621476058,-0.0008673196624279223,0.023944132584870357,-0.0030835350174640273,0.14526687573626995,-166.1219591916566,2.6378860506708213,6,1762115407.687676
0.4936487674713135,0.32274118065834045,-0.3085736632347107,0.9999900460243225,0.5243223905563354,0.3961917459964752,-0.15343418717384338,0.9999556541442871,0.46037960052490234,0.38137272000312805,-0.1478746086359024,0.9999730587005615,0.5049501657485962,0.540608823299408,-0.0013964580139145255,0.9994118809700012,0.47071951627731323,0.5382142663002014,0.0012699621729552746,0.9997984766960144,0.49561986327171326,0.6475604772567749,0.018559273332357407,0.9239704608917236,0.4746242165565491,0.6614030003547668,-0.006922411732375622,0.9773964285850525,0.5036637783050537,0.640619158744812,0.29562029242515564,0.5946894288063049,0.4751985967159271,0.7587182521820068,0.12786558270454407,0.9568131566047668,0.5295659303665161,0.5495519638061523,-0.15229365229606628,0.8458229899406433,0.43586158752441406,0.5293105244636536,-0.14212676882743835,0.8885427713394165,178.282677525554,0.4878348410129547,0.5394115447998047,98.95226982299224,122.01161157900245,0.6425118769361474,-0.005399581548071917,0.02788833368609527,-0.05437210517645958,0.047317326872084856,-166.95180016517958,1.0477957950857515,7,1762115407.7766883
0.49260154366493225,0.32228386402130127,-0.2999420464038849,0.9999892711639404,0.5236393213272095,0.3951655626296997,-0.14626486599445343,0.9999545216560364,0.4586926996707916,0.38223645091056824,-0.12124769389629364,0.9999738335609436,0.5049149990081787,0.5405661463737488,-0.006071983836591244,0.9994344711303711,0.46961846947669983,0.5394665002822876,0.005989535246044397,0.9998123049736023,0.49743884801864624,0.6517783403396606,0.011296339333057404,0.9184589385986328,0.47419047355651855,0.6649370789527893,0.012140236794948578,0.9733861088752747,0.5030544996261597,0.631524384021759,0.2967543303966522,0.5542265176773071,0.475283682346344,0.7598856687545776,0.15045258402824402,0.9526408314704895,0.5282074213027954,0.5474832057952881,-0.1303488314151764,0.8170305490493774,0.4334573745727539,0.5294997692108154,-0.10986238718032837,0.8733797669410706,178.5238596792151,0.48726673424243927,0.5400163233280182,94.73141802525387,127.26047376783332,0.6430824524053609,-0.006613999855663006,0.007040938967657411,-0.014138473484191033,-0.24270906951803317,-168.7411530106924,1.1620793834744358,8,1762115407.856927
0.4902401864528656,0.3203325569629669,-0.2948917746543884,0.9999875426292419,0.5224169492721558,0.39441683888435364,-0.14528261125087738,0.9999504089355469,0.4569215178489685,0.38254836201667786,-0.11801151186227798,0.9999731183052063,0.5039970874786377,0.541669487953186,-0.007461772300302982,0.99945467710495,0.46745094656944275,0.5409806370735168,0.007368891499936581,0.9998210668563843,0.49911966919898987,0.664649486541748,-0.025986814871430397,0.9125546216964722,0.47366276383399963,0.6683320999145508,0.015513683669269085,0.9660202860832214,0.5045047998428345,0.6342018842697144,0.26076358556747437,0.5115258097648621,0.47532549500465393,0.7601346373558044,0.1712881624698639,0.9413886070251465,0.5251969695091248,0.5484832525253296,-0.13192710280418396,0.7836325764656067,0.42910081148147583,0.5333876013755798,-0.11512690782546997,0.8470998406410217,178.5213920839951,0.4857240170240402,0.5413250625133514,75.3438129474656,124.15312852925281,0.6348559656110548,-0.01926016269842451,0.016339047324227064,-0.1578819183175505,0.11608289425910162,-169.728846180637,1.1192323027972242,9,1762115407.9370258
0.489768922328949,0.32020747661590576,-0.29250970482826233,0.9999862313270569,0.5221148133277893,0.3943118751049042,-0.1436169147491455,0.9999486804008484,0.45624613761901855,0.3826969861984253,-0.11618880182504654,0.9999735951423645,0.5036593675613403,0.543045699596405,-0.00787014327943325,0.9994801878929138,0.4667697846889496,0.5420772433280945,0.00778682017698884,0.9998319745063782,0.49959510564804077,0.6652408838272095,-0.017572833225131035,0.9066747426986694,0.47352176904678345,0.6700031161308289,0.01665343903005123,0.9604133367538452,0.5037857890129089,0.632994532585144,0.26650649309158325,0.471797913312912,0.47538962960243225,0.7620401978492737,0.16603268682956696,0.9310798645019531,0.523697018623352,0.5495661497116089,-0.12945356965065002,0.7550062537193298,0.4285129904747009,0.5336662530899048,-0.11088001728057861,0.831195592880249,178.5253571141564,0.48521457612514496,0.5425614714622498,78.9633213655838,125.58189890225476,0.6334186259341554,-0.006046230638196728,0.014674152947634704,0.1568277714782079,-0.019759574488313142,-169.99960839610017,1.3087602037939454,10,1762115408.0212834
0.4886912703514099,0.3199273943901062,-0.292720764875412,0.9999851584434509,0.5217081308364868,0.394027441740036,-0.14268997311592102,0.9999502301216125,0.4556749761104584,0.382445365190506,-0.11732050031423569,0.9999727010726929,0.5034212470054626,0.544825553894043,-0.00855207908898592,0.9995083808898926,0.4661466181278229,0.5439703464508057,0.008479015901684761,0.9998371601104736,0.5005279183387756,0.6763793230056763,-0.04672544449567795,0.9069274067878723,0.4728941023349762,0.6723076701164246,0.024402007460594177,0.9509028792381287,0.5055261850357056,0.6390170454978943,0.23580209910869598,0.4356914758682251,0.47542715072631836,0.7629888653755188,0.19198313355445862,0.9096299409866333,0.5236314535140991,0.5480518937110901,-0.13640539348125458,0.7587824463844299,0.42599964141845703,0.5369186997413635,-0.12103487551212311,0.8212504386901855,178.56659031150653,0.48478393256664276,0.5443979501724243,66.27239252159235,125.47923307416197,0.6339391839043381,-0.005172270616062173,0.022057139093632057,0.0104967499289242,0.08867380353848106,-170.05163554086337,1.0374239922376907,11,1762115408.1045434
0.4866394102573395,0.3197884261608124,-0.28250688314437866,0.9999803900718689,0.5197960734367371,0.39381375908851624,-0.12748415768146515,0.9999391436576843,0.4543021321296692,0.3837600648403168,-0.11289824545383453,0.999936580657959,0.5021368265151978,0.5474109649658203,-0.0068425387144088745,0.9995120763778687,0.4652528762817383,0.5445600748062134,0.006850639823824167,0.9998199939727783,0.5006272196769714,0.6846855878829956,-0.05195046216249466,0.9070432186126709,0.4709852337837219,0.6726739406585693,0.006750529166311026,0.9442773461341858,0.5004973411560059,0.683541476726532,0.24315878748893738,0.41803523898124695,0.4751907289028168,0.7601669430732727,0.1762491762638092,0.8947009444236755,0.5210955739021301,0.547864556312561,-0.12359553575515747,0.7571016550064087,0.42822593450546265,0.5399103164672852,-0.12418220937252045,0.7825971841812134,178.77762728728368,0.483694851398468,0.5459855198860168,71.58931004074616,117.28305352128613,0.6355547822328513,-0.012460072939340873,0.018163232462098274,-0.08337904572139339,-0.04454981140589262,-171.2728934561772,1.6452019477623128,12,1762115408.1919491
0.4842492640018463,0.31901583075523376,-0.2843480408191681,0.9999797344207764,0.5173386335372925,0.39412304759025574,-0.1313946694135666,0.9999370574951172,0.4506097733974457,0.38413217663764954,-0.10922018438577652,0.9999385476112366,0.4992741048336029,0.5537734627723694,-0.008302602916955948,0.9995356202125549,0.4609786570072174,0.5513048768043518,0.008249637670814991,0.9998264312744141,0.500499963760376,0.6970399022102356,-0.05988215655088425,0.9102317094802856,0.46718353033065796,0.6753500699996948,0.015846556052565575,0.9396910667419434,0.5005038380622864,0.6700084805488586,0.2445993721485138,0.3913080394268036,0.47292011976242065,0.7646371722221375,0.20378069579601288,0.8816486597061157,0.5200739502906799,0.5503638982772827,-0.12936550378799438,0.747972309589386,0.41920503973960876,0.5448359251022339,-0.12531039118766785,0.7820652723312378,178.65111584932356,0.48012638092041016,0.5525391697883606,65.12794033639491,118.95424620998322,0.6459609130940612,-0.04221501743064409,0.07752969978677077,-0.35200109068349295,0.7023055026843844,-171.48473502443952,1.3401295072690729,13,1762115408.27648
0.4842303693294525,0.3188924193382263,-0.29709142446517944,0.9999781847000122,0.5173063278198242,0.3941294252872467,-0.12535306811332703,0.9999130964279175,0.4510878622531891,0.38443663716316223,-0.11364580690860748,0.9998822212219238,0.4991781711578369,0.5545076727867126,-0.005407008342444897,0.9995139241218567,0.4611029624938965,0.5509877800941467,0.00534447655081749,0.9997902512550354,0.5001122951507568,0.6958838105201721,-0.04341557249426842,0.9153231978416443,0.46694573760032654,0.6759716868400574,-0.017290931195020676,0.9412007331848145,0.4970102906227112,0.7279657125473022,0.24235686659812927,0.4199596345424652,0.4722305238246918,0.7637330889701843,0.19412477314472198,0.8799638748168945,0.519504964351654,0.5395361185073853,-0.03965790197253227,0.7124984264373779,0.4209109842777252,0.5425695180892944,-0.05134005472064018,0.7265552282333374,178.57844378913666,0.4801405668258667,0.5527477264404297,81.3543357368533,102.32387079410401,0.6692232349270915,0.00017532744979594243,0.002577608179983204,0.5239137597967061,-0.9263532115413066,-171.67241744329056,3.7134403107399367,14,1762115408.3573909
0.4844650626182556,0.3188328146934509,-0.3061324954032898,0.9999772906303406,0.5173303484916687,0.39428338408470154,-0.126736119389534,0.9998986721038818,0.4507676959037781,0.38485801219940186,-0.1144385114312172,0.9998352527618408,0.4988359808921814,0.5545763969421387,-0.004008609801530838,0.9994930624961853,0.46086937189102173,0.5508295893669128,0.003938985988497734,0.9997510313987732,0.4997788965702057,0.697515070438385,-0.044490110129117966,0.9208242893218994,0.4672078490257263,0.6796254515647888,-0.02072542905807495,0.9431268572807312,0.4962562918663025,0.7426175475120544,0.23025700449943542,0.4505680799484253,0.4719877243041992,0.7662827968597412,0.19674035906791687,0.8778576254844666,0.5186923742294312,0.5375955700874329,-0.03332272544503212,0.6843846440315247,0.4227088391780853,0.5422394871711731,-0.032231684774160385,0.6781121492385864,178.5264726801908,0.47985267639160156,0.5527029931545258,83.5061118735408,100.92775973820243,0.678070173462767,-0.0035242817907729486,-0.0005476135577588195,-0.045289679432364616,-0.03825817308090326,-171.94041381493795,6.664724628471104,15,1762115408.4390786
0.4859246611595154,0.32010647654533386,-0.3344641327857971,0.9999696016311646,0.5186391472816467,0.39962589740753174,-0.16123101115226746,0.9998559355735779,0.45123690366744995,0.3914409279823303,-0.1630944460630417,0.9998251795768738,0.5004585981369019,0.5615257024765015,-0.0027460469864308834,0.9994714856147766,0.46193522214889526,0.5589529871940613,0.002660617232322693,0.9996781349182129,0.4998738169670105,0.696962296962738,-0.01633942313492298,0.9255614280700684,0.4690658450126648,0.6874783635139465,-0.002384877996519208,0.9439373016357422,0.49513301253318787,0.7746790647506714,0.22373254597187042,0.49816519021987915,0.47214388847351074,0.7703619003295898,0.23499560356140137,0.8773956298828125,0.5213914513587952,0.540943443775177,-0.1300601214170456,0.6448063254356384,0.42473918199539185,0.5664656162261963,-0.1646246761083603,0.6715618371963501,178.6988126949765,0.48119691014289856,0.5602393448352814,102.20860117892344,107.01090452086027,0.7229010355582662,0.01691429042854786,0.09482877585612072,0.25717546976400957,1.200106714339006,-173.07620656055502,4.494477456376766,16,1762115408.5185518
0.49379095435142517,0.32476478815078735,-0.33698898553848267,0.9999672770500183,0.5257418155670166,0.40569689869880676,-0.1655198484659195,0.9998432397842407,0.45715340971946716,0.3984622657299042,-0.1724591851234436,0.9998082518577576,0.5079748034477234,0.5733579993247986,-7.725645264144987e-05,0.9995021224021912,0.46918660402297974,0.5712184309959412,-1.0175141142099164e-05,0.9996601939201355,0.5057872533798218,0.7109546661376953,-0.01774376630783081,0.9316902756690979,0.47892433404922485,0.7000914216041565,0.0194749366492033,0.9468579888343811,0.5017586946487427,0.8091720342636108,0.18656522035598755,0.545391321182251,0.47952550649642944,0.7728736996650696,0.29075825214385986,0.8747787475585938,0.5311968326568604,0.559295117855072,-0.1801975816488266,0.6082775592803955,0.4347025454044342,0.5791997909545898,-0.18513931334018707,0.643363356590271,179.03502985369582,0.48858070373535156,0.5722882151603699,108.36953766865136,113.5555631118898,0.7407970469936682,0.08594697463763089,0.14024822596624825,0.8035368655144872,0.5286800447212148,-173.97876588744435,1.6719661598758677,17,1762115408.6044629
0.5006998777389526,0.32949018478393555,-0.3351548910140991,0.9999670386314392,0.5308976769447327,0.4086802899837494,-0.16003921627998352,0.9998502135276794,0.46229204535484314,0.4006858468055725,-0.1732105314731598,0.9998053312301636,0.5139407515525818,0.5832559466362,0.002309111412614584,0.9995404481887817,0.4741315245628357,0.5799488425254822,-0.0024035582318902016,0.999646782875061,0.509283721446991,0.7279462218284607,-0.017605140805244446,0.9372822046279907,0.4858432710170746,0.7163463830947876,0.015001630410552025,0.9492976069450378,0.5100669860839844,0.8483365178108215,0.1400720775127411,0.5887449383735657,0.4907910227775574,0.7707812190055847,0.29425787925720215,0.8500288724899292,0.5406057238578796,0.581167995929718,-0.18118426203727722,0.5974839925765991,0.43910884857177734,0.586792528629303,-0.19118429720401764,0.6314945220947266,179.1714087040745,0.49403613805770874,0.5816023945808411,119.49986304742845,108.31957781022253,0.7317945425473551,0.05120792677468445,0.0874283859994629,-0.3260812089511854,-0.4957981963388409,-173.35344130449263,0.8926271668106759,18,1762115408.7109978
0.5044704675674438,0.3322206437587738,-0.359495609998703,0.9999682307243347,0.5369313955307007,0.4126940071582794,-0.1753818690776825,0.9998624920845032,0.4656068682670593,0.40382474660873413,-0.18019501864910126,0.9998090267181396,0.5189136266708374,0.5935166478157043,0.0018724895780906081,0.9995788335800171,0.4777680039405823,0.5900054574012756,-0.0019602342508733273,0.9996367692947388,0.5133436918258667,0.7429615259170532,-0.01758045330643654,0.9421972036361694,0.49126434326171875,0.7270278334617615,0.01437397114932537,0.9511972069740295,0.5150803923606873,0.8750535845756531,0.1407453417778015,0.6280621290206909,0.4962913393974304,0.7778509259223938,0.30822452902793884,0.8192455768585205,0.5513875484466553,0.6088884472846985,-0.19841040670871735,0.6105928421020508,0.4439041018486023,0.5953788757324219,-0.1962817907333374,0.6260507106781006,179.08575253476573,0.49834081530570984,0.59176105260849,122.37365506868974,106.62470004159796,0.7650487830176739,0.0474710127780407,0.11202739653993796,-0.04120984730446143,0.2712723571172022,-172.9116119071999,0.8656363818154468,19,1762115408.801678
0.5054404139518738,0.33283182978630066,-0.35178142786026,0.9999673962593079,0.5390840768814087,0.4136725068092346,-0.17199477553367615,0.9998713731765747,0.46657872200012207,0.4037308096885681,-0.17105641961097717,0.9997802376747131,0.5201334357261658,0.5956304669380188,0.0016036729793995619,0.9996086955070496,0.47918686270713806,0.5916215777397156,-0.0016557024791836739,0.999585747718811,0.5147135853767395,0.7445768713951111,-0.01954013481736183,0.9465448260307312,0.49240344762802124,0.7276896238327026,0.028701623901724815,0.9523099660873413,0.5158196687698364,0.8705888390541077,0.11839482933282852,0.6632028818130493,0.4965372681617737,0.7648413777351379,0.33035486936569214,0.782498836517334,0.5530847311019897,0.6087116003036499,-0.18521496653556824,0.615748941898346,0.4475826323032379,0.5917595624923706,-0.172892227768898,0.6028181910514832,179.0175364615267,0.4996601492166519,0.5936260223388672,124.29188389334107,109.58281005837429,0.7530394374575311,0.014988116358120827,0.021186739074497907,-0.3690175983143663,-1.0319831339497707,-172.19247692165547,1.2099612157598383,20,1762115408.8897033
0.5065230131149292,0.33583498001098633,-0.35060733556747437,0.999968409538269,0.5413783192634583,0.417002409696579,-0.17542250454425812,0.9998796582221985,0.4669835567474365,0.405887633562088,-0.1658908724784851,0.9997925758361816,0.5221258997917175,0.5989199280738831,-0.002801732625812292,0.9996323585510254,0.48001909255981445,0.5948489904403687,0.002805582946166396,0.999552309513092,0.5155689120292664,0.7517728805541992,-0.026139121502637863,0.951198399066925,0.49430394172668457,0.7379965782165527,0.019839856773614883,0.9521455764770508,0.5159081816673279,0.8896050453186035,0.08411076664924622,0.6946489810943604,0.49879270792007446,0.7673577070236206,0.29292619228363037,0.7391812801361084,0.5518292188644409,0.6051000356674194,-0.18187765777111053,0.6196846961975098,0.4475589394569397,0.5988762974739075,-0.14134979248046875,0.6109948754310608,179.03966533945126,0.501072496175766,0.5968844592571259,132.60763893976392,102.95137914599582,0.7303134948285723,0.01736246464528042,0.040057080469539985,0.029188676284791625,0.2319795664949824,-171.5027087160393,1.2871299253891109,21,1762115408.971048
0.5067939758300781,0.33546584844589233,-0.3397720158100128,0.9999679923057556,0.5423334240913391,0.41586896777153015,-0.17316283285617828,0.9998849034309387,0.46707695722579956,0.4053751230239868,-0.1627463400363922,0.9998053908348083,0.5218905210494995,0.5998778343200684,-0.003966811578720808,0.9996543526649475,0.4798664450645447,0.5954115390777588,0.0039576212875545025,0.9995325207710266,0.5150673389434814,0.7536484599113464,-0.027682408690452576,0.9554690718650818,0.4921955168247223,0.7350256443023682,0.05474385619163513,0.9497727751731873,0.5143701434135437,0.8939478397369385,0.06616802513599396,0.723034143447876,0.49457353353500366,0.7817772626876831,0.31940051913261414,0.7137578725814819,0.5549675226211548,0.6006009578704834,-0.1520266830921173,0.6390043497085571,0.4481586515903473,0.603986382484436,-0.15243783593177795,0.6369740962982178,178.82782317983757,0.5008784830570221,0.5976446866989136,137.40528415886297,119.94035542226632,0.7321366259800819,-0.0026361483564364134,0.01032957118653402,-0.2717306496426919,-0.4039217824274563,-172.0617988777119,4.547967004748344,22,1762115409.0446453
0.5078943371772766,0.33438193798065186,-0.30432552099227905,0.9999667406082153,0.5449388027191162,0.4156026542186737,-0.13816362619400024,0.9998933672904968,0.46924200654029846,0.404579758644104,-0.13715986907482147,0.9998077750205994,0.5239356160163879,0.6043705344200134,-0.001484552165493369,0.9996805191040039,0.48112916946411133,0.5983120203018188,0.0014565002638846636,0.9995219707489014,0.5161182284355164,0.7598419189453125,-0.011320936493575573,0.9587112069129944,0.49238818883895874,0.7373125553131104,0.0351930633187294,0.9489347338676453,0.5151561498641968,0.8917134404182434,0.12086210399866104,0.7487121820449829,0.4929311275482178,0.7790631055831909,0.31370654702186584,0.6777561902999878,0.5572605729103088,0.6067121028900146,-0.12981364130973816,0.6608579158782959,0.4503285884857178,0.6049523949623108,-0.11888141930103302,0.6420095562934875,178.63474343007098,0.5025323927402496,0.6013412773609161,131.26626809665,112.10456536385968,0.723255838260127,0.021035171826151295,0.047014912927063716,0.3010625625099941,0.46658077816390475,-171.71487723530265,21.646072006370186,23,1762115409.1232712
0.5115194320678711,0.33017247915267944,-0.30027005076408386,0.9999673366546631,0.5489119291305542,0.41448330879211426,-0.13439761102199554,0.9999023079872131,0.4711405634880066,0.4036887288093567,-0.1340356469154358,0.9998165369033813,0.5283031463623047,0.6075125932693481,-0.000829898111987859,0.999704897403717,0.4839932322502136,0.6020479202270508,0.0008007643627934158,0.999528706073761,0.5192056894302368,0.7631837725639343,-0.00612775981426239,0.9616122841835022,0.49295058846473694,0.745334267616272,0.007336846552789211,0.9504480361938477,0.5161451101303101,0.8905833959579468,0.13584111630916595,0.7709997892379761,0.49627870321273804,0.7820189595222473,0.2947620153427124,0.642819881439209,0.5627354383468628,0.6105307936668396,-0.12940798699855804,0.6843270063400269,0.45244407653808594,0.6075867414474487,-0.11701522767543793,0.6506944298744202,178.86472273324404,0.5061481893062592,0.6047802567481995,129.93539585169168,99.90654894394714,0.7225015717580658,0.0366812433032529,0.03488748255520054,0.15872501234908745,-0.12302938398011642,-172.0978957797125,28.775858839551447,24,1762115409.2218447
0.5124304890632629,0.32725098729133606,-0.28785985708236694,0.9999676942825317,0.5500993728637695,0.41385188698768616,-0.1301664113998413,0.9999094605445862,0.47198939323425293,0.40311187505722046,-0.12944002449512482,0.9998247027397156,0.5292645692825317,0.6067169904708862,-0.0006784030701965094,0.9997273087501526,0.48469018936157227,0.6011213064193726,0.0006410476053133607,0.9995349049568176,0.5200167298316956,0.7592843174934387,-0.002981737721711397,0.9639292359352112,0.4930270314216614,0.7444077134132385,0.012612700462341309,0.9514403343200684,0.5174164772033691,0.8940410017967224,0.12002811580896378,0.7916878461837769,0.49616798758506775,0.7586991786956787,0.2969534695148468,0.6143267154693604,0.56345534324646,0.6102024912834167,-0.1156344786286354,0.7046423554420471,0.45292338728904724,0.6082931756973267,-0.10659025609493256,0.6670105457305908,178.80786032180563,0.506977379322052,0.6039191484451294,136.6965276611794,97.67671557034261,0.70392871540682,0.010327029402507319,-0.01072455118269225,-0.32822481777320334,-0.5680686025494209,-172.17100287409002,14.987938954036995,25,1762115409.3021379
0.511142373085022,0.321927547454834,-0.2987992465496063,0.9999667406082153,0.5524447560310364,0.41358593106269836,-0.1351134330034256,0.9999147057533264,0.4715877175331116,0.40124520659446716,-0.13453814387321472,0.9998262524604797,0.5295721292495728,0.6071550846099854,-0.00023462196986656636,0.9997425079345703,0.4840196669101715,0.601044774055481,0.00019597067148424685,0.9995155334472656,0.5197407007217407,0.7611666917800903,0.0016802167519927025,0.964985191822052,0.49205413460731506,0.7509894371032715,0.016468729823827744,0.9493935108184814,0.5171273946762085,0.8941501975059509,0.12471069395542145,0.80793696641922,0.49516382813453674,0.7798395156860352,0.29536551237106323,0.5819206833839417,0.5640724897384644,0.6075701713562012,-0.12278523296117783,0.7189531922340393,0.4513247013092041,0.6103759407997131,-0.11867816746234894,0.6730248928070068,178.4796291454253,0.5067958980798721,0.6040999293327332,137.87948050181507,102.11579813702481,0.7240405714019024,-0.002351056633844405,0.0023419836671155535,-0.16424230913447505,0.16927459318110807,-171.32225559248866,20.948915829529817,26,1762115409.3793292
0.5122759342193604,0.31106117367744446,-0.31194961071014404,0.9999639987945557,0.5525693297386169,0.40831950306892395,-0.13569782674312592,0.9999186396598816,0.47086161375045776,0.3975692689418793,-0.14641769230365753,0.999825656414032,0.5294115543365479,0.6055441498756409,0.002318623475730419,0.9997574090957642,0.4833715558052063,0.6002815365791321,-0.0023738618474453688,0.9995139837265015,0.5197818279266357,0.7615506649017334,-5.258917735773139e-05,0.9664101600646973,0.4894980788230896,0.7589941024780273,-0.002274054102599621,0.9499585628509521,0.5165342092514038,0.8861697912216187,0.18068426847457886,0.8226521611213684,0.48649564385414124,0.7787071466445923,0.30012935400009155,0.5600115060806274,0.5626860857009888,0.6044219136238098,-0.12633545696735382,0.7255496978759766,0.450949490070343,0.6107803583145142,-0.1504456251859665,0.6748502254486084,178.4749299072928,0.5063915550708771,0.6029128432273865,123.70055659402324,93.7407341667696,0.7596365579411847,-0.005205967129982073,-0.015283883008766975,-0.0367573319466375,-0.22693525178077892,-172.5046807928696,1.7030937278076708,27,1762115409.4569983
0.5132681131362915,0.30730369687080383,-0.3315538167953491,0.9999644160270691,0.5536051988601685,0.4051765501499176,-0.1422448307275772,0.99992436170578,0.47048503160476685,0.3927922248840332,-0.15597499907016754,0.9998292326927185,0.5290845632553101,0.6067983508110046,0.002380350837484002,0.9997735023498535,0.48294559121131897,0.6015958189964294,-0.002439272589981556,0.9995232224464417,0.5194319486618042,0.764735758304596,-0.0009368605096824467,0.968177855014801,0.4848025441169739,0.7710797786712646,-0.011029710061848164,0.9515263438224792,0.5161917209625244,0.8795955181121826,0.20218607783317566,0.8352137207984924,0.48256197571754456,0.777889609336853,0.31106090545654297,0.5427228808403015,0.5650482773780823,0.6044533848762512,-0.1365172415971756,0.7417750954627991,0.4449443221092224,0.608201265335083,-0.1675565540790558,0.6828638911247253,178.3168861119225,0.5060150772333145,0.604197084903717,118.2774994310789,88.30541027803984,0.7861577483350864,-0.004128386698702446,0.01408275793552233,0.011816548745814563,0.3220291814384111,-171.52566847183166,2.199621467073297,28,1762115409.5481908
0.5147655606269836,0.30318066477775574,-0.3601084351539612,0.9999632835388184,0.5542064905166626,0.40462085604667664,-0.16485831141471863,0.9999243021011353,0.4698818624019623,0.39023205637931824,-0.17323526740074158,0.9998297691345215,0.5288767218589783,0.6103991270065308,0.002064099768176675,0.9997773766517639,0.48210129141807556,0.6038029789924622,-0.0021538815926760435,0.9995147585868835,0.5192216634750366,0.7660956382751465,-0.013822918757796288,0.9699982404708862,0.4810553193092346,0.7793842554092407,-0.01121742557734251,0.9537563323974609,0.5160250663757324,0.8757504820823669,0.2172657698392868,0.8466191291809082,0.4808414578437805,0.7953118085861206,0.3178390860557556,0.5467921495437622,0.5663074254989624,0.6154941916465759,-0.1518787443637848,0.7404248714447021,0.43763917684555054,0.6072325110435486,-0.1765059530735016,0.6873747706413269,178.20931445222163,0.5054890066385269,0.6071010529994965,109.56486263082624,89.81639480751956,0.8231779498947219,-0.007014827625672394,0.03872262738914251,-0.03848891337968691,0.3285574952274278,-170.31655343717614,3.841904419577804,29,1762115409.623185
0.515278697013855,0.30223098397254944,-0.35535794496536255,0.9999622702598572,0.5547080039978027,0.40440982580184937,-0.16245010495185852,0.999925434589386,0.46968895196914673,0.3891456723213196,-0.1675630509853363,0.9998278617858887,0.5289725065231323,0.6137024164199829,0.0018127241637557745,0.9997788667678833,0.48141199350357056,0.6066376566886902,-0.001912407809868455,0.99950110912323,0.5190361738204956,0.7673617601394653,-0.01438087411224842,0.9712870717048645,0.47911691665649414,0.7826074361801147,-0.020345885306596756,0.9555523991584778,0.5158758163452148,0.8749841451644897,0.22821955382823944,0.8558331727981567,0.48021984100341797,0.795058012008667,0.30997082591056824,0.54435133934021,0.5663068294525146,0.6179754137992859,-0.1498553454875946,0.7427664399147034,0.43671607971191406,0.6081262230873108,-0.16876867413520813,0.6848242878913879,178.11950493959736,0.5051922500133514,0.6101700365543365,107.91312735513013,86.17641054013819,0.8210383093056787,-0.003536003852228952,0.03656847649458529,0.041451928012888835,-0.025667787052547495,-169.82166635415675,6.804035415039703,30,1762115409.7071092
0.5155433416366577,0.2991639971733093,-0.3453509509563446,0.9999641180038452,0.5560470223426819,0.40303418040275574,-0.16356630623340607,0.99992835521698,0.4693223536014557,0.387834757566452,-0.16623373329639435,0.9998310804367065,0.5297468304634094,0.6154706478118896,-0.0003447405179031193,0.9997895956039429,0.48127371072769165,0.6068986058235168,0.00018944131443277001,0.999520480632782,0.518956184387207,0.7680129408836365,-0.00884157232940197,0.9732895493507385,0.47745639085769653,0.7854251265525818,0.006609635893255472,0.9582546353340149,0.5159904956817627,0.8729954957962036,0.24044914543628693,0.8672170042991638,0.4791516363620758,0.810924768447876,0.3192965090274811,0.5710611343383789,0.5749677419662476,0.6210087537765503,-0.14606235921382904,0.7588146328926086,0.4321014881134033,0.6070836186408997,-0.16227105259895325,0.7020432353019714,178.09542470549505,0.5055102705955505,0.6111846268177032,109.64344749080524,96.71332997621028,0.8281638845168363,0.003745167186565551,0.011948315218764653,0.08574666037556243,-0.28993915897062716,-170.05926410294632,11.276601376805033,31,1762115409.7920241
0.5148636698722839,0.2969987094402313,-0.2265055626630783,0.999967098236084,0.5565758943557739,0.40183818340301514,-0.129787877202034,0.9999319314956665,0.46734318137168884,0.38763630390167236,-0.11732423305511475,0.999839723110199,0.5310747027397156,0.6166394352912903,-0.005540177691727877,0.9997951984405518,0.4812110960483551,0.6089346408843994,0.005283787380903959,0.9995429515838623,0.5189167261123657,0.7700369358062744,-0.015630969777703285,0.9755157232284546,0.4769388735294342,0.7912219762802124,0.013859426602721214,0.9615138173103333,0.5153413414955139,0.8724955320358276,0.17014987766742706,0.8791819214820862,0.47822684049606323,0.8578022718429565,0.19359010457992554,0.6112807393074036,0.5800721049308777,0.6242539286613464,-0.11216900497674942,0.7801123261451721,0.42512306571006775,0.6079682111740112,-0.11355557292699814,0.7272719144821167,178.4719553665657,0.5061428993940353,0.6127870380878448,115.10908100697365,113.00265675573189,0.6999229281426801,0.010185314913479402,0.02579879930599272,0.10368628940865696,0.222992602408286,-170.95690626649593,5.081325785297445,32,1762115409.854136
0.5144088268280029,0.2956814765930176,-0.23324517905712128,0.9999695420265198,0.5566045045852661,0.4015631675720215,-0.13130417466163635,0.9999315738677979,0.46485036611557007,0.38791975378990173,-0.12377617508172989,0.9998466968536377,0.5307615399360657,0.6195039749145508,-0.0055748638696968555,0.9997711181640625,0.4798339307308197,0.6135836243629456,0.005333797074854374,0.9995469450950623,0.5185819864273071,0.7767617106437683,0.008260688744485378,0.9769753217697144,0.47700101137161255,0.7964505553245544,0.03258952125906944,0.9636878967285156,0.5147339105606079,0.8744286298751831,0.17504070699214935,0.889242947101593,0.4753875732421875,0.8950037360191345,0.16740365326404572,0.647430956363678,0.5802119970321655,0.6313016414642334,-0.10644104331731796,0.7988741993904114,0.4190617501735687,0.6112212538719177,-0.10746730864048004,0.7502248883247375,178.59768487944024,0.5052977353334427,0.6165437996387482,125.35900038987306,134.6460736310273,0.7147937313143571,-0.012246976151239078,0.05443791479673449,-0.32505846674859123,0.41499938386133706,-171.54235436786718,1.987621893465322,33,1762115409.923146
0.5141203999519348,0.2968757450580597,-0.2513727843761444,0.9999715089797974,0.5567981600761414,0.40117695927619934,-0.13549922406673431,0.9999300241470337,0.4636697769165039,0.3881892263889313,-0.13175082206726074,0.9998537302017212,0.5308919548988342,0.6224855780601501,-0.005198954604566097,0.9997405409812927,0.4791921079158783,0.6170862317085266,0.004979107994586229,0.9995450973510742,0.5184528231620789,0.7800467610359192,0.017258193343877792,0.9779602885246277,0.47711795568466187,0.7957460880279541,0.039213329553604126,0.9653530120849609,0.5147117972373962,0.8746573328971863,0.19836804270744324,0.8974930644035339,0.47481852769851685,0.8960824608802795,0.18693706393241882,0.6792435050010681,0.5800564885139465,0.635091245174408,-0.1098504438996315,0.8146100640296936,0.4176546633243561,0.6126207709312439,-0.1171000599861145,0.7697669267654419,178.6787221973506,0.5050420314073563,0.6197859048843384,125.66132897397847,135.0339866875758,0.7374676213048804,-0.003147108621463721,0.03990262303067294,0.11199777803745689,-0.17889495375601622,-172.06070749977087,1.7184862857332837,34,1762115410.0043964
0.5130006074905396,0.2979508638381958,-0.22569718956947327,0.9999739527702332,0.5565732717514038,0.4019756615161896,-0.1250384896993637,0.9999285340309143,0.4622837007045746,0.3884301781654358,-0.11786643415689468,0.9998648166656494,0.5303348302841187,0.6288794279098511,-0.0038021374493837357,0.9996446967124939,0.4764150083065033,0.6241017580032349,0.003607355058193207,0.9995524883270264,0.5177491903305054,0.7919492125511169,0.009638463146984577,0.9757285714149475,0.4770587384700775,0.8142142295837402,-0.0016151189338415861,0.9661418199539185,0.5144601464271545,0.8740065693855286,0.19553568959236145,0.890782356262207,0.4714077413082123,0.9423620700836182,0.07429394870996475,0.7054445147514343,0.5809885859489441,0.6487858891487122,-0.10382644832134247,0.8307240009307861,0.4139862060546875,0.6152632236480713,-0.10498049110174179,0.789179265499115,178.5007213607711,0.503374919295311,0.626490592956543,118.51327710881506,147.70304347627317,0.7091040561988919,-0.020030637325113725,0.08055797458491366,-0.2028584867133241,0.4884810064206841,-171.8249155335958,1.353956415214014,35,1762115410.0876245
0.5101739764213562,0.299676775932312,-0.21336984634399414,0.9999757409095764,0.5564351677894592,0.40792232751846313,-0.11030205339193344,0.9999248385429382,0.4596230387687683,0.39440545439720154,-0.09738288074731827,0.9998745918273926,0.5295825600624084,0.6433670520782471,-0.002885454799979925,0.9993954300880432,0.4743366837501526,0.6403403878211975,0.002717162948101759,0.9995281100273132,0.5157938599586487,0.8131689429283142,0.007859429344534874,0.9615331292152405,0.476419061422348,0.8405008316040039,-0.02144036814570427,0.9620862007141113,0.5114161372184753,0.8797041177749634,0.18161948025226593,0.844565749168396,0.4710782468318939,1.005020260810852,0.038028277456760406,0.7201265096664429,0.5820883512496948,0.66372150182724,-0.1028909832239151,0.8450955152511597,0.41141408681869507,0.6218402981758118,-0.09123732894659042,0.8064563870429993,178.55547704841706,0.5019596219062805,0.6418537199497223,114.59937669800338,153.14273120786075,0.7196227815472125,-0.016116229475261718,0.17494251172842187,0.044574020737222726,1.0747726034901965,-172.05176567085795,1.2487954454348007,36,1762115410.1754427
0.5071853399276733,0.3061820864677429,-0.15426211059093475,0.9999780058860779,0.556106686592102,0.4176684021949768,-0.07292822003364563,0.9999281167984009,0.455106258392334,0.40495529770851135,-0.06256484240293503,0.9998847842216492,0.5286141633987427,0.6549698114395142,-0.0005087058525532484,0.9993234872817993,0.4724210798740387,0.6543305516242981,0.0003642435767687857,0.9995425939559937,0.5141760110855103,0.8071442246437073,0.03157694265246391,0.9520025253295898,0.47466960549354553,0.85633784532547,-0.02122771367430687,0.9612228870391846,0.5106900930404663,0.8793419003486633,0.17270790040493011,0.8172620534896851,0.46991127729415894,1.0091582536697388,0.009205426089465618,0.7374481558799744,0.5807482600212097,0.678978443145752,-0.07318688184022903,0.8596515655517578,0.40754562616348267,0.6349888443946838,-0.05917417258024216,0.8233188390731812,178.80196769280505,0.5005176216363907,0.6546501815319061,128.9371613705288,162.46981574613693,0.6837748892454798,-0.017732720076229568,0.15736201715165285,-0.019878481253688653,-0.21619273979424064,-172.82580762452162,1.234222385552531,37,1762115410.2567613
0.5038415193557739,0.3111703395843506,-0.152150496840477,0.999980092048645,0.5552151799201965,0.426663875579834,-0.07372008264064789,0.9999322295188904,0.44909578561782837,0.41394585371017456,-0.06275541335344315,0.9998932480812073,0.5256928205490112,0.6679132580757141,0.001305298530496657,0.9992755055427551,0.46754246950149536,0.6669434309005737,-0.0014082205016165972,0.9995430111885071,0.5133196115493774,0.8199795484542847,0.020447473973035812,0.9404526352882385,0.4707995355129242,0.8692643642425537,-0.015059162862598896,0.957942545413971,0.5062433481216431,0.9045709371566772,0.15255501866340637,0.7835983037948608,0.4686647355556488,1.0074899196624756,0.027919530868530273,0.7483945488929749,0.5800642371177673,0.6968767642974854,-0.07889018952846527,0.8730262517929077,0.40405672788619995,0.6541983485221863,-0.06885101646184921,0.8379602432250977,178.71626267817524,0.4966176450252533,0.6674283444881439,129.87233174941505,158.79010341862744,0.6891044299693558,-0.04460380576604778,0.14614310683794476,-0.3073230448122947,-0.12831002501663902,-173.16590537815432,1.2021707682527325,38,1762115410.3441973
0.5018619298934937,0.3147678077220917,-0.16731111705303192,0.9999818205833435,0.5543686151504517,0.4296088218688965,-0.08467934280633926,0.9999338388442993,0.4481735825538635,0.41550663113594055,-0.06805644184350967,0.9999004602432251,0.5236700773239136,0.6698679327964783,0.0012216137256473303,0.999139130115509,0.46470022201538086,0.6684597134590149,-0.0013237233506515622,0.9995203614234924,0.5103787183761597,0.8242819309234619,0.023435229435563087,0.9260584115982056,0.46920838952064514,0.8701880574226379,-0.011329934932291508,0.9544022083282471,0.5024657845497131,0.9100839495658875,0.15768352150917053,0.7470573782920837,0.4680141806602478,1.0105258226394653,0.031190570443868637,0.754513144493103,0.5800986886024475,0.6998993754386902,-0.08040551096200943,0.8847882151603699,0.4043858051300049,0.653904139995575,-0.06042776256799698,0.8509693741798401,178.35412299927563,0.4941851496696472,0.6691638231277466,130.84780806578766,160.22290351086252,0.6967829716239827,-0.029848557544622352,0.021295635332769673,0.18105805407084444,-1.5319728890476427,-172.4356528952016,1.5557883823127399,39,1762115410.4256918
0.4991680681705475,0.31666314601898193,-0.1927681863307953,0.9999833703041077,0.5519880056381226,0.43158870935440063,-0.09522426873445511,0.9999370574951172,0.44274845719337463,0.4195419251918793,-0.08108630031347275,0.9999068975448608,0.5208394527435303,0.680269718170166,0.000999506562948227,0.9989672899246216,0.45968031883239746,0.679028332233429,-0.0010577597422525287,0.9994209408760071,0.5061033368110657,0.8592138290405273,0.011187834665179253,0.8984906077384949,0.46499019861221313,0.8815382122993469,-0.009337353520095348,0.938186526298523,0.4996078908443451,0.9932527542114258,0.13028445839881897,0.7009766101837158,0.4671753942966461,1.038583755493164,0.06500014662742615,0.7305421829223633,0.579479455947876,0.7154858708381653,-0.08841700106859207,0.8953882455825806,0.40286383032798767,0.6638619303703308,-0.07482198625802994,0.8629814982414246,178.39748876065232,0.49025988578796387,0.6796490252017975,141.61775347091145,152.31965898027048,0.7573274423027108,-0.04822154010175181,0.12880983483637407,-0.22571056160113617,1.3208029929053915,-173.7069303803841,3.2968149631675994,40,1762115410.5070925
0.49591049551963806,0.31719937920570374,-0.2164321392774582,0.9999847412109375,0.5494085550308228,0.4339834451675415,-0.09951597452163696,0.9999400973320007,0.4355649948120117,0.4235613942146301,-0.0914522334933281,0.9999138712882996,0.5169558525085449,0.6911144852638245,0.00270214700140059,0.9988139867782593,0.4540615975856781,0.6899948120117188,-0.0027045540045946836,0.9993211627006531,0.5033127069473267,0.8783788681030273,0.006313742604106665,0.8668025135993958,0.4629506468772888,0.9004827737808228,-0.01333196647465229,0.9211756587028503,0.4979066252708435,1.0274150371551514,0.141638845205307,0.6560801863670349,0.4649542272090912,1.0594552755355835,0.08001675456762314,0.7029972076416016,0.5780765414237976,0.7270008325576782,-0.09012074768543243,0.9046577215194702,0.4003170132637024,0.6789582371711731,-0.09847618639469147,0.8741259574890137,178.47308904499323,0.4855087250471115,0.6905546486377716,138.83658930976313,146.65111685952402,0.7966976491653343,-0.053643075568859375,0.123130159977819,-0.06121195485150605,-0.0641264828243554,-174.76931600965528,4.09930804416234,41,1762115410.5956624
0.4931882917881012,0.3167445659637451,-0.2548116445541382,0.9999850988388062,0.5481653809547424,0.4329274594783783,-0.11147978156805038,0.9999405145645142,0.43231478333473206,0.42375457286834717,-0.10195139795541763,0.9999181628227234,0.5151513814926147,0.7025801539421082,0.0034422781318426132,0.998627781867981,0.4507300853729248,0.7001124620437622,-0.003424800466746092,0.9991662502288818,0.5035778284072876,0.8988432884216309,-0.008618754334747791,0.8346570134162903,0.4622485637664795,0.9161005616188049,-0.017634112387895584,0.9006699323654175,0.4995323717594147,1.056788682937622,0.15051627159118652,0.6104265451431274,0.4623432159423828,1.076154112815857,0.08744382858276367,0.6681695580482483,0.5759211182594299,0.7414910197257996,-0.09051798284053802,0.9122654795646667,0.39755794405937195,0.6879556775093079,-0.07743014395236969,0.8821752667427063,178.46844632035885,0.4829407334327698,0.7013463079929352,131.25307015177302,142.84404345087046,0.8378309066707196,-0.027929090399919098,0.1173684633595486,0.2796614335945186,-0.06266334547584997,-175.47284599680518,3.693250583847041,42,1762115410.6876092
0.49083375930786133,0.31668826937675476,-0.2961227297782898,0.999984860420227,0.5475407838821411,0.43313539028167725,-0.1324382722377777,0.9999376535415649,0.4303792417049408,0.42386147379875183,-0.12446093559265137,0.9999212622642517,0.5149847269058228,0.7119253277778625,0.005082658492028713,0.9985162019729614,0.4484342932701111,0.7092180252075195,-0.005071656312793493,0.9990428686141968,0.5039631724357605,0.9233003258705139,-0.022119659930467606,0.8058374524116516,0.45976322889328003,0.9274876117706299,-0.020670099183917046,0.8815793991088867,0.5001198053359985,1.0784895420074463,0.18638500571250916,0.5655304789543152,0.4582613408565521,1.090935468673706,0.1282646805047989,0.6317967772483826,0.572329044342041,0.7514748573303223,-0.08021979033946991,0.9175882339477539,0.3937508463859558,0.7004609704017639,-0.08150774985551834,0.8887737393379211,178.5275748159527,0.4817095100879669,0.710571676492691,119.33008344459667,133.46940177379145,0.8919705668742829,-0.013716135458167331,0.10277290836653387,0.15833586657107357,-0.16259812666513063,-175.47419162749642,2.711859644061618,43,1762115410.7773738
0.489849328994751,0.31588014960289,-0.3339311182498932,0.9999842643737793,0.547156035900116,0.43253058195114136,-0.15144187211990356,0.9999333024024963,0.42993831634521484,0.42340582609176636,-0.1513720601797104,0.9999249577522278,0.5155091285705566,0.711014449596405,0.009054591879248619,0.9982991218566895,0.4484044909477234,0.7099454402923584,-0.009045719169080257,0.9989145994186401,0.5046021938323975,0.9245846271514893,-0.015427334234118462,0.780280590057373,0.4597863554954529,0.9312312006950378,-0.019556067883968353,0.8646175265312195,0.5006314516067505,1.0630390644073486,0.2419089823961258,0.5245077610015869,0.4568633437156677,1.0870375633239746,0.16108639538288116,0.6011549234390259,0.5692998766899109,0.7494372129440308,-0.09014438092708588,0.9226897954940796,0.39208194613456726,0.7061766982078552,-0.116633340716362,0.8959068655967712,178.66366012087,0.48195680975914,0.7104799449443817,111.75281870454127,127.94989685399148,0.9290470272063052,0.002176467502491738,-0.0008073230866075644,0.1398697123607075,-0.9116025370714723,-175.54881472559103,1.9114273387170801,44,1762115410.8909981
0.4873982071876526,0.3098376989364624,-0.3635728061199188,0.9999830722808838,0.546636700630188,0.432651549577713,-0.15879230201244354,0.999931275844574,0.4257441461086273,0.4249681830406189,-0.15807372331619263,0.9999237656593323,0.5141992568969727,0.7203613519668579,0.009778635576367378,0.9983415603637695,0.44511422514915466,0.7197648882865906,-0.009787281975150108,0.9988932013511658,0.5048645734786987,0.9482187628746033,-0.03151305764913559,0.7535545825958252,0.45826855301856995,0.9465638995170593,-0.01966341957449913,0.8394888639450073,0.5007709860801697,1.0923497676849365,0.2753787040710449,0.47912371158599854,0.4555221199989319,1.1094151735305786,0.20895659923553467,0.5573965907096863,0.5675718188285828,0.7511684894561768,-0.0906543880701065,0.9282593131065369,0.3860512375831604,0.7176461219787598,-0.12892475724220276,0.9027069807052612,178.71489969330165,0.47965674102306366,0.7200631201267242,104.90064177484994,122.86654068481499,0.996372885056726,-0.02650945275682508,0.11045092947528956,-0.3306197053909115,1.2823074997001371,-176.36343876480552,1.9098692921159917,45,1762115410.9777622
0.48547402024269104,0.30652403831481934,-0.31707102060317993,0.999979555606842,0.546484112739563,0.4350112974643707,-0.14903457462787628,0.999928891658783,0.4228946566581726,0.4283168315887451,-0.1424231380224228,0.9999173879623413,0.513879120349884,0.7354557514190674,0.009247438982129097,0.9984486103057861,0.44336795806884766,0.7348191142082214,-0.009265229105949402,0.9989284873008728,0.505018949508667,0.9721040725708008,-0.05207017809152603,0.7250611782073975,0.45740780234336853,0.9604806900024414,-0.018773090094327927,0.8063557744026184,0.5029394030570984,1.1326582431793213,0.24474284052848816,0.4342806339263916,0.4540223479270935,1.1318873167037964,0.2076110541820526,0.5075506567955017,0.5666976571083069,0.7547059059143066,-0.08464495092630386,0.9344062209129333,0.3797857463359833,0.7355239987373352,-0.11984504759311676,0.91060870885849,178.85492069889773,0.47862353920936584,0.7351374328136444,103.88722531315292,124.58716629235424,0.9884473901339575,-0.011251827243387521,0.1641630511264647,0.1661593738468912,0.5849384947669061,-176.89949144515717,2.2190761026509693,46,1762115411.0695875
0.48419874906539917,0.3056601881980896,-0.3018995225429535,0.9999761581420898,0.5463341474533081,0.43785178661346436,-0.12732143700122833,0.9999250173568726,0.42075008153915405,0.4330243468284607,-0.13630500435829163,0.9999117851257324,0.5143663287162781,0.7481861710548401,0.010994084179401398,0.9985646605491638,0.443442165851593,0.7494255900382996,-0.011009669862687588,0.9989844560623169,0.5068538188934326,0.9890492558479309,-0.03914717212319374,0.7219374775886536,0.45632949471473694,0.9808470606803894,-0.017912346869707108,0.7955306768417358,0.5036488771438599,1.175218105316162,0.22860188782215118,0.3960493803024292,0.4527556300163269,1.1671448945999146,0.2217458188533783,0.4617733955383301,0.5668047666549683,0.7620534300804138,-0.054103732109069824,0.9401799440383911,0.3728151321411133,0.7532921433448792,-0.12037886679172516,0.9183284640312195,179.1520800605964,0.47890424728393555,0.7488058805465698,113.0576494787524,126.03664130639947,1.0133950081932832,0.002839429208107039,0.13825961288019833,0.14253642403637132,-0.2620194636709048,-177.79863941340366,1.3679397127388127,47,1762115411.1684482
0.4819429814815521,0.305536687374115,-0.36999642848968506,0.999966025352478,0.5461998581886292,0.4452987611293793,-0.15456707775592804,0.9999021887779236,0.4161342978477478,0.43968573212623596,-0.1920778453350067,0.9998928308486938,0.5145860910415649,0.7621026039123535,0.016464680433273315,0.9986511468887329,0.4409604072570801,0.7628617286682129,-0.016363628208637238,0.9990234971046448,0.5077184438705444,1.007840633392334,-0.01495620422065258,0.7168027758598328,0.45516395568847656,1.0006465911865234,-0.009858252480626106,0.7827379703521729,0.5064768195152283,1.2135564088821411,0.2611357569694519,0.35825565457344055,0.4471539556980133,1.2077858448028564,0.25554367899894714,0.41707780957221985,0.5667877197265625,0.7798678278923035,-0.07504478842020035,0.9449155330657959,0.3639332354068756,0.7999880313873291,-0.1870705783367157,0.9248579740524292,179.39234092098988,0.4777732491493225,0.7624821662902832,119.39684155945056,129.33516481475274,1.1018624953669776,-0.011697279943187281,0.14144615984001696,-0.15034503700004778,0.03295666960040021,-177.5289120006281,0.733513430424457,48,1762115411.2651372
0.4818221628665924,0.3055458962917328,-0.4076763689517975,0.9999581575393677,0.5461360216140747,0.44826287031173706,-0.17830297350883484,0.9998693466186523,0.4148290753364563,0.44076278805732727,-0.21297915279865265,0.9998779892921448,0.5147649049758911,0.760981559753418,0.01632153056561947,0.998694121837616,0.4405338168144226,0.765211820602417,-0.01619991846382618,0.9990274310112,0.5080740451812744,1.0012519359588623,0.004990106914192438,0.7120466232299805,0.4541355073451996,0.9935668110847473,0.012491223402321339,0.7705574631690979,0.5114582777023315,1.2129549980163574,0.2915605902671814,0.32386764883995056,0.44733530282974243,1.2100799083709717,0.29531678557395935,0.37671294808387756,0.5669409036636353,0.7806662917137146,-0.0946720689535141,0.9489806890487671,0.3602873682975769,0.7944741249084473,-0.2090274542570114,0.9308640956878662,179.49047823315294,0.47764936089515686,0.7630966901779175,123.7197173235523,134.3969884547121,1.1455796206814721,-0.0013583795384973323,0.006737980775514792,0.11336143894250346,-1.477015196814282,-176.7308915970524,1.6578179018145922,49,1762115411.3563402
0.481987863779068,0.3063262403011322,-0.4043460786342621,0.9999492168426514,0.5458710193634033,0.45471593737602234,-0.19091758131980896,0.9998263120651245,0.41112422943115234,0.44537562131881714,-0.23182547092437744,0.9998590350151062,0.5148688554763794,0.7710187435150146,0.01605244353413582,0.9985436797142029,0.4384908676147461,0.7755937576293945,-0.015939030796289444,0.9988689422607422,0.5092785358428955,1.0070871114730835,0.0005609970539808273,0.7108461260795593,0.4524185061454773,1.0025416612625122,0.012841354124248028,0.761215090751648,0.5118769407272339,1.2246272563934326,0.26172930002212524,0.2960842549800873,0.4436984658241272,1.2241977453231812,0.26854729652404785,0.3433505594730377,0.5670037865638733,0.7957373857498169,-0.09944743663072586,0.9508088827133179,0.3563634157180786,0.8193529844284058,-0.2167537659406662,0.9344199299812317,179.67781695849158,0.47667986154556274,0.7733062505722046,126.01192600841543,137.87351256045918,1.1362699301200976,-0.008945935540644594,0.09420745792542075,-0.07001323614570513,0.807113800215068,-176.03474029119934,0.5936874820236329,50,1762115411.4647133
0.4816562533378601,0.31416064500808716,-0.3948172926902771,0.9999271631240845,0.5457602739334106,0.4611239433288574,-0.17679831385612488,0.9998048543930054,0.4079962372779846,0.4528614580631256,-0.2133311778306961,0.9997909665107727,0.5149986147880554,0.7821627855300903,0.015868699178099632,0.9984720945358276,0.4365127980709076,0.7863118648529053,-0.01572449505329132,0.9987143278121948,0.5090842247009277,1.0195835828781128,-0.0008229169761762023,0.7041195034980774,0.45063987374305725,1.0149562358856201,0.008198968134820461,0.7452494502067566,0.5119000673294067,1.240884780883789,0.26713094115257263,0.2689780592918396,0.44309306144714355,1.2438161373138428,0.2682865262031555,0.3113511800765991,0.5689190626144409,0.7957019209861755,-0.1014556884765625,0.9538863301277161,0.35363343358039856,0.8090155720710754,-0.20426464080810547,0.9355286359786987,179.8034587186267,0.4757557064294815,0.7842373251914978,125.50292804096341,137.074076457432,1.1403921999071625,-0.01072672391368117,0.12687763934934332,-0.020669717554837038,0.3792047571302811,-176.5677607732721,0.47435299826231764,51,1762115411.5508678
0.4810234010219574,0.3248801529407501,-0.5358266830444336,0.9998894929885864,0.5457981824874878,0.472705215215683,-0.2306428849697113,0.9997524619102478,0.40430203080177307,0.46326106786727905,-0.270171582698822,0.9996639490127563,0.5150983929634094,0.8001918196678162,0.015468472614884377,0.9973949790000916,0.4342864453792572,0.8069201111793518,-0.01531788520514965,0.9972627758979797,0.5102640390396118,1.0700215101242065,-0.01771700195968151,0.6940149664878845,0.44626349210739136,1.088363766670227,-0.01812480017542839,0.7217944860458374,0.5141304135322571,1.268708348274231,0.32514822483062744,0.24759843945503235,0.44402727484703064,1.2769345045089722,0.3290080726146698,0.28384631872177124,0.5701719522476196,0.8121404051780701,-0.17089810967445374,0.9450408816337585,0.35088109970092773,0.799647867679596,-0.2622094750404358,0.9119580984115601,179.93892838339482,0.4746924191713333,0.803555965423584,113.06438447809666,117.89660698748341,1.2818740920620373,-0.006852203813787837,0.12449623491777663,0.024968794840374654,-0.015346622846371262,-176.1814622387012,0.43830026448672543,52,1762115411.7060423
0.4814220368862152,0.3323521614074707,-0.4538567066192627,0.9998661279678345,0.5467923879623413,0.4829806983470917,-0.19796375930309296,0.9996948838233948,0.4011933207511902,0.476578950881958,-0.2347162961959839,0.9995458722114563,0.5151458382606506,0.8178071975708008,0.015192607417702675,0.9964276552200317,0.4309505522251129,0.8271468877792358,-0.015072517096996307,0.995769202709198,0.5119918584823608,1.0845156908035278,-0.03162183240056038,0.6862577795982361,0.4404214918613434,1.1011526584625244,-0.006731296423822641,0.6996042132377625,0.5170091390609741,1.2788130044937134,0.28917014598846436,0.23106978833675385,0.44114628434181213,1.2906818389892578,0.3214166462421417,0.2619151771068573,0.5735469460487366,0.8261426091194153,-0.09234913438558578,0.9376572966575623,0.34997907280921936,0.824684739112854,-0.2143222838640213,0.8895745873451233,179.84206220429473,0.4730481952428818,0.8224770426750183,111.23363560645161,121.73609071698958,1.217937234117247,-0.00682387136672851,0.07852640692640693,0.00011758554956657814,-0.1907843497078678,-177.48242190765617,0.32891612072738485,53,1762115411.946994
0.4817163944244385,0.3368738889694214,-0.5067007541656494,0.9998520016670227,0.5472705960273743,0.4862919747829437,-0.2221287041902542,0.9996691346168518,0.40077096223831177,0.47769874334335327,-0.2393186092376709,0.9994319677352905,0.5154127478599548,0.8170316815376282,0.010951184667646885,0.9951655268669128,0.43014150857925415,0.8225806951522827,-0.010691925883293152,0.993707537651062,0.5123475790023804,1.0757660865783691,-0.03542289137840271,0.6809896230697632,0.4429842531681061,1.058578610420227,0.012966806069016457,0.6788963675498962,0.5170629024505615,1.2715116739273071,0.3044423460960388,0.2142304927110672,0.43949609994888306,1.2882236242294312,0.36587998270988464,0.24009358882904053,0.5748019218444824,0.8231590986251831,-0.10140214115381241,0.9304025769233704,0.3525795340538025,0.815945029258728,-0.08807648718357086,0.8502710461616516,179.78906648212268,0.4727771282196045,0.8198061883449554,109.76672087640073,128.67510455705371,1.26411254790682,-0.0011406056878922614,-0.01123851807412639,0.023914252204896538,-0.3777161190282317,-176.64304701689562,2.0235617230864267,54,1762115412.184646
0.48184099793434143,0.3482627272605896,-0.46252113580703735,0.9997401237487793,0.5503734350204468,0.4967973828315735,-0.17717382311820984,0.9996084570884705,0.3992631435394287,0.4888015389442444,-0.23340614140033722,0.9990444183349609,0.5154255032539368,0.8413282036781311,0.01346678752452135,0.9949507117271423,0.42670854926109314,0.8486456274986267,-0.013090414926409721,0.9925418496131897,0.5120694637298584,1.0693466663360596,-0.053945641964673996,0.6552371382713318,0.4346954822540283,1.0637240409851074,0.06714565306901932,0.6292836666107178,0.5140441060066223,1.242182970046997,0.32217422127723694,0.2011176496744156,0.43744412064552307,1.2520735263824463,0.47512754797935486,0.22072748839855194,0.5765631198883057,0.8366086483001709,-0.03584495559334755,0.9126638770103455,0.3515162169933319,0.8568048477172852,-0.1523069590330124,0.8074999451637268,179.38974711146892,0.47106702625751495,0.8449869155883789,98.20501303994584,135.21995706172382,1.2448347864446687,-0.010569737815462875,0.15563614969511028,-0.05827924686666185,1.031413053411229,-176.97107819886193,1.5877418870042206,55,1762115412.3464382
0.48341137170791626,0.3603191375732422,-0.5858534574508667,0.9996172785758972,0.5551232099533081,0.5159826874732971,-0.24433186650276184,0.9995748400688171,0.3990921378135681,0.5069379806518555,-0.289781779050827,0.9989267587661743,0.5156230926513672,0.8853002786636353,0.011305410414934158,0.9933408498764038,0.42672792077064514,0.8885723352432251,-0.010805596597492695,0.9903366565704346,0.5134612917900085,1.160616159439087,-0.05340930074453354,0.6159089803695679,0.43088045716285706,1.1555335521697998,0.0563293918967247,0.5797232985496521,0.514049232006073,1.3668287992477417,0.4161132872104645,0.18184329569339752,0.4308653473854065,1.3768271207809448,0.3843001425266266,0.19972632825374603,0.5791219472885132,0.8637592792510986,-0.24982206523418427,0.9054766297340393,0.3541572690010071,0.9211293458938599,-0.3352722227573395,0.7954921126365662,179.09485588623224,0.47117550671100616,0.8869363069534302,100.48240491824872,138.1169792175123,1.4126516744135835,0.0009565354496242182,0.3698922583696852,0.10163387619876565,1.8892211144966717,-176.68242843544675,20.63971137901599,56,1762115412.459848
0.4888693392276764,0.36661937832832336,-0.64091557264328,0.9996219277381897,0.5648482441902161,0.5336552858352661,-0.2794165313243866,0.99957674741745,0.399932324886322,0.521593451499939,-0.30380570888519287,0.9989687204360962,0.5220187902450562,0.9225845336914062,-0.0022710023913532495,0.9861958026885986,0.42815786600112915,0.92439204454422,0.002991623943671584,0.9808074235916138,0.5221232771873474,1.220880389213562,-0.045943547040224075,0.585705578327179,0.4320808947086334,1.212674856185913,0.10001832246780396,0.5333054661750793,0.5196248292922974,1.4484976530075073,0.372664213180542,0.166079580783844,0.4325503408908844,1.4516247510910034,0.49148720502853394,0.18194015324115753,0.5862669348716736,0.9009686708450317,-0.31770050525665283,0.8916373252868652,0.35459834337234497,0.9562416076660156,-0.3717832863330841,0.7738028168678284,178.94326352104338,0.47508832812309265,0.9234882891178131,110.20519727262945,139.99614866989347,1.5248999473189575,0.045901332718017565,0.4287915338143984,0.527247700850286,0.6909477725425471,-175.81687538654882,7.190497545285702,57,1762115412.545092
0.4946741461753845,0.3682495653629303,-0.6561641693115234,0.9996463656425476,0.5723503828048706,0.5472932457923889,-0.28335440158843994,0.9995881915092468,0.4010373651981354,0.5245500206947327,-0.3065465986728668,0.9990476965904236,0.5258248448371887,0.9514272212982178,-0.009506898000836372,0.969211220741272,0.4272661805152893,0.9452488422393799,0.01040556002408266,0.9635116457939148,0.52091383934021,1.2612241506576538,-0.005371463485062122,0.5455892086029053,0.422646701335907,1.2543373107910156,0.09502029418945312,0.4887850284576416,0.5138830542564392,1.5198866128921509,0.34606343507766724,0.15135948359966278,0.41403231024742126,1.5228508710861206,0.41485634446144104,0.16535748541355133,0.5921434164047241,0.9403600692749023,-0.3377874493598938,0.8737004995346069,0.3551599085330963,0.9577646851539612,-0.40865397453308105,0.7519794702529907,178.59040290743016,0.476545512676239,0.9483380317687988,127.12548344204241,145.32768654296555,1.5508761319089246,0.013004515076141376,0.22176933748385574,-0.29358474879323176,-1.8475513396456034,-172.4377305197637,1.2971492381171916,58,1762115412.6571443
0.4965304434299469,0.36904293298721313,-0.6838170289993286,0.9996591806411743,0.5749801397323608,0.5515284538269043,-0.2798146605491638,0.9996016025543213,0.4018113613128662,0.5240964889526367,-0.29756417870521545,0.9991030097007751,0.526386022567749,0.957798182964325,-0.010082871653139591,0.9604803323745728,0.42585405707359314,0.9437081813812256,0.010901604779064655,0.9526818990707397,0.5203983187675476,1.2689807415008545,-0.01874503865838051,0.5121316313743591,0.4170101583003998,1.25850248336792,0.0253834780305624,0.4545310437679291,0.5068621635437012,1.5422688722610474,0.3135588765144348,0.13789212703704834,0.4053795337677002,1.5463769435882568,0.29508721828460693,0.15102824568748474,0.592496931552887,0.9417595863342285,-0.33278152346611023,0.8712359666824341,0.3562953472137451,0.9400243759155273,-0.39627715945243835,0.7403179407119751,178.2972390065998,0.4761200398206711,0.9507531821727753,127.85283781290498,139.51739475670988,1.5360132699375648,-0.004505879278478584,0.025577133810711725,-0.18544008636027573,-2.0777315722053737,-170.9984749763795,0.9754712640567899,59,1762115412.7515705
0.49891671538352966,0.36712828278541565,-0.7764289975166321,0.9996796250343323,0.5801881551742554,0.5620696544647217,-0.3674176335334778,0.9996041655540466,0.4023440480232239,0.5260592699050903,-0.3488904535770416,0.9991651773452759,0.5295625925064087,0.9729505777359009,-0.019446011632680893,0.9543531537055969,0.426044762134552,0.959332287311554,0.020146265625953674,0.9464521408081055,0.5226401686668396,1.302611231803894,0.009490199387073517,0.47754672169685364,0.4154573380947113,1.2928943634033203,0.12883314490318298,0.4212813377380371,0.5086187720298767,1.5784423351287842,0.44731444120407104,0.126161128282547,0.4073905348777771,1.5805386304855347,0.5160683393478394,0.13881957530975342,0.5981515645980835,0.9878624081611633,-0.4458877444267273,0.8419395685195923,0.35680535435676575,0.9518579244613647,-0.4404609203338623,0.7168110609054565,178.17313253998566,0.47780367732048035,0.9661414325237274,127.24244208486469,144.65448787346764,1.7476735424650316,0.018708290613914477,0.17099159387807547,0.2579518671666992,1.615820495037617,-168.55334676184617,1.218859436971936,60,1762115412.8415647
0.504161536693573,0.3729347586631775,-0.7469249367713928,0.9996961951255798,0.58599454164505,0.564339280128479,-0.3534508943557739,0.9996219277381897,0.40273746848106384,0.5233950018882751,-0.31480681896209717,0.9992194175720215,0.5319300293922424,0.9798833131790161,-0.028712432831525803,0.9275401830673218,0.4259544312953949,0.9663442969322205,0.029779601842164993,0.9136826992034912,0.5254863500595093,1.308887004852295,0.010003425180912018,0.43291839957237244,0.41149693727493286,1.2947711944580078,0.14576266705989838,0.38082870841026306,0.5103431344032288,1.5876946449279785,0.41721242666244507,0.11390378326177597,0.40369707345962524,1.583058476448059,0.5167711973190308,0.12536703050136566,0.6038170456886292,0.9944600462913513,-0.41779837012290955,0.8144969344139099,0.35891059041023254,0.9370805621147156,-0.335643470287323,0.6716983914375305,177.94212224617596,0.47894223034381866,0.9731138050556183,131.12219649348987,147.28245527367508,1.7163424223928436,0.012338292743423195,0.07555833733806668,-0.0690305123169916,-1.0341929031959969,-167.40551811474757,1.3444080451616525,61,1762115412.9338427
0.5075150728225708,0.3757767081260681,-0.8591558337211609,0.999718189239502,0.5890449285507202,0.5721079111099243,-0.43776100873947144,0.999632716178894,0.4016735553741455,0.5222196578979492,-0.37403514981269836,0.9992698431015015,0.5351843237876892,0.9842768311500549,-0.03222256153821945,0.8775662779808044,0.42476168274879456,0.9640308022499084,0.033389948308467865,0.8607040643692017,0.5321420431137085,1.3287842273712158,0.015233868733048439,0.3916712701320648,0.41401559114456177,1.3141366243362427,0.13242207467556,0.3441898822784424,0.5175633430480957,1.6133968830108643,0.4534462094306946,0.10269284248352051,0.4070308208465576,1.6078118085861206,0.5220620632171631,0.11315047740936279,0.6116147041320801,1.0592784881591797,-0.5259900689125061,0.7828750610351562,0.3608098328113556,0.9438515305519104,-0.38653773069381714,0.6365304589271545,177.93628607250847,0.4799730032682419,0.9741538166999817,130.84341228386702,142.79892066241052,1.827843108383572,0.01063291466122975,0.01072821646667634,-0.017591788825110234,-0.6687536375564272,-165.09069493377876,1.4269328175794458,62,1762115413.0307844
0.5107877254486084,0.3758978247642517,-0.7368127703666687,0.999744176864624,0.5931243300437927,0.584918737411499,-0.3521638512611389,0.9996592402458191,0.39879077672958374,0.5327014327049255,-0.31697314977645874,0.9993264675140381,0.537585437297821,0.9949268698692322,-0.03250265121459961,0.8126883506774902,0.4242534041404724,0.9838682413101196,0.03403709456324577,0.7925496697425842,0.5358108878135681,1.3476202487945557,0.034324679523706436,0.3527975380420685,0.4137421250343323,1.335936188697815,0.15523307025432587,0.30993473529815674,0.5201403498649597,1.634861707687378,0.46078842878341675,0.09244848042726517,0.4058105945587158,1.6306734085083008,0.5391030311584473,0.10185909271240234,0.618030846118927,1.0521711111068726,-0.42171186208724976,0.7415246963500977,0.3608110547065735,0.9294315576553345,-0.155604287981987,0.5877006649971008,177.999775812324,0.48091942071914673,0.9893975555896759,134.67582580839655,146.51418092352947,1.763966872219241,0.00675288602866125,0.10876725833231263,-0.027684814051798116,0.6995290243695576,-164.9599043919258,1.274198362525324,63,1762115413.1709344
0.5113894939422607,0.37639686465263367,-0.773447573184967,0.9997634887695312,0.5945793390274048,0.5877459049224854,-0.38605037331581116,0.9996748566627502,0.3986339569091797,0.5316814184188843,-0.3102550506591797,0.9993767738342285,0.5371196866035461,1.001632571220398,-0.04296440631151199,0.7564926743507385,0.4234265387058258,0.9914384484291077,0.044579632580280304,0.7362412214279175,0.5343502759933472,1.3557729721069336,0.025126934051513672,0.31797268986701965,0.41076722741127014,1.3372818231582642,0.16305190324783325,0.2792326509952545,0.5197978615760803,1.6498215198516846,0.4306343197822571,0.08325718343257904,0.4010065495967865,1.6394078731536865,0.5280202627182007,0.09173156321048737,0.6166163682937622,1.0651460886001587,-0.45379185676574707,0.7077730894088745,0.3608364462852478,0.9256337285041809,-0.14663104712963104,0.549260139465332,177.8586078968117,0.480273112654686,0.9965355098247528,136.8216112655009,148.52965209037703,1.7833734980527636,-0.004432611791791824,0.04895464230060452,-0.07671414339749855,-0.41021630658635433,-164.03295459564967,1.3434894803547601,64,1762115413.316742
0.514305055141449,0.37562790513038635,-0.8476444482803345,0.999785304069519,0.6008424162864685,0.5928729176521301,-0.40995532274246216,0.9996920824050903,0.39748436212539673,0.5367523431777954,-0.3633826673030853,0.9994167685508728,0.5437653064727783,1.0032240152359009,-0.03856680169701576,0.6989691257476807,0.4237484037876129,0.9965027570724487,0.04022364690899849,0.6772494316101074,0.5414013266563416,1.37812077999115,0.019852735102176666,0.286370187997818,0.412738561630249,1.3696566820144653,0.18089450895786285,0.2514130473136902,0.5259419679641724,1.6735353469848633,0.4594455659389496,0.0749477967619896,0.40418022871017456,1.672494649887085,0.6164196729660034,0.08257362246513367,0.6256377696990967,1.075990915298462,-0.4775412678718567,0.6682457327842712,0.36112314462661743,0.9523371458053589,-0.30629104375839233,0.5060384273529053,177.9718213639696,0.4837568551301956,0.9998633861541748,132.74924927092565,145.46982882242605,1.8988054265207686,0.02239693901794131,0.02139487741510258,0.17248686364982938,-0.17718140127423967,-164.57213084626815,1.282825302210272,65,1762115413.4722874
0.5145246982574463,0.37608930468559265,-0.7986858487129211,0.9998046159744263,0.6061804294586182,0.5988625288009644,-0.3844388723373413,0.9996922016143799,0.3943040668964386,0.5440174341201782,-0.36211341619491577,0.9994633197784424,0.5479060411453247,1.0124038457870483,-0.0365610346198082,0.6344721913337708,0.42350560426712036,0.9940683245658875,0.037493981420993805,0.6150767207145691,0.5470694303512573,1.3876293897628784,0.06363077461719513,0.25779956579208374,0.41412433981895447,1.3824949264526367,0.1585845649242401,0.22632119059562683,0.5338137149810791,1.6881240606307983,0.48854270577430725,0.06746108829975128,0.40470975637435913,1.685986042022705,0.5458266735076904,0.07432276010513306,0.6210704445838928,1.0595190525054932,-0.3628999590873718,0.6083061695098877,0.36461764574050903,0.948725700378418,-0.10319916903972626,0.46212634444236755,178.07186449057357,0.48570582270622253,1.003236085176468,140.19996643382734,145.40816303004593,1.858008395663416,0.015473275702155207,0.02677658801215971,-0.05496846262186195,0.0427265660248856,-165.48729142999662,1.2823071528885925,66,1762115413.5982444
0.5146228075027466,0.3761497437953949,-0.8304932713508606,0.9998219609260559,0.6087273359298706,0.6003696918487549,-0.39497503638267517,0.9996891617774963,0.3923014998435974,0.5499415397644043,-0.3834243416786194,0.9995007514953613,0.5498760342597961,1.018250823020935,-0.028428930789232254,0.5822367072105408,0.4229750633239746,1.00235915184021,0.030111003667116165,0.5642566084861755,0.5511127710342407,1.4033735990524292,0.06377346813678741,0.23216311633586884,0.4148216247558594,1.4012216329574585,0.13000881671905518,0.20381046831607819,0.5425600409507751,1.7032830715179443,0.5204929709434509,0.06072975695133209,0.4108634889125824,1.7049192190170288,0.5209639072418213,0.06690608710050583,0.621184766292572,1.0554468631744385,-0.337722510099411,0.5570722222328186,0.363609254360199,0.9466301798820496,-0.11891047656536102,0.4236105680465698,178.1455773588553,0.4864255487918854,1.0103049874305725,136.74296929630032,141.8989316795798,1.8949122097327797,0.007371092862950781,0.07239634076363911,-0.08297870994265864,0.46721584866042326,-166.88385740073045,2.251901231473733,67,1762115413.6958861
0.5141838788986206,0.38068634271621704,-0.9142988920211792,0.9998372793197632,0.6098191142082214,0.602475643157959,-0.4486845135688782,0.9996823668479919,0.39047667384147644,0.5539882779121399,-0.41866645216941833,0.9995130300521851,0.5509401559829712,1.043705701828003,-0.02757561206817627,0.5370339751243591,0.42037469148635864,1.0258547067642212,0.02925681695342064,0.519288957118988,0.5503368973731995,1.4287482500076294,0.07367759943008423,0.2090933620929718,0.415412962436676,1.420200228691101,0.18123966455459595,0.18353812396526337,0.539109468460083,1.731175422668457,0.5303093194961548,0.054670561105012894,0.4104838967323303,1.73091459274292,0.6077505946159363,0.06023254990577698,0.6215916275978088,1.0947977304458618,-0.4360892176628113,0.5141886472702026,0.368644654750824,0.9544579982757568,-0.3241536021232605,0.38750630617141724,178.18208878990933,0.4856574237346649,1.034780204296112,138.23862453186743,147.151564121261,2.006311129872303,-0.008698099606638282,0.277152622726426,-0.18196442803793578,2.3186205408295555,-167.5347828501485,1.7935421130783389,68,1762115413.7841957
0.5144326686859131,0.3817511796951294,-0.9184483289718628,0.999851644039154,0.6090041399002075,0.602570652961731,-0.4309300482273102,0.9996622204780579,0.38950416445732117,0.5572574138641357,-0.4305468499660492,0.9995332360267639,0.5525981187820435,1.046096920967102,-0.02728169783949852,0.49025800824165344,0.42018836736679077,1.0298815965652466,0.02919132634997368,0.47416698932647705,0.5522085428237915,1.4355555772781372,0.0720791444182396,0.18826863169670105,0.41590461134910583,1.4316486120224,0.17260852456092834,0.16522611677646637,0.5412049293518066,1.7493711709976196,0.5157688856124878,0.049212414771318436,0.4117797911167145,1.7496434450149536,0.5914199352264404,0.054215919226408005,0.6233853101730347,1.1116622686386108,-0.4667997360229492,0.47873997688293457,0.3659765124320984,0.9803158044815063,-0.48467645049095154,0.36304718255996704,178.39178753522467,0.4863932430744171,1.0379892587661743,139.57115191033085,146.85423116029202,2.00975275099522,0.007238635137607363,0.031569127353069486,0.1567778962391429,-2.4159317685570594,-168.33580188055018,1.7000053475833188,69,1762115413.8858473
0.5139089226722717,0.38356027007102966,-0.8969570994377136,0.9998655319213867,0.6093617081642151,0.6041457653045654,-0.4207687973976135,0.9996485114097595,0.3889066278934479,0.5595787763595581,-0.39793285727500916,0.9995293617248535,0.5553568601608276,1.0718868970870972,-0.031581588089466095,0.4454146921634674,0.41948819160461426,1.0446381568908691,0.033694151788949966,0.4301389455795288,0.5535904765129089,1.4712580442428589,0.032782603055238724,0.1695546805858612,0.4162505567073822,1.4679158926010132,0.20987625420093536,0.1487460881471634,0.5423583388328552,1.7893139123916626,0.5098147392272949,0.04430156946182251,0.4119236469268799,1.790409803390503,0.6604951620101929,0.0488019622862339,0.6258369088172913,1.130784511566162,-0.4460029602050781,0.4426267743110657,0.36604899168014526,0.9902997612953186,-0.43348607420921326,0.3336995244026184,178.59174606440473,0.48742252588272095,1.0582625269889832,132.84396843834543,148.18931213436872,2.0434510430859305,0.006500744620138323,0.12804191255193142,-0.004660369116232217,0.6093028410770225,-168.57117063616315,1.5052511311718668,70,1762115414.0441804
0.5112577676773071,0.3897560238838196,-0.863723635673523,0.9998584985733032,0.608169436454773,0.6067529320716858,-0.42952388525009155,0.9994657039642334,0.3862382471561432,0.5579086542129517,-0.3864189386367798,0.9990821480751038,0.5549814701080322,1.0915899276733398,-0.03733491525053978,0.4057905972003937,0.414304256439209,1.0757261514663696,0.03918495029211044,0.39154553413391113,0.552756130695343,1.502881407737732,0.003829123917967081,0.1528158336877823,0.40762630105018616,1.499424934387207,0.21472668647766113,0.13407644629478455,0.5416357517242432,1.8246190547943115,0.40481263399124146,0.03993773087859154,0.4066757559776306,1.830250859260559,0.6246685981750488,0.04398278519511223,0.6224247217178345,1.1145994663238525,-0.2287684977054596,0.4102060794830322,0.4971015453338623,0.22459691762924194,0.3292155861854553,0.3147287666797638,178.56472889355683,0.4846428632736206,1.0836580395698547,134.45308051392175,151.39977631918535,1.9920996379714566,-0.01433416445975553,0.1309595821745513,-0.1074414615203652,0.01504583904281908,-167.58780030647145,2.0808510823752844,71,1762115414.238099
0.5038145780563354,0.4022887647151947,-0.8225746154785156,0.9998667240142822,0.6078611612319946,0.6130472421646118,-0.42414289712905884,0.9994731545448303,0.3825625479221344,0.5570974349975586,-0.2930688261985779,0.9990466237068176,0.554757833480835,1.1088364124298096,-0.051449280232191086,0.3671463131904602,0.40968385338783264,1.1148982048034668,0.053245238959789276,0.3538350760936737,0.55047208070755,1.5320158004760742,-0.08607642352581024,0.13779093325138092,0.40067774057388306,1.530342936515808,0.24212679266929626,0.12091096490621567,0.5405689477920532,1.8688265085220337,0.2584189474582672,0.03601449355483055,0.40418189764022827,1.8736121654510498,0.6407094597816467,0.03965889289975166,0.622232973575592,1.145006537437439,-0.15512511134147644,0.37946128845214844,0.49019378423690796,0.21821002662181854,0.43377524614334106,0.29015427827835083,178.58734550988277,0.4822208434343338,1.1118673086166382,129.6786499389836,155.13942617782305,1.9434717959618524,-0.017602047888607614,0.20501108067319204,-0.02374936805884281,0.5381698372793055,-166.05351138420437,4.059072069285357,72,1762115414.3756979
0.497610867023468,0.4107283353805542,-0.7580098509788513,0.9998718500137329,0.6070513129234314,0.6183949708938599,-0.35156121850013733,0.9994840621948242,0.38211342692375183,0.5516107082366943,-0.26420292258262634,0.9991037845611572,0.5538703799247742,1.1625535488128662,-0.05143650621175766,0.33264920115470886,0.4057185649871826,1.1386834383010864,0.05305102467536926,0.320543497800827,0.5450869798660278,1.5627951622009277,-0.1270877867937088,0.12490546703338623,0.39619848132133484,1.5507901906967163,0.1510271579027176,0.10975925624370575,0.5352320075035095,1.9172030687332153,0.18050488829612732,0.03261568769812584,0.3972037434577942,1.9204920530319214,0.4569832682609558,0.03611143305897713,0.6215052604675293,1.1816226243972778,-0.03647657856345177,0.34952348470687866,0.4949498176574707,0.16963745653629303,0.47537893056869507,0.2668421268463135,178.5023555618372,0.4797944724559784,1.1506184935569763,128.35397437700394,153.72691338606236,1.853323539595296,-0.01284165873811032,0.2050920890252797,0.02519453681098835,0.00042873971941071197,-163.46379795141777,3.3412520495934093,73,1762115414.5653028
0.49562448263168335,0.4128062427043915,-0.7531812787055969,0.9998549818992615,0.606388509273529,0.6225147843360901,-0.32530322670936584,0.9994170069694519,0.38189199566841125,0.5495294332504272,-0.27612537145614624,0.9990606904029846,0.5533605217933655,1.192007064819336,-0.05750427395105362,0.30059167742729187,0.40449896454811096,1.1651134490966797,0.05882582813501358,0.28953680396080017,0.5447942018508911,1.600229024887085,-0.1315121203660965,0.11399773508310318,0.39777931571006775,1.5891249179840088,0.13691145181655884,0.09989241510629654,0.5349679589271545,1.9703317880630493,0.17556491494178772,0.029698843136429787,0.3980194628238678,1.975675344467163,0.3994726836681366,0.033133868128061295,0.6228038668632507,1.1870708465576172,0.04308980330824852,0.318878173828125,0.5093509554862976,0.15581315755844116,0.38427525758743286,0.24328471720218658,178.5295349507933,0.4789297431707382,1.1785602569580078,130.05254207902473,156.23103601725546,1.8756654666225294,-0.006033121191807322,0.1949466125278831,0.04750241822145254,-0.07078387456303879,-161.99030213856378,3.1727904271604546,74,1762115414.7079735
0.4912854731082916,0.41621819138526917,-0.7318126559257507,0.9998221397399902,0.6059584021568298,0.6228165030479431,-0.28503841161727905,0.9992800354957581,0.3789963722229004,0.5492052435874939,-0.26048558950424194,0.998985767364502,0.5522064566612244,1.1901854276657104,-0.059184592217206955,0.2714957296848297,0.40533241629600525,1.190011978149414,0.06054156273603439,0.2613677680492401,0.5426304936408997,1.6022530794143677,-0.11923117935657501,0.1032671108841896,0.39536207914352417,1.5865758657455444,0.07782571017742157,0.09041272103786469,0.5286638140678406,1.9846415519714355,0.21314477920532227,0.02688710391521454,0.38893812894821167,1.975270390510559,0.32909834384918213,0.030052844434976578,0.612663209438324,1.124193549156189,0.1007651537656784,0.29057076573371887,0.4770583510398865,0.26714789867401123,0.553260087966919,0.22137470543384552,178.70006824219507,0.4787694364786148,1.1900987029075623,130.72760556584294,149.61361046614886,1.858011876046654,-0.0012764666908401947,0.09187665046027789,0.03787559302667966,-0.820710424890896,-162.0304142814186,1.3444024499979859,75,1762115414.8355734
0.48788827657699585,0.4255122244358063,-0.6513603329658508,0.9997867941856384,0.604182243347168,0.6211071610450745,-0.20865917205810547,0.9990682601928711,0.3761015832424164,0.5544650554656982,-0.18669787049293518,0.9987866878509521,0.5517805218696594,1.2058323621749878,-0.055729132145643234,0.24591483175754547,0.4047258794307709,1.210353970527649,0.057169221341609955,0.23651301860809326,0.542555570602417,1.6229608058929443,-0.18521113693714142,0.09411785751581192,0.39505717158317566,1.6109673976898193,-0.0063223703764379025,0.08260145038366318,0.5285078287124634,2.017112970352173,0.08198919147253036,0.02442000061273575,0.3885229527950287,2.0112111568450928,0.1865064799785614,0.02742662839591503,0.6215893030166626,1.1545662879943848,0.1402904987335205,0.265606164932251,0.4639642834663391,0.17260025441646576,0.5736099481582642,0.20339776575565338,178.90201205547828,0.47825320065021515,1.2080931663513184,128.63652637640976,145.2729371638567,1.7725268044823215,-0.0037120247142585295,0.1293902696178856,-0.01751302617636273,0.2697439305326881,-163.71234630480245,1.1551433497660641,76,1762115414.972631
0.48439374566078186,0.4297061860561371,-0.7049311995506287,0.9997221231460571,0.603000819683075,0.6301632523536682,-0.2685147821903229,0.9988563060760498,0.3727389872074127,0.5567894577980042,-0.2364177405834198,0.9985877275466919,0.5515522956848145,1.2258388996124268,-0.05377385765314102,0.2223605513572693,0.4046618938446045,1.2280213832855225,0.055209506303071976,0.21377518773078918,0.5420671105384827,1.6525388956069946,-0.14876049757003784,0.08557900786399841,0.3932594954967499,1.6392825841903687,-0.061977557837963104,0.07526204735040665,0.5281633734703064,2.0551023483276367,0.1792822927236557,0.022167814895510674,0.38776350021362305,2.053325653076172,0.16529013216495514,0.02493230067193508,0.6212380528450012,1.147851586341858,-0.004277070052921772,0.247757688164711,0.4603354334831238,0.1465281844139099,0.5566943883895874,0.19273769855499268,179.11702564112042,0.4781070947647095,1.2269301414489746,128.28943911516401,135.33347978744433,1.8464112729769915,-0.0011582014601961418,0.1493232937761171,0.020244508369397663,0.15801182550782172,-162.32532567065522,1.0063852550649843,77,1762115415.09878
0.4794369339942932,0.42971670627593994,-0.723287045955658,0.9996883869171143,0.6014520525932312,0.6313433647155762,-0.2882916033267975,0.9987691640853882,0.3663080036640167,0.5588856339454651,-0.23901450634002686,0.9983895421028137,0.5487576723098755,1.2493717670440674,-0.05693984031677246,0.20092454552650452,0.40211883187294006,1.2524882555007935,0.058521170169115067,0.19302119314670563,0.5402919054031372,1.6956101655960083,-0.12476588785648346,0.07780175656080246,0.38617122173309326,1.6886391639709473,0.05337236449122429,0.0684882402420044,0.5264718532562256,2.100614547729492,0.25963664054870605,0.020302897319197655,0.3853107690811157,2.097841262817383,0.38372480869293213,0.02265748754143715,0.6133990287780762,1.1856048107147217,-0.017201237380504608,0.23192034661769867,0.45953506231307983,0.15397657454013824,0.6326252222061157,0.18304327130317688,179.26251907992267,0.4754382520914078,1.2509300112724304,127.86446543152685,140.36814439500253,1.969715634673158,-0.02062505182087022,0.18547311302937897,-0.15044153838462,0.2793689949850907,-162.8737428546307,1.149909521957707,78,1762115415.228178
