nose_x,nose_y,nose_z,nose_visibility,left_shoulder_x,left_shoulder_y,left_shoulder_z,left_shoulder_visibility,right_shoulder_x,right_shoulder_y,right_shoulder_z,right_shoulder_visibility,left_hip_x,left_hip_y,left_hip_z,left_hip_visibility,right_hip_x,right_hip_y,right_hip_z,right_hip_visibility,left_knee_x,left_knee_y,left_knee_z,left_knee_visibility,right_knee_x,right_knee_y,right_knee_z,right_knee_visibility,left_ankle_x,left_ankle_y,left_ankle_z,left_ankle_visibility,right_ankle_x,right_ankle_y,right_ankle_z,right_ankle_visibility,left_wrist_x,left_wrist_y,left_wrist_z,left_wrist_visibility,right_wrist_x,right_wrist_y,right_wrist_z,right_wrist_visibility,trunk_lateral_inclination,center_mass_x,center_mass_y,left_knee_angle,right_knee_angle,person_height,center_mass_velocity_x,center_mass_velocity_y,center_mass_acceleration_x,center_mass_acceleration_y,body_orientation,torso_leg_ratio,frame,timestamp
0.5015201568603516,0.20779387652873993,-0.2235429733991623,0.9999901056289673,0.5374577045440674,0.2781463861465454,-0.10837344825267792,0.9999663829803467,0.47525471448898315,0.2820773422718048,-0.09419333189725876,0.9998990297317505,0.5222266316413879,0.4407888948917389,-0.008972429670393467,0.9999083280563354,0.48973900079727173,0.43909722566604614,0.008923484943807125,0.999843955039978,0.5194968581199646,0.5449435710906982,0.003021667245775461,0.9887778162956238,0.48744234442710876,0.5384312272071838,0.033493444323539734,0.9893686175346375,0.5128408670425415,0.6285626292228699,0.1705176830291748,0.9881336092948914,0.4933585524559021,0.6234577298164368,0.18831901252269745,0.9895289540290833,0.5434824228286743,0.4488075375556946,-0.12686550617218018,0.9379122853279114,0.4700089395046234,0.45729056000709534,-0.11632992327213287,0.894286036491394,179.86614740029776,0.5059828162193298,0.4399430602788925,123.12392695805053,132.56338248622015,0.5807625998959446,0.0,0.0,0.0,0.0,176.38396670687504,1.0067452953668206,0,1762115358.0387704
0.501456081867218,0.20784622430801392,-0.22455933690071106,0.9999893307685852,0.5375891923904419,0.27846160531044006,-0.10102102905511856,0.9999648928642273,0.47437039017677307,0.2827526926994324,-0.09664011746644974,0.9998989105224609,0.5218701362609863,0.4469573497772217,-0.004561238922178745,0.9999063611030579,0.4894331991672516,0.4463140666484833,0.004499949514865875,0.99984210729599,0.519465982913971,0.5486704111099243,0.040322571992874146,0.9885299205780029,0.48744767904281616,0.5434107184410095,0.055423952639102936,0.9892101287841797,0.5129213333129883,0.6285856366157532,0.22822995483875275,0.9874353408813477,0.49340325593948364,0.6267073750495911,0.23217542469501495,0.9888584613800049,0.5437140464782715,0.44867023825645447,-0.11506763845682144,0.9377502202987671,0.4689416289329529,0.4572474956512451,-0.12595731019973755,0.8919727802276611,179.88676604010914,0.505651667714119,0.4466357082128525,136.86012035558304,142.80495474169808,0.6189052338031886,-0.004783732167827351,0.09668120104978198,-0.06910522950702586,1.396645203611914,176.11690435489123,1.1102646665732534,1,1762115358.1079943
0.5014325976371765,0.20796163380146027,-0.22707316279411316,0.999988853931427,0.53766930103302,0.27860763669013977,-0.09896829724311829,0.9999644756317139,0.4736928939819336,0.28321555256843567,-0.10023802518844604,0.9999000430107117,0.5218357443809509,0.4511200785636902,-0.002173582324758172,0.9999076724052429,0.48928016424179077,0.45012152194976807,0.002100165467709303,0.9998460412025452,0.519465982913971,0.5514278411865234,0.05136524885892868,0.9883375763893127,0.4874506890773773,0.5474209189414978,0.05986180156469345,0.9891207218170166,0.5131399631500244,0.6285908818244934,0.247507244348526,0.9868958592414856,0.4934508204460144,0.6278348565101624,0.23752978444099426,0.9883553385734558,0.5438848733901978,0.4486704468727112,-0.11009971797466278,0.9381974339485168,0.4682731032371521,0.457207053899765,-0.1290121078491211,0.8902380466461182,179.95842544811728,0.5055579543113708,0.4506208002567291,139.57331151715096,144.94453323684476,0.6301832385216879,-0.0010991158138455386,0.04673907420508533,0.043214950944645614,-0.5857452592947722,175.88037178404554,0.7511287246975563,2,1762115358.1932569
0.5007843971252441,0.20820802450180054,-0.2246105670928955,0.9999882578849792,0.537843644618988,0.2794668972492218,-0.09612926840782166,0.99996417760849,0.4730285704135895,0.28372833132743835,-0.09840510785579681,0.9999012351036072,0.5216283798217773,0.4567103385925293,-0.001654509687796235,0.9999083280563354,0.4889218211174011,0.45632803440093994,0.0015896193217486143,0.9998510479927063,0.5193970799446106,0.5556536912918091,0.05478518083691597,0.9878931641578674,0.48681917786598206,0.5565173625946045,0.05883515998721123,0.9890251755714417,0.5131427645683289,0.6290859580039978,0.25940781831741333,0.9860118627548218,0.492870032787323,0.6357476711273193,0.23584476113319397,0.987885057926178,0.5439173579216003,0.44997987151145935,-0.10921629518270493,0.9398279190063477,0.4675061106681824,0.4572184681892395,-0.12793497741222382,0.8877206444740295,179.9472619555951,0.5052751004695892,0.4565191864967346,139.44926431519693,143.7462997785117,0.6347957811736578,-0.003570214084947848,0.07445011706359954,-0.03119048974979537,0.34977200556620136,176.2383553030214,1.5672801537008048,3,1762115358.2724829
0.5001609921455383,0.2087925523519516,-0.21432241797447205,0.9999879002571106,0.5378880500793457,0.27986058592796326,-0.08906183391809464,0.9999621510505676,0.4722723960876465,0.28402677178382874,-0.08942697197198868,0.9999035596847534,0.5210145711898804,0.4600898027420044,-0.002381402300670743,0.9999057650566101,0.48823675513267517,0.4603182375431061,0.002319356892257929,0.9998552203178406,0.5191367268562317,0.5591153502464294,0.051766254007816315,0.9874833822250366,0.4860756993293762,0.564774751663208,0.05925090238451958,0.9888430833816528,0.5131742358207703,0.6301136016845703,0.25251340866088867,0.9849684834480286,0.4911886751651764,0.6471140384674072,0.2290671169757843,0.9875987768173218,0.5439184308052063,0.451224148273468,-0.08999548852443695,0.9411225914955139,0.4666995108127594,0.4577887952327728,-0.12157990783452988,0.8897922039031982,179.85389734788478,0.5046256631612778,0.46020402014255524,138.1506325036514,144.3644519114122,0.6260015628402644,-0.008842230409660456,0.0501698126988249,-0.07177965058367654,-0.33058163253389505,176.36695134434294,1.067649579007288,4,1762115358.34593
0.4995366930961609,0.20931841433048248,-0.21637889742851257,0.9999869465827942,0.5379321575164795,0.28059497475624084,-0.09220094978809357,0.9999536275863647,0.47164925932884216,0.2846302092075348,-0.08787287026643753,0.9999046325683594,0.5206621885299683,0.4614126980304718,-0.0038995922077447176,0.9998878836631775,0.4875272214412689,0.4617581367492676,0.0038497443310916424,0.999854326248169,0.5182267427444458,0.5635388493537903,0.041229404509067535,0.9866049885749817,0.4857456088066101,0.57151198387146,0.05495842546224594,0.9882614016532898,0.5134023427963257,0.6308433413505554,0.24253301322460175,0.9814757704734802,0.4903532862663269,0.662176787853241,0.20615136623382568,0.9869540929794312,0.5438408255577087,0.45501798391342163,-0.08663372695446014,0.9395006895065308,0.46563005447387695,0.459359347820282,-0.1157926544547081,0.891200602054596,179.77718484161034,0.5040947049856186,0.4615854173898697,132.3377067275086,145.83810846114633,0.6207874810127103,-0.006797011390411545,0.017683827568946785,0.026181679851643207,-0.4158662980985103,176.516191768571,6.364260411657521,5,1762115358.4240465
0.49915528297424316,0.20949971675872803,-0.21732647716999054,0.9999861121177673,0.5380304455757141,0.28101521730422974,-0.09395871311426163,0.9999444484710693,0.47148266434669495,0.28472793102264404,-0.0880284458398819,0.9999052882194519,0.5205055475234985,0.4609876275062561,-0.005141251254826784,0.9998642206192017,0.48718905448913574,0.46100860834121704,0.005088449455797672,0.9998494982719421,0.5179427862167358,0.5626295208930969,0.040837936103343964,0.9854185581207275,0.4853246212005615,0.570514440536499,0.055902738124132156,0.9873612523078918,0.5136989951133728,0.6312078833580017,0.23388469219207764,0.9791370630264282,0.4899243414402008,0.663025438785553,0.20551805198192596,0.9862312078475952,0.543852686882019,0.4552716910839081,-0.09081084281206131,0.9390639066696167,0.4652395248413086,0.4595021605491638,-0.11514633893966675,0.8941109776496887,179.70753397810554,0.5038473010063171,0.4609981179237366,133.90654187800925,146.53629732818706,0.6184731096490441,-0.0035969243621162385,-0.00853855206192178,0.046525003459796654,-0.38123847641111064,176.80676754733855,5.080636711204419,6,1762115358.4928286
0.4989143908023834,0.20949776470661163,-0.22203925251960754,0.9999854564666748,0.5380365252494812,0.28136876225471497,-0.09473593533039093,0.9999370574951172,0.4708748757839203,0.28512635827064514,-0.08665136247873306,0.9999070167541504,0.5204199552536011,0.46247369050979614,-0.006222006864845753,0.9998382925987244,0.48702535033226013,0.4631887972354889,0.006203192286193371,0.9998489022254944,0.5175535082817078,0.5673170685768127,0.038956549018621445,0.9848002791404724,0.4850592613220215,0.5756732821464539,0.04439761862158775,0.9872644543647766,0.5139359831809998,0.6312236785888672,0.24730071425437927,0.975104570388794,0.48907843232154846,0.67418372631073,0.18056300282478333,0.9859252572059631,0.5438535809516907,0.4560829997062683,-0.09612349420785904,0.937732458114624,0.4648740887641907,0.46104201674461365,-0.11640296876430511,0.8948673009872437,179.7661240339946,0.5037226527929306,0.4628312438726425,130.37189272618141,144.56209757508515,0.6216985086267554,-0.0015341822780947016,0.022562291651994273,0.025388429273129176,0.3827921954382144,176.79772348424254,3.6321326485167864,7,1762115358.574076
0.4981869161128998,0.21128593385219574,-0.23264916241168976,0.9999853372573853,0.5380464792251587,0.28289997577667236,-0.09549925476312637,0.9999289512634277,0.4697849154472351,0.2871156930923462,-0.09385257214307785,0.9999117851257324,0.5204268097877502,0.46644139289855957,-0.004579099826514721,0.9998143911361694,0.4869288504123688,0.46766915917396545,0.004527009557932615,0.9998586177825928,0.5167781114578247,0.571441113948822,0.06794900447130203,0.9848185181617737,0.48460450768470764,0.583126425743103,0.0031445224303752184,0.9877786040306091,0.514008104801178,0.6299639344215393,0.30942264199256897,0.9694569706916809,0.48843473196029663,0.6903422474861145,0.10178704559803009,0.9856307506561279,0.5439730286598206,0.45882976055145264,-0.1049969345331192,0.9382042288780212,0.4637669622898102,0.4640815258026123,-0.12793263792991638,0.8960318565368652,179.92513610276947,0.5036778301000595,0.4670552760362625,138.25314038960514,136.6177224423684,0.6273416189644919,-0.0005386680572707295,0.05076337572956571,0.011963844137139358,0.33891366626904806,176.46599918102837,0.4478691219116748,8,1762115358.6572862
0.49763160943984985,0.2130938023328781,-0.2513889968395233,0.9999849200248718,0.5380170941352844,0.2854670584201813,-0.11064346879720688,0.9999105334281921,0.46884259581565857,0.29009300470352173,-0.10970375686883926,0.9999169707298279,0.5205133557319641,0.4687333106994629,-0.00404859846457839,0.9997710585594177,0.48687487840652466,0.4700637757778168,0.003985061775892973,0.9998667240142822,0.5164527297019958,0.57108074426651,0.07297657430171967,0.9842873811721802,0.4842166304588318,0.587020754814148,-0.0006379279657267034,0.9880958795547485,0.5139884948730469,0.6261124610900879,0.32519203424453735,0.9599588513374329,0.48822951316833496,0.7007141709327698,0.09549404680728912,0.984986424446106,0.5433739423751831,0.46168428659439087,-0.12921524047851562,0.9286271333694458,0.46253809332847595,0.4699206054210663,-0.13974112272262573,0.8939832448959351,-179.91662928635412,0.5036941170692444,0.46939854323863983,139.2613287425078,137.42644331748812,0.6449776980659053,0.00018776558608974816,0.027014537488524483,0.008374746538328023,-0.2737903216161713,176.17412257691663,0.34085377742681044,9,1762115358.7440271
0.4968387484550476,0.2182164043188095,-0.2731112539768219,0.99998539686203,0.5380173921585083,0.2900187373161316,-0.12888462841510773,0.9999037981033325,0.46790987253189087,0.2947574555873871,-0.11950182914733887,0.9999228715896606,0.520696222782135,0.4722778797149658,-0.004463926889002323,0.9997301697731018,0.48687124252319336,0.47427570819854736,0.0043876925483345985,0.9998742938041687,0.5163403153419495,0.5724263191223145,0.08453210443258286,0.9837414026260376,0.4845084547996521,0.5918087363243103,0.0010964132379740477,0.98817378282547,0.5139955878257751,0.6233786940574646,0.3415951132774353,0.9474688172340393,0.48892027139663696,0.7127123475074768,0.09350062906742096,0.9840375185012817,0.5433255434036255,0.4659968614578247,-0.16375413537025452,0.9218049049377441,0.461778461933136,0.474898099899292,-0.15647457540035248,0.8937966227531433,-179.74023825090322,0.5037837326526642,0.4732767939567566,142.81936361230078,140.90514959350054,0.6656680463603905,0.0010294842650160226,0.04455249787735203,0.009669480490523921,0.20147226153953857,176.13313652908255,0.7927162876364249,10,1762115358.8310761
0.49635037779808044,0.21892520785331726,-0.26180464029312134,0.9999858736991882,0.5378434658050537,0.29061222076416016,-0.1214301735162735,0.9999029636383057,0.4674076437950134,0.2964421510696411,-0.11654237657785416,0.9999275207519531,0.5207029581069946,0.47324830293655396,-0.004425064194947481,0.9997096061706543,0.4867168068885803,0.476107656955719,0.004349338356405497,0.9998815059661865,0.5163835287094116,0.5723555684089661,0.08877269923686981,0.9830332398414612,0.48457789421081543,0.5930774807929993,0.010362634435296059,0.988166093826294,0.5140005350112915,0.623207688331604,0.33352118730545044,0.9362242817878723,0.489283949136734,0.7143198847770691,0.09572704136371613,0.9830792546272278,0.5435240864753723,0.4658657908439636,-0.15359583497047424,0.923992931842804,0.4610300660133362,0.47787362337112427,-0.15250863134860992,0.896272599697113,-179.65704451343075,0.5037098824977875,0.4746779799461365,144.9602899721391,147.66609591497087,0.6552610998307267,-0.000731470592402624,0.013878458988055599,-0.017441895618238376,-0.30382004526859924,175.26844830896542,0.932730445796154,11,1762115358.9320374
0.49589666724205017,0.2224414348602295,-0.27370327711105347,0.9999867081642151,0.5376556515693665,0.293544739484787,-0.12319828569889069,0.9999062418937683,0.4664352834224701,0.3000350296497345,-0.1255027800798416,0.9999334812164307,0.5209301710128784,0.4755648672580719,-0.0015840766718611121,0.9996970295906067,0.486722856760025,0.47945454716682434,0.0014681119937449694,0.9998904466629028,0.5162860751152039,0.5737738013267517,0.12217017263174057,0.9813541769981384,0.48547887802124023,0.5974245071411133,-0.012267845682799816,0.9881409406661987,0.5140784978866577,0.620514452457428,0.3808647692203522,0.9167335629463196,0.4915885031223297,0.7269558310508728,0.05772463604807854,0.9822033643722534,0.5436159372329712,0.4694010019302368,-0.16490554809570312,0.924191415309906,0.46083489060401917,0.48019951581954956,-0.16591165959835052,0.8995881080627441,-179.43535171637367,0.5038265138864517,0.4775097072124481,151.78426491470083,144.85136303316156,0.6684019281620032,0.0013594885946775163,0.033007417350319035,0.024372814208316607,0.22297257212998003,174.79303547151173,0.912410118256652,12,1762115359.017828
0.4938444495201111,0.22851526737213135,-0.29198676347732544,0.999987781047821,0.5373378992080688,0.2972649037837982,-0.1319684237241745,0.9999133944511414,0.4648140072822571,0.3048754632472992,-0.14095458388328552,0.999939501285553,0.5209327936172485,0.4824199974536896,0.0056848786771297455,0.9997057914733887,0.486588716506958,0.48657530546188354,-0.0058402069844305515,0.9998997449874878,0.5161079168319702,0.5775224566459656,0.14998707175254822,0.9793034195899963,0.4859534800052643,0.606404185295105,-0.015566086396574974,0.988556981086731,0.514165997505188,0.6194599866867065,0.423048734664917,0.8985451459884644,0.4934422969818115,0.7342215776443481,0.05172470211982727,0.9820356965065002,0.5438117980957031,0.47804760932922363,-0.17519046366214752,0.9262447953224182,0.4600828289985657,0.48707741498947144,-0.1817413866519928,0.902276337146759,-179.16142968748028,0.5037607550621033,0.48449765145778656,155.31714931416326,147.43833209711346,0.6937804019287024,-0.0007720909335214485,0.08204721494395736,-0.025027412580881203,0.575788625768942,174.00938371895828,0.9676883541198508,13,1762115359.1029978
0.4921964704990387,0.23091129958629608,-0.2895069122314453,0.9999887943267822,0.5360684990882874,0.30072155594825745,-0.12522196769714355,0.9999182820320129,0.4625600278377533,0.31051105260849,-0.14659522473812103,0.9999450445175171,0.5207532644271851,0.48958298563957214,0.011720197275280952,0.9997048377990723,0.486086905002594,0.4955573081970215,-0.01188393123447895,0.9999078512191772,0.5157793760299683,0.5885273218154907,0.15945325791835785,0.9745416045188904,0.48604875802993774,0.617840051651001,-0.012064081616699696,0.9887501001358032,0.5140739679336548,0.6200389266014099,0.4303057789802551,0.8748599886894226,0.49476104974746704,0.744248628616333,0.05292993783950806,0.9816759824752808,0.5438231229782104,0.48488372564315796,-0.15912535786628723,0.9201437830924988,0.4589416980743408,0.49831441044807434,-0.1870071291923523,0.9039673805236816,-178.74189042699595,0.5034200847148895,0.4925701469182968,152.7976883302235,152.48929595199354,0.697032011452373,-0.00445628003730005,0.10559563127839997,-0.04819256648277057,0.30803484506200957,172.41426559176344,1.1716049156361854,14,1762115359.179445
0.48940983414649963,0.2296631634235382,-0.2840956747531891,0.9999893307685852,0.5349262356758118,0.30236515402793884,-0.12340094149112701,0.999919593334198,0.4599286615848541,0.314473032951355,-0.13877131044864655,0.9999492764472961,0.5206934809684753,0.49420514702796936,0.008122503757476807,0.999701201915741,0.4853225648403168,0.5006276965141296,-0.008260678499937057,0.9999147653579712,0.5154361128807068,0.5993580222129822,0.13698847591876984,0.9700939655303955,0.48602932691574097,0.625244677066803,-0.005869386717677116,0.9883324503898621,0.5140846967697144,0.620269775390625,0.42254653573036194,0.8432993292808533,0.4949876666069031,0.7488097548484802,0.06966785341501236,0.9802959561347961,0.5438578128814697,0.4883519411087036,-0.15250253677368164,0.913087010383606,0.4579743444919586,0.5058495402336121,-0.17410852015018463,0.9030529260635376,-178.3087037213714,0.5030080229043961,0.4974164217710495,144.94584705316322,149.50756571725296,0.6987536130868035,-0.005796166435264369,0.06816893709211153,-0.01884718352726635,-0.5264534181551078,170.82909325740877,1.4668498678596702,15,1762115359.2505372
0.4883136749267578,0.228443443775177,-0.24437788128852844,0.9999895691871643,0.53429114818573,0.3029996454715729,-0.10593364387750626,0.9999161958694458,0.45881563425064087,0.31526562571525574,-0.12615199387073517,0.9999531507492065,0.5206292867660522,0.4949100911617279,0.00640177121385932,0.999686598777771,0.48509925603866577,0.5019458532333374,-0.006530913058668375,0.9999209642410278,0.5153111815452576,0.5973693132400513,0.13720329105854034,0.9587427377700806,0.4860133230686188,0.6259711384773254,-0.00182334054261446,0.9873767495155334,0.514153242111206,0.6167610883712769,0.39431917667388916,0.8018843531608582,0.4950588345527649,0.7496972680091858,0.05301966518163681,0.9776729941368103,0.5438345074653625,0.48785388469696045,-0.12473414093255997,0.9000173807144165,0.4576789438724518,0.5046356916427612,-0.14010319113731384,0.9013020992279053,-178.09053445099372,0.502864271402359,0.49842797219753265,146.20894401871166,158.01286329070084,0.6528122107043624,-0.0017562786917717241,0.012358580150537134,0.0493571799981421,-0.6818609843213981,170.769219411854,1.5998029155707905,16,1762115359.3323872
0.48522695899009705,0.22777768969535828,-0.24793720245361328,0.9999893307685852,0.533161997795105,0.30319467186927795,-0.10710860788822174,0.9999144077301025,0.45686012506484985,0.3171318769454956,-0.11865414679050446,0.9999558925628662,0.5203782916069031,0.49744030833244324,0.006126925349235535,0.999681830406189,0.4839538633823395,0.5037416815757751,-0.006266685668379068,0.9999256134033203,0.5153080821037292,0.6075661182403564,0.09196509420871735,0.9497371912002563,0.4853087365627289,0.6310538053512573,-0.0015433510998263955,0.9867347478866577,0.5141810178756714,0.6174371838569641,0.3749968409538269,0.7569203972816467,0.494887113571167,0.7525405883789062,0.07482841610908508,0.9760227799415588,0.5438238382339478,0.4912257790565491,-0.1178683489561081,0.8893671035766602,0.45672887563705444,0.508689284324646,-0.12909525632858276,0.8951852321624756,-177.84821523428087,0.5021660774946213,0.5005909949541092,129.90989137694092,149.81986355703512,0.6580287267036179,-0.009333814084686608,0.02891639707405696,-0.10130037772281461,0.22135338492593318,169.6485403039178,1.6928312604853148,17,1762115359.4071898
0.48266443610191345,0.22759674489498138,-0.2502451539039612,0.9999889731407166,0.5321367979049683,0.30258995294570923,-0.10818637907505035,0.9999103546142578,0.4541570544242859,0.31675752997398376,-0.1051592081785202,0.9999567866325378,0.5197983980178833,0.5010342597961426,-0.0019856325816363096,0.9996705055236816,0.4821506440639496,0.507034957408905,0.0019197516376152635,0.9999279379844666,0.5152113437652588,0.6173545122146606,0.04072706773877144,0.9452084302902222,0.484468549489975,0.6399118304252625,0.0002451078617013991,0.9859198927879333,0.5141680836677551,0.6184186339378357,0.337444931268692,0.7224945425987244,0.49498486518859863,0.7538596391677856,0.09321925044059753,0.9746742248535156,0.5438008308410645,0.4928707182407379,-0.10542559623718262,0.870812177658081,0.45575150847435,0.513226330280304,-0.10900355875492096,0.8778836727142334,-177.69374403167302,0.5009745210409164,0.5040346086025238,110.36135255916656,139.9885960160262,0.6538374669655362,-0.015476743465873901,0.04472798990462034,-0.07978853361585343,0.2053716928514905,169.70266308901563,1.6522530749822957,18,1762115359.48418
0.4805130064487457,0.2225089818239212,-0.24974024295806885,0.9999878406524658,0.5306345224380493,0.30204445123672485,-0.10629850625991821,0.9999032020568848,0.45138660073280334,0.3151249885559082,-0.09001142531633377,0.9999494552612305,0.5192108154296875,0.5021926760673523,-0.009067918173968792,0.9996573328971863,0.4805108606815338,0.5073519945144653,0.009072879329323769,0.9999228715896606,0.5149514675140381,0.6318106651306152,-0.03272811323404312,0.9413592219352722,0.48249179124832153,0.643692672252655,0.009890327230095863,0.9828240871429443,0.5141367316246033,0.6190927624702454,0.2705335021018982,0.6850311756134033,0.49498286843299866,0.7554953694343567,0.14359739422798157,0.971538245677948,0.5436408519744873,0.4918602406978607,-0.10219347476959229,0.8486363291740417,0.45545777678489685,0.5118944644927979,-0.09981830418109894,0.8367650508880615,-177.41706462365116,0.49986083805561066,0.5047723352909088,77.26606303759506,130.19186266073012,0.6521310160942175,-0.015015638862815189,0.009946670352702164,0.006217011742897645,-0.46895188348448846,170.62735602334072,1.5156735441170706,19,1762115359.5583482
0.4783686697483063,0.21564331650733948,-0.24561293423175812,0.9999876022338867,0.5293782949447632,0.2998478412628174,-0.10389524698257446,0.9998973608016968,0.44886356592178345,0.3140988349914551,-0.08364971727132797,0.9999421834945679,0.5191725492477417,0.5042721033096313,-0.012068917974829674,0.9996546506881714,0.47944387793540955,0.5101081728935242,0.012058555148541927,0.9999201893806458,0.5151754021644592,0.640007734298706,-0.04563472047448158,0.9417150020599365,0.4797077775001526,0.6456841230392456,0.009652946144342422,0.9815149903297424,0.5152066349983215,0.6326158046722412,0.26391807198524475,0.6701688766479492,0.4949547350406647,0.7556631565093994,0.1566210389137268,0.970837414264679,0.5437055230140686,0.4925168752670288,-0.1002136617898941,0.8386406302452087,0.45389753580093384,0.5142104625701904,-0.09302255511283875,0.8098809719085693,-177.08723040904425,0.4993082135915756,0.5071901381015778,74.74873531409501,125.6596732763717,0.6614385498294025,-0.007287448438050204,0.0318835202978017,0.10191150212332573,0.28928082861352045,169.96268408858504,1.333397413082872,20,1762115359.6341805
0.4784289002418518,0.2139538824558258,-0.24599790573120117,0.9999869465827942,0.5289639234542847,0.2986948490142822,-0.10454070568084717,0.9998875856399536,0.4483449459075928,0.3134515881538391,-0.08819358050823212,0.9999362230300903,0.5189226865768433,0.5060445666313171,-0.011914714239537716,0.999652087688446,0.47862857580184937,0.5122585296630859,0.011905582621693611,0.9999167919158936,0.5153933763504028,0.6404129862785339,-0.03980833664536476,0.9424067735671997,0.4796511232852936,0.6471095085144043,0.012606488540768623,0.9805734157562256,0.5155707001686096,0.6379180550575256,0.2773565948009491,0.6609875559806824,0.4948660433292389,0.7545864582061768,0.17275673151016235,0.9704276323318481,0.5433215498924255,0.4927581250667572,-0.10792718827724457,0.8237577080726624,0.45287713408470154,0.5164015293121338,-0.1072814017534256,0.7924017906188965,-177.14680331960204,0.4987756311893463,0.5091515481472015,77.82533262023173,124.08169129183221,0.6747012704786868,-0.007131517953203865,0.026264162870213995,0.002087979338931772,-0.0752457238777797,169.6272372051321,1.3149325941615504,21,1762115359.7088606
0.4786507487297058,0.2102285772562027,-0.28951823711395264,0.9999852180480957,0.5290641784667969,0.2971266508102417,-0.12669196724891663,0.9998769164085388,0.44679322838783264,0.31307634711265564,-0.08852797746658325,0.9999164938926697,0.5189304947853088,0.5091488361358643,-0.01404164731502533,0.9996423721313477,0.477835088968277,0.5159826874732971,0.014073992148041725,0.999899685382843,0.5165359973907471,0.6472474932670593,-0.05795843154191971,0.9448833465576172,0.47967615723609924,0.6499944925308228,0.015608412213623524,0.9798299074172974,0.5178672671318054,0.659639835357666,0.2801511287689209,0.6736834645271301,0.49481114745140076,0.7547489404678345,0.22197076678276062,0.9702700972557068,0.5431033968925476,0.49627435207366943,-0.1476554572582245,0.7977104783058167,0.4514983296394348,0.5199397802352905,-0.12746337056159973,0.759966254234314,-177.1153154281979,0.4983827918767929,0.5125657618045807,74.45661841644848,117.55982993901313,0.7348248245909815,-0.004680624561463314,0.04067987034938058,0.029202046333765014,0.17176110521954055,169.028292707512,1.269604497036239,22,1762115359.7927895
0.4787719249725342,0.20709410309791565,-0.3210580348968506,0.9999843239784241,0.5291551351547241,0.29571595788002014,-0.15513542294502258,0.9998718500137329,0.44579610228538513,0.31247806549072266,-0.13403141498565674,0.9998969435691833,0.5189441442489624,0.5104262232780457,-0.01248685922473669,0.9996384382247925,0.4774390757083893,0.5179603695869446,0.012494055554270744,0.9998762011528015,0.5172315835952759,0.64598149061203,-0.012528320774435997,0.9468666911125183,0.47995877265930176,0.6472793221473694,0.04571162909269333,0.9787952303886414,0.5180833339691162,0.6895291209220886,0.2935924530029297,0.6952304840087891,0.4949263036251068,0.754375696182251,0.2551809251308441,0.9701297283172607,0.5431254506111145,0.500794529914856,-0.17637786269187927,0.7936651110649109,0.4511827826499939,0.5229064226150513,-0.16850250959396362,0.738115668296814,-177.08015078080342,0.49819160997867584,0.5141932964324951,98.07595395098949,131.46417486808286,0.7876564018602038,-0.002701598638882806,0.022998753432272628,0.027965690221798473,-0.24985253241882505,168.63039990233966,1.3546300111317535,23,1762115359.8635557
0.4782719612121582,0.2045799046754837,-0.32444649934768677,0.999982476234436,0.5293635129928589,0.29537132382392883,-0.15118159353733063,0.9998584389686584,0.44478121399879456,0.31166109442710876,-0.1342131793498993,0.9998620748519897,0.5189526677131653,0.5159762501716614,-0.011644849553704262,0.9996397495269775,0.47686323523521423,0.522236168384552,0.011641115881502628,0.9998348951339722,0.5176969766616821,0.661040186882019,-0.025236377492547035,0.9492555260658264,0.48015037178993225,0.6538283228874207,0.0448855496942997,0.9773712158203125,0.5179511904716492,0.7283666133880615,0.2901172637939453,0.7174299955368042,0.49491724371910095,0.7549348473548889,0.28818479180336,0.9691179990768433,0.5429431796073914,0.5060369968414307,-0.1676665097475052,0.7642393708229065,0.4500892162322998,0.5282301306724548,-0.16614940762519836,0.7101629972457886,-177.1227260491731,0.49790795147418976,0.5191062092781067,96.69803926415383,126.76027688499889,0.815928985752013,-0.004573920866075136,0.07921946362392164,-0.030190717244620465,0.9065445787251619,169.09883270488447,1.4425249468071522,24,1762115359.9255722
0.4786287844181061,0.20388862490653992,-0.3129826784133911,0.999977707862854,0.5294870138168335,0.2956295609474182,-0.14253085851669312,0.9998357892036438,0.4438629746437073,0.31157711148262024,-0.1262729912996292,0.999821126461029,0.5190137624740601,0.5235508680343628,-0.010465221479535103,0.9996448755264282,0.476490318775177,0.5287198424339294,0.01045144908130169,0.9997999668121338,0.5183035135269165,0.6682097315788269,-0.007794269826263189,0.951638400554657,0.47916048765182495,0.6587320566177368,0.04195443540811539,0.9779548048973083,0.5181370377540588,0.7638745903968811,0.2861558496952057,0.7426281571388245,0.49489688873291016,0.7597516179084778,0.2914683520793915,0.9691300392150879,0.5423117280006409,0.5109732151031494,-0.13672316074371338,0.7042988538742065,0.4486478865146637,0.531461775302887,-0.09867946803569794,0.6579379439353943,-177.1503220115459,0.49775204062461853,0.5261353552341461,109.0845183126066,125.66476750500989,0.8211056152857792,-0.0020883497905063615,0.09415198188646466,0.03329301231587046,0.200013799367231,169.44950034985874,1.4226945191543536,25,1762115360.0002296
0.4788331091403961,0.20362652838230133,-0.31543415784835815,0.9999703168869019,0.5295552015304565,0.29566439986228943,-0.14577971398830414,0.9998078346252441,0.44348520040512085,0.31144294142723083,-0.1240575760602951,0.9997788071632385,0.5190428495407104,0.525628924369812,-0.010288995690643787,0.999640941619873,0.47608113288879395,0.529872715473175,0.010258316993713379,0.9997517466545105,0.5185866355895996,0.671610951423645,-0.010730955749750137,0.9541882872581482,0.47858238220214844,0.6592328548431396,0.03412803262472153,0.9782852530479431,0.5180719494819641,0.7637568116188049,0.2798989415168762,0.7653640508651733,0.4948883652687073,0.7589723467826843,0.29737764596939087,0.9684620499610901,0.5418300628662109,0.5136334896087646,-0.13823345303535461,0.6505600214004517,0.4475809633731842,0.5358598232269287,-0.11192329972982407,0.6183457970619202,-177.1804404825468,0.4975619912147522,0.5277508199214935,107.41785136118258,121.21366800611536,0.82264185365116,-0.0025675775789317716,0.021825013367347598,-0.006474392767794198,-0.9771411700378368,169.61175959029416,1.398288182091682,26,1762115360.0742486
0.47913026809692383,0.20342186093330383,-0.3228665590286255,0.9999651312828064,0.53057861328125,0.2969891428947449,-0.15356898307800293,0.9997817873954773,0.4431619644165039,0.3120339810848236,-0.133929044008255,0.9997525215148926,0.519087553024292,0.5328286290168762,-0.01020013727247715,0.9996455907821655,0.4755402207374573,0.5365886688232422,0.010148143395781517,0.999713659286499,0.5188881158828735,0.6759421825408936,-0.002971951849758625,0.9568332433700562,0.47780317068099976,0.6668686866760254,0.039574988186359406,0.9786004424095154,0.5200003385543823,0.7877753973007202,0.26801761984825134,0.787175714969635,0.49418726563453674,0.7584469318389893,0.3058776557445526,0.9671937227249146,0.541660726070404,0.5187960863113403,-0.1314009726047516,0.6001050472259521,0.44657525420188904,0.5431520938873291,-0.11064469814300537,0.5838955640792847,-177.40238216081204,0.49731388688087463,0.5347086489200592,115.31534375553278,121.70600132407323,0.8349857582982376,-0.0029880263592379367,0.08379610354184314,-0.005063644067113461,0.7463442820933694,170.23477829292202,1.1936688150007633,27,1762115360.1572814
0.4792930483818054,0.20270097255706787,-0.3454451560974121,0.9999630451202393,0.5328351259231567,0.2991821765899658,-0.16918550431728363,0.9997836351394653,0.4433456361293793,0.31333687901496887,-0.15813687443733215,0.99972003698349,0.5193111896514893,0.5391536355018616,-0.008132535964250565,0.9996698498725891,0.47512269020080566,0.5428773164749146,0.00806268397718668,0.9996976256370544,0.5211012959480286,0.6927779912948608,-0.002407329622656107,0.9604422450065613,0.47764116525650024,0.6785634756088257,0.05174380540847778,0.979282021522522,0.527618944644928,0.8352960348129272,0.2097952663898468,0.807843029499054,0.4937252402305603,0.7576906681060791,0.3559529185295105,0.9618704915046692,0.5451586842536926,0.5284613966941833,-0.164838045835495,0.5720657706260681,0.4424864649772644,0.5571251511573792,-0.15838442742824554,0.5528024435043335,-177.77364490870255,0.49721693992614746,0.5410154759883881,126.02371983718766,122.43204677951275,0.8650775177727283,-0.0010605432276506734,0.06899301534641586,0.021085542989653386,-0.16193716427872212,171.01189266587488,0.8075270280891782,28,1762115360.248694
0.48034173250198364,0.2031092494726181,-0.35702013969421387,0.9999603033065796,0.5355188846588135,0.30299776792526245,-0.17543227970600128,0.9997767210006714,0.4435945153236389,0.3160242736339569,-0.16606877744197845,0.9997179508209229,0.519442081451416,0.5481423139572144,-0.007225879468023777,0.999692440032959,0.474461168050766,0.5513232946395874,0.007135023362934589,0.9996863603591919,0.5236299633979797,0.7095967531204224,-0.0008561725844629109,0.96403968334198,0.4788643717765808,0.689098060131073,0.07981652766466141,0.9800314903259277,0.5313949584960938,0.8664523363113403,0.1969413012266159,0.8267703652381897,0.4937155842781067,0.7571936845779419,0.38320761919021606,0.9586070775985718,0.5455058813095093,0.5402024388313293,-0.18354037404060364,0.5382369160652161,0.4404638707637787,0.5681780576705933,-0.17591619491577148,0.5454490184783936,-178.23677848495515,0.496951624751091,0.5497328042984009,130.6932461372806,130.48904441690607,0.8889890753588329,-0.0030850271960611454,0.10136319909956365,-0.02354025961465293,0.3763934618466785,171.93437894764025,0.6538913154181628,29,1762115360.3346949
0.4822518229484558,0.20346686244010925,-0.36663684248924255,0.9999586343765259,0.53887540102005,0.3090493679046631,-0.18473824858665466,0.9997862577438354,0.44380155205726624,0.31946367025375366,-0.17093399167060852,0.9997172355651855,0.5197176933288574,0.5610237121582031,-0.007085959427058697,0.9997172355651855,0.47405800223350525,0.5614035129547119,0.006993885152041912,0.9996848106384277,0.5254536867141724,0.7268467545509338,0.006567123346030712,0.9673169851303101,0.48056483268737793,0.697860598564148,0.1011306494474411,0.9802963137626648,0.5327603220939636,0.8927888870239258,0.19369147717952728,0.8438323140144348,0.4938419461250305,0.7581595778465271,0.40635401010513306,0.9529470801353455,0.5488322973251343,0.5570595860481262,-0.20600168406963348,0.5275014638900757,0.4387604296207428,0.577305793762207,-0.18450133502483368,0.54420006275177,-178.71272354993786,0.49688784778118134,0.5612136125564575,136.29437053889458,135.8131072909657,0.9123005161858331,-0.0008348131110909994,0.1502788431830878,0.02945433474740778,0.6402847466134726,173.7487956214652,0.5391468915447755,30,1762115360.4110916
0.4830094873905182,0.20363464951515198,-0.35836976766586304,0.9999582767486572,0.5394188761711121,0.30928274989128113,-0.18088577687740326,0.9997981190681458,0.4438181519508362,0.32121896743774414,-0.1752835065126419,0.9997168779373169,0.5198588967323303,0.5641958713531494,-0.005686093121767044,0.9997397065162659,0.47374629974365234,0.5638229250907898,0.005583879537880421,0.9996850490570068,0.527022659778595,0.7324298620223999,0.02655285969376564,0.9702865481376648,0.4830074906349182,0.7009970545768738,0.10835660994052887,0.9801624417304993,0.5334138870239258,0.8944610357284546,0.1849764585494995,0.8592069149017334,0.4943183958530426,0.7577853798866272,0.3914312422275543,0.947198748588562,0.5530101656913757,0.5550590753555298,-0.20611920952796936,0.5470936298370361,0.43816429376602173,0.5775606632232666,-0.20009903609752655,0.5564382076263428,-178.8061388509501,0.49680259823799133,0.5640093982219696,146.50324629474227,138.22264260909375,0.8980543312450071,-0.0011918869188691887,0.039088307549742164,-0.004992303590566875,-1.55457190694935,172.88317028962354,0.5856354936022059,31,1762115360.4826164
0.4849433898925781,0.20540277659893036,-0.39737647771835327,0.9999596476554871,0.5422408580780029,0.3155132830142975,-0.2083589732646942,0.9998088479042053,0.4439936578273773,0.32508644461631775,-0.18974269926548004,0.9997291564941406,0.5202222466468811,0.5751728415489197,-0.009257758036255836,0.9997591376304626,0.4739122986793518,0.5725489854812622,0.009096973575651646,0.9996762275695801,0.5275691747665405,0.7392055988311768,0.023022713139653206,0.973133385181427,0.4837246537208557,0.6986426711082458,0.13262474536895752,0.9796095490455627,0.5339423418045044,0.9134258031845093,0.18457137048244476,0.8731714487075806,0.49511685967445374,0.7575165629386902,0.4367609918117523,0.9407783150672913,0.5531092882156372,0.5698801279067993,-0.2650375962257385,0.5545309782028198,0.43829092383384705,0.5852950811386108,-0.22821810841560364,0.581804633140564,-179.10750934651736,0.49706727266311646,0.5738609135150909,148.29764917970175,145.38703975637432,0.9482541576328275,0.0035505821019637947,0.13215713554660014,0.06361976838724451,1.2485094273093245,174.43469465352266,0.44463688720918715,32,1762115360.5571604
0.48874640464782715,0.2072092741727829,-0.3793972432613373,0.9999584555625916,0.5469423532485962,0.3249650001525879,-0.20895370841026306,0.9997962713241577,0.4440341591835022,0.3315250873565674,-0.18469637632369995,0.9997264742851257,0.5210319757461548,0.5891404747962952,-0.0163751058280468,0.9997674226760864,0.4740367531776428,0.5835030674934387,0.016268650069832802,0.9996352791786194,0.5283607244491577,0.7498307228088379,0.019036877900362015,0.9757882356643677,0.484585702419281,0.6950764060020447,0.16662631928920746,0.9784801602363586,0.5354159474372864,0.938787579536438,0.14425070583820343,0.8857622146606445,0.4965488016605377,0.7573499083518982,0.44460946321487427,0.9388418793678284,0.5551227927207947,0.5793710350990295,-0.2628159821033478,0.5587541460990906,0.43854793906211853,0.5938331484794617,-0.21129193902015686,0.5969131588935852,-179.54575171559878,0.4975343644618988,0.5863217711448669,158.89456967688008,156.06256770214412,0.9303149604977142,0.005451432753257017,0.14543078596909104,0.02218484573380053,0.15491689825658575,176.35250215669006,0.21514969317275626,33,1762115360.6428428
0.4933633804321289,0.20855556428432465,-0.3648824691772461,0.9999585151672363,0.551317572593689,0.32986944913864136,-0.19814488291740417,0.9997915625572205,0.4452585279941559,0.3355863392353058,-0.18933671712875366,0.9997233152389526,0.5236445665359497,0.6016302108764648,-0.015046626329421997,0.9997771382331848,0.47443094849586487,0.593985378742218,0.01494690589606762,0.9996110796928406,0.5293168425559998,0.762753963470459,0.0349683053791523,0.9780858159065247,0.4840514063835144,0.7081028819084167,0.17047114670276642,0.9747661352157593,0.5347350835800171,0.9476180076599121,0.17103157937526703,0.8969093561172485,0.49730533361434937,0.757142961025238,0.4332345426082611,0.9300156235694885,0.5589742064476013,0.5927375555038452,-0.23100626468658447,0.5777254104614258,0.4392009377479553,0.605661153793335,-0.21468183398246765,0.6152951121330261,-179.83795472588093,0.4990377575159073,0.5978077948093414,160.88638868459842,154.33181395393945,0.9273260359965955,0.01916680598194474,0.14643568193562115,0.17485773061362908,0.012811450718870219,176.91457725827803,0.08029350616888219,34,1762115360.72128
0.49821940064430237,0.20860882103443146,-0.363771915435791,0.9999586939811707,0.5574854016304016,0.33210432529449463,-0.1989682912826538,0.9997979402542114,0.447810560464859,0.33581024408340454,-0.19136101007461548,0.9997262358665466,0.5271114110946655,0.6115450263023376,-0.014283934608101845,0.9997857213020325,0.4752882421016693,0.6032765507698059,0.014195641502737999,0.9995735883712769,0.5301976799964905,0.7757054567337036,0.03048616275191307,0.9801285862922668,0.4830801486968994,0.7220340371131897,0.16528818011283875,0.969578206539154,0.5345395803451538,0.9572689533233643,0.17808358371257782,0.9067113399505615,0.4972439706325531,0.7571385502815247,0.4430382251739502,0.9132155179977417,0.5631079077720642,0.6075528264045715,-0.24102497100830078,0.5985250473022461,0.4400094151496887,0.6176735758781433,-0.21912333369255066,0.6345308423042297,179.69657597650277,0.5011998265981674,0.6074107885360718,156.14711641782887,149.06222477861735,0.9357950892244775,0.030814627167944326,0.13686550250095145,0.1660091576677364,-0.13639782078628032,178.0647088517836,0.1564919148035867,35,1762115360.7914438
0.49938902258872986,0.20872631669044495,-0.3698422610759735,0.9999605417251587,0.5594996809959412,0.3343472182750702,-0.20176663994789124,0.9998081922531128,0.4484347701072693,0.33690789341926575,-0.19766117632389069,0.999732255935669,0.5286906361579895,0.616580605506897,-0.013929598033428192,0.9997936487197876,0.4760662019252777,0.6070583462715149,0.013827105984091759,0.9995436072349548,0.5307837724685669,0.7812047600746155,0.029367167502641678,0.9819703698158264,0.4831817150115967,0.7300789952278137,0.154748797416687,0.9650043249130249,0.5346556901931763,0.9556708335876465,0.1638781726360321,0.9154738187789917,0.4971824586391449,0.7570465803146362,0.45011472702026367,0.8967756032943726,0.5657600164413452,0.6112987995147705,-0.2563672661781311,0.6275903582572937,0.44031086564064026,0.6207563877105713,-0.22662103176116943,0.6558891534805298,179.67040707289874,0.5023784190416336,0.6118194758892059,157.10056033558445,144.1252751261921,0.9369160026953074,0.019536328966348528,0.0730783290849092,-0.18694888556976727,-1.0573351378568168,178.67924181176835,0.17777192850479812,36,1762115360.851772
0.5024298429489136,0.2082727700471878,-0.34614259004592896,0.9999613761901855,0.5608448386192322,0.33159521222114563,-0.17216220498085022,0.9998154044151306,0.4497446119785309,0.335790753364563,-0.18812867999076843,0.9997352957725525,0.5305911302566528,0.616709291934967,-0.007815780118107796,0.9998006820678711,0.4762568473815918,0.6109966039657593,0.007821639068424702,0.9995075464248657,0.5312925577163696,0.7890864610671997,0.029261868447065353,0.9832407832145691,0.4833834767341614,0.7529017925262451,0.1370948851108551,0.9595221281051636,0.5355924963951111,0.9616135358810425,0.1654709130525589,0.9223840236663818,0.49641650915145874,0.7611812949180603,0.44146671891212463,0.8541940450668335,0.5682622194290161,0.6050081849098206,-0.16541582345962524,0.6503172516822815,0.44044938683509827,0.6249927878379822,-0.221659854054451,0.6774303317070007,179.61741959879146,0.5034239888191223,0.6138529479503632,153.83213587570032,133.92803858834185,0.9212768599058726,0.014276999882800291,0.02776656422544015,-0.07181485380131622,-0.6187210796604155,177.8373345006808,0.21583381586216718,37,1762115360.9250066
0.5062636733055115,0.2050502598285675,-0.31772562861442566,0.9999625086784363,0.5623853206634521,0.3296605944633484,-0.14820066094398499,0.9998283982276917,0.45027655363082886,0.3349513113498688,-0.14711223542690277,0.9997352957725525,0.5343159437179565,0.6187608242034912,-0.006330494768917561,0.9998031258583069,0.47688722610473633,0.6167131066322327,0.00640275701880455,0.9994284510612488,0.5331918001174927,0.8030828833580017,0.01389344036579132,0.98349529504776,0.4867568910121918,0.7965710759162903,0.07807115465402603,0.9530560374259949,0.5360809564590454,0.9679723381996155,0.1749042570590973,0.9251440763473511,0.49902185797691345,0.7650314569473267,0.4215465188026428,0.7906764149665833,0.5701879262924194,0.6052431464195251,-0.1778511106967926,0.6725167632102966,0.4406089186668396,0.627810537815094,-0.16641610860824585,0.6896492838859558,179.85359434642234,0.5056015849113464,0.6177369654178619,141.92747823299771,106.554622922363,0.9039033890828582,0.029835071684529275,0.05321461586957303,0.21315991020334,0.34866174114908594,177.29806139776224,0.09624522327449345,38,1762115360.9979944
0.5075780153274536,0.19724439084529877,-0.35373514890670776,0.999964714050293,0.56446373462677,0.3288801312446594,-0.1562168300151825,0.999843180179596,0.45046019554138184,0.33453094959259033,-0.1495412290096283,0.999741792678833,0.5395424962043762,0.6227631568908691,-0.005858418066054583,0.9998127818107605,0.47803014516830444,0.6224287748336792,0.005930270534008741,0.9994112253189087,0.5363129377365112,0.8144424557685852,-0.006426894571632147,0.982245147228241,0.48652711510658264,0.8170169591903687,-0.008141212165355682,0.9498565196990967,0.5359287261962891,0.969824492931366,0.2420159876346588,0.9259464740753174,0.5049514770507812,0.7709571719169617,0.41352424025535583,0.7246368527412415,0.5763163566589355,0.6080530881881714,-0.208741694688797,0.6908391118049622,0.44076499342918396,0.6295579075813293,-0.17361149191856384,0.6956847310066223,-179.7391476113268,0.5087863206863403,0.6225959658622742,121.84868064331245,79.75990418505481,0.957987989678765,0.03896102949111708,0.05944344303177201,0.11164402209719863,0.07620146093971344,177.1623400416404,0.14680684648017567,39,1762115361.079736
0.5096175074577332,0.18448729813098907,-0.34358251094818115,0.9999644756317139,0.5673400163650513,0.3274887800216675,-0.1440320909023285,0.9998550415039062,0.4506716728210449,0.330336332321167,-0.12634918093681335,0.9997327923774719,0.5423341393470764,0.6293786764144897,-0.0059885624796152115,0.9998164176940918,0.4787368178367615,0.6301724910736084,0.006044804118573666,0.9993759393692017,0.5393142104148865,0.825078010559082,-0.034147895872592926,0.9790875315666199,0.48611778020858765,0.8399897217750549,-0.0343751423060894,0.9451627135276794,0.5361131429672241,0.9687386155128479,0.2730080485343933,0.9156508445739746,0.5059026479721069,0.8026822209358215,0.3830006718635559,0.6636713147163391,0.5803598761558533,0.6148509383201599,-0.2292269915342331,0.7061781287193298,0.4408862590789795,0.631123423576355,-0.17569704353809357,0.6939793825149536,-179.70870193683874,0.510535478591919,0.6297755837440491,106.88350625356969,74.11333614882616,0.9710162360072747,0.021387778662072223,0.08778857394402124,-0.21487642591099185,0.34658928400069566,178.60184572864696,0.184451032779942,40,1762115361.161519
0.5107414126396179,0.18065276741981506,-0.3071625530719757,0.9999639391899109,0.5690409541130066,0.3258444666862488,-0.1139492392539978,0.9998612403869629,0.45073795318603516,0.32780152559280396,-0.10132379829883575,0.9997297525405884,0.5441278219223022,0.6344179511070251,-0.005005807615816593,0.9998226761817932,0.47969675064086914,0.6347640752792358,0.0050729927606880665,0.9993787407875061,0.5407852530479431,0.8296254277229309,-0.040114711970090866,0.9769802689552307,0.4853631556034088,0.8445971012115479,-0.057086002081632614,0.9446291923522949,0.5360428094863892,0.9685637354850769,0.2949792146682739,0.9065045118331909,0.5055530071258545,0.7964972853660583,0.3783426284790039,0.609231173992157,0.5818452835083008,0.61592036485672,-0.1498505175113678,0.7035261392593384,0.44091981649398804,0.6336069107055664,-0.11685575544834137,0.6906370520591736,-179.6234238218893,0.5119122862815857,0.6345910131931305,102.33412692856669,67.30332381778881,0.9524926066572339,0.01645607675845423,0.05755566099299268,-0.05894538916716554,-0.3613541236642955,179.05225575278155,0.26186539150048616,41,1762115361.2451847
0.5108759999275208,0.17149481177330017,-0.28602132201194763,0.9999604225158691,0.5712213516235352,0.32218286395072937,-0.08417393267154694,0.9998568892478943,0.4506057798862457,0.32501220703125,-0.1064692884683609,0.9997222423553467,0.5457202196121216,0.6435320377349854,0.0017752386629581451,0.9997844696044922,0.4796736240386963,0.6421244144439697,-0.0017298187594860792,0.9993103742599487,0.5427732467651367,0.8510958552360535,-0.02790151908993721,0.9697234034538269,0.48524489998817444,0.8695339560508728,-0.02459617145359516,0.9347671270370483,0.5358833074569702,0.9799572229385376,0.3180043399333954,0.8715522885322571,0.5010958909988403,0.9636874794960022,0.3262048363685608,0.5732962489128113,0.5868732929229736,0.6234743595123291,-0.06350381672382355,0.7153388857841492,0.4401322305202484,0.6426973938941956,-0.1345963031053543,0.6969501972198486,-179.67992515661922,0.5126969218254089,0.6428282260894775,102.30702972572095,99.33188988833959,1.0051861817087582,0.010221798427750117,0.10730985932991467,-0.08121673424127167,0.6481702114286143,178.65622911772016,0.3979350180522101,42,1762115361.3219457
0.5101595520973206,0.16560108959674835,-0.24898329377174377,0.9999608397483826,0.5736554861068726,0.31790977716445923,-0.05110862851142883,0.9998589754104614,0.4505196213722229,0.32164686918258667,-0.0801829844713211,0.999732494354248,0.5460247993469238,0.6507790684700012,0.005580855533480644,0.9997169375419617,0.47964248061180115,0.6499962210655212,-0.005570426117628813,0.9992292523384094,0.542717695236206,0.8771998882293701,-0.059021979570388794,0.9517691731452942,0.4856838583946228,0.8944449424743652,-0.03048754297196865,0.9137241840362549,0.5359643697738647,1.0046337842941284,0.27502113580703735,0.8141087293624878,0.4963788092136383,1.0531455278396606,0.22456753253936768,0.5427132844924927,0.5898371338844299,0.6375706195831299,-0.02642788551747799,0.7369973659515381,0.43681177496910095,0.6493740677833557,-0.11449621617794037,0.7166221141815186,-179.8707008020179,0.5128336399793625,0.6503876447677612,94.9705271635774,116.09976437359191,0.997036817640213,0.0017525274597654076,0.09690072920423219,-0.10856370940050653,-0.13342987635517237,178.26164459505188,0.3783758203867319,43,1762115361.3999577
0.5093990564346313,0.15928153693675995,-0.2643483281135559,0.9999608397483826,0.5764637589454651,0.3138755261898041,-0.06882736086845398,0.9998607039451599,0.45033329725265503,0.3193279802799225,-0.09164921939373016,0.9997426867485046,0.5480870008468628,0.6550546288490295,0.0076563479378819466,0.9996717572212219,0.47983235120773315,0.656168520450592,-0.007663554511964321,0.9992060661315918,0.5459151864051819,0.8769153356552124,-0.04460792988538742,0.9382058382034302,0.4856685996055603,0.9020817279815674,-0.015705347061157227,0.8970553278923035,0.5375180244445801,0.9916415810585022,0.33755263686180115,0.7665560245513916,0.4956989884376526,1.0434091091156006,0.28319770097732544,0.5221893787384033,0.593377947807312,0.6426301002502441,-0.06613239645957947,0.7588564157485962,0.43560320138931274,0.6569964289665222,-0.1320149004459381,0.7369362711906433,-179.90516092285228,0.513959676027298,0.6556115746498108,93.46489741238025,113.45892346051671,1.0329286076199498,0.015142279355186212,0.0702483777059608,0.18005761366949785,-0.35840535709258514,177.5247198537945,0.6863242501958633,44,1762115361.4743214
0.5089200735092163,0.15262512862682343,-0.27717649936676025,0.9999635815620422,0.579352617263794,0.3085078001022339,-0.09141458570957184,0.9998676776885986,0.4496895372867584,0.31597772240638733,-0.09491859376430511,0.9997590184211731,0.5487987995147705,0.6557013392448425,0.006869001779705286,0.9996027946472168,0.47976741194725037,0.6564855575561523,-0.0068696290254592896,0.9991636276245117,0.5455194115638733,0.883955717086792,-0.04400549456477165,0.931183397769928,0.485696017742157,0.8965753316879272,0.0009458928252570331,0.8890272378921509,0.5374570488929749,0.9877969622612,0.32907968759536743,0.7379931807518005,0.49572834372520447,1.0084259510040283,0.28164568543434143,0.5274598598480225,0.5978204011917114,0.6507638096809387,-0.10591838508844376,0.7806938290596008,0.43429070711135864,0.664138913154602,-0.14024387300014496,0.7585938572883606,179.96034684977104,0.5142831057310104,0.6560934484004974,93.00431886747141,113.61974520406392,1.026770618528286,0.003762846206121798,0.005606216107512864,-0.13239061335826102,-0.7520599058597189,176.70282037600526,0.24135494083447773,45,1762115361.5602748
0.5083824992179871,0.15432845056056976,-0.28321823477745056,0.99996417760849,0.5800957679748535,0.30562031269073486,-0.08334856480360031,0.9998710751533508,0.44866591691970825,0.3143523335456848,-0.09089259803295135,0.9997673630714417,0.5491815805435181,0.6644201874732971,0.005382088012993336,0.9995329976081848,0.47969850897789,0.6629671454429626,-0.005381420254707336,0.9990893602371216,0.5450580716133118,0.9048759341239929,-0.057207364588975906,0.9209125638008118,0.4856582581996918,0.9128919243812561,-0.0018648976692929864,0.8742758631706238,0.5399976968765259,1.0567739009857178,0.33097466826438904,0.6995139718055725,0.49409738183021545,1.0783123970031738,0.28874117136001587,0.512437105178833,0.5985536575317383,0.6571409702301025,-0.09629368782043457,0.7995495200157166,0.4327867925167084,0.6679005026817322,-0.14400321245193481,0.7773377895355225,-179.99041003041427,0.514440044760704,0.6636936664581299,96.79076954792471,120.47504334610433,1.0889331905581137,0.001848653354677451,0.089526286966046,-0.022548113386649898,0.9885311564642598,176.19893239015002,0.0350231947322784,46,1762115361.6451685
0.5081000328063965,0.1511334478855133,-0.3207269608974457,0.999962329864502,0.5820916295051575,0.3031925857067108,-0.09219780564308167,0.9998683333396912,0.44704991579055786,0.313833624124527,-0.09337642788887024,0.9997726678848267,0.5497232675552368,0.6687749624252319,0.008434378542006016,0.9993826150894165,0.4796057641506195,0.6675411462783813,-0.008418952114880085,0.9989525675773621,0.5450655817985535,0.9070749878883362,-0.04774688929319382,0.9071662425994873,0.48582449555397034,0.9131563901901245,-0.004444503225386143,0.8600813746452332,0.5406061410903931,1.0495076179504395,0.39919838309288025,0.661845862865448,0.4919968545436859,1.0847771167755127,0.3048434257507324,0.5013435482978821,0.6015981435775757,0.6621794700622559,-0.10286711156368256,0.8147355318069458,0.43065494298934937,0.6776393055915833,-0.1711379736661911,0.7924134731292725,-179.98506557677135,0.5146645158529282,0.6681580543518066,94.41967465665206,119.9657265412227,1.1365426938228937,0.003128717740809911,0.06222542718711161,0.017841763563358346,-0.3805242068516879,175.49450776253502,0.10932673128364398,47,1762115361.716914
0.5078573822975159,0.14747878909111023,-0.33271801471710205,0.9999586343765259,0.58326256275177,0.30313605070114136,-0.0972430408000946,0.9998655915260315,0.4439118504524231,0.3140467405319214,-0.09551259875297546,0.9997665286064148,0.5512087941169739,0.6797857284545898,0.00832766480743885,0.9993294477462769,0.4795822203159332,0.680547297000885,-0.008331984281539917,0.9988794326782227,0.5448521375656128,0.9153280258178711,-0.043841652572155,0.893785834312439,0.4858063757419586,0.9264179468154907,-0.006077168975025415,0.8385264873504639,0.5434354543685913,1.056281328201294,0.4180378317832947,0.6183167099952698,0.4920746684074402,1.0776855945587158,0.36757057905197144,0.4687926769256592,0.6036272644996643,0.6731014847755432,-0.08706246316432953,0.8272738456726074,0.4295768141746521,0.6882773041725159,-0.17924106121063232,0.8027132153511047,-179.7211676169993,0.5153955072164536,0.6801665127277374,94.48501310669413,112.57918444764212,1.1713109315300192,0.008800381177632221,0.14456943862408653,0.06828097108365115,0.9913368673000961,175.52306759386357,0.7451364293348136,48,1762115361.7999775
0.5070980787277222,0.1469215750694275,-0.3376564681529999,0.9999539852142334,0.5850120186805725,0.3036153018474579,-0.09583816677331924,0.9998586177825928,0.44137197732925415,0.3157922029495239,-0.11006426811218262,0.9997679591178894,0.5534089803695679,0.6895266175270081,0.008343584835529327,0.9993065595626831,0.47956323623657227,0.6920372843742371,-0.008347494527697563,0.9988633394241333,0.545600414276123,0.9264857172966003,-0.04087451845407486,0.8715593814849854,0.48711052536964417,0.9394599199295044,-0.010239187628030777,0.8108813762664795,0.5463919043540955,1.0750445127487183,0.4357176721096039,0.568325936794281,0.49198636412620544,1.0947413444519043,0.3729391098022461,0.43345436453819275,0.6069230437278748,0.6882870197296143,-0.04021551460027695,0.837476372718811,0.4299471378326416,0.707896888256073,-0.17519745230674744,0.8150794506072998,-179.5047370400834,0.5164861083030701,0.6907819509506226,95.5729976982784,111.63179826836013,1.1960259131034134,0.013156712082121727,0.12806173223001677,0.05255357999195796,-0.19914443771258078,175.15440903564047,1.1620812248854788,49,1762115361.8828707
0.5042358636856079,0.14562691748142242,-0.35608717799186707,0.9999540448188782,0.5861078500747681,0.3037514090538025,-0.10566513240337372,0.9998587369918823,0.437826007604599,0.3214607834815979,-0.12366503477096558,0.9997708201408386,0.5551149845123291,0.7011286616325378,0.007739550434052944,0.999302327632904,0.4795494079589844,0.7075433731079102,-0.007707923650741577,0.998870849609375,0.5464743971824646,0.9356914162635803,-0.027965229004621506,0.8618375658988953,0.4881525933742523,0.9466134905815125,0.017520679160952568,0.7977456450462341,0.5454467535018921,1.0579650402069092,0.4769922196865082,0.5329497456550598,0.4924834370613098,1.0894869565963745,0.4186192452907562,0.411143034696579,0.6088443994522095,0.6991922855377197,-0.045198820531368256,0.8459118008613586,0.42921000719070435,0.7304648756980896,-0.17628030478954315,0.8232955932617188,-179.21530641086912,0.5173321962356567,0.704336017370224,94.95771983252298,115.63402981662928,1.2279367515426731,0.009919775258913473,0.15891172483193336,-0.037950766790114956,0.36169407642367934,173.1893955572069,3.246561409564477,50,1762115361.9681637
0.5030922293663025,0.14434248208999634,-0.3793647289276123,0.9999532103538513,0.5870999693870544,0.3040805757045746,-0.11343665421009064,0.9998581409454346,0.43592458963394165,0.32494932413101196,-0.14978966116905212,0.9997726082801819,0.5560333132743835,0.7023102641105652,0.010279322974383831,0.9992601871490479,0.4795691967010498,0.7092375159263611,-0.010181175544857979,0.9988222122192383,0.5476945638656616,0.9288625717163086,-0.0007077935733832419,0.8488484025001526,0.48807191848754883,0.9369954466819763,0.01733703911304474,0.7822227478027344,0.5450759530067444,1.0731651782989502,0.48090633749961853,0.5049173831939697,0.49400654435157776,1.053166151046753,0.40555644035339355,0.39136260747909546,0.6084845662117004,0.7036612033843994,-0.06558207422494888,0.8540022373199463,0.42936164140701294,0.7343316674232483,-0.19682568311691284,0.831888735294342,-179.07912462057692,0.5178012549877167,0.7057738900184631,103.90432099735605,113.56230765056439,1.2333576059670237,0.006307104157984163,0.019334065335171353,-0.04857705526660535,-1.8768029222514888,172.1403744969393,3.7908059291654244,51,1762115362.0425336
0.5024958848953247,0.1451062560081482,-0.37490636110305786,0.9999487400054932,0.5886179208755493,0.30849263072013855,-0.12227866798639297,0.9998515248298645,0.43304163217544556,0.33408123254776,-0.15699037909507751,0.9997652173042297,0.5575683116912842,0.7156193852424622,0.009485738351941109,0.9992010593414307,0.4794541299343109,0.7255226969718933,-0.009415904060006142,0.9987719655036926,0.5505279898643494,0.9324789047241211,0.024355662986636162,0.8227225542068481,0.48694315552711487,0.9425135850906372,0.05163973569869995,0.7524744272232056,0.5446702241897583,1.075939655303955,0.5038065314292908,0.47151920199394226,0.493375688791275,1.0918926000595093,0.4368441700935364,0.36928486824035645,0.6106173992156982,0.7171054482460022,-0.0750730037689209,0.8616620898246765,0.4288910925388336,0.7520945072174072,-0.19510044157505035,0.840661346912384,-178.89787736583438,0.5185112208127975,0.7205710411071777,110.591014733791,126.91873918340963,1.2633502150981843,0.00958368064830698,0.19974365741172836,0.04422982289242929,2.435311468909237,170.6598316681621,26.636185618678695,52,1762115362.1166143
0.49886155128479004,0.14426884055137634,-0.4072895050048828,0.9999341368675232,0.5892725586891174,0.3181900382041931,-0.14056304097175598,0.9998241066932678,0.42994698882102966,0.34893256425857544,-0.15568280220031738,0.9997519850730896,0.5590099096298218,0.7418583631515503,0.0010730345966294408,0.9990072250366211,0.47921887040138245,0.7522528171539307,-0.0009251095470972359,0.9985914826393127,0.5505036115646362,0.9721819758415222,0.010107949376106262,0.7918839454650879,0.4788798689842224,0.9819973707199097,0.053351063281297684,0.7236315608024597,0.5445167422294617,1.1921385526657104,0.4771726727485657,0.4318074882030487,0.48060178756713867,1.2184220552444458,0.41948145627975464,0.3418228030204773,0.6121023893356323,0.7396225929260254,-0.11845424026250839,0.8678280115127563,0.42825740575790405,0.7895354628562927,-0.20839771628379822,0.8501182198524475,-178.68322602727116,0.5191143900156021,0.7470555901527405,117.46882965418808,136.14250609994892,1.363089383300977,0.007283464566929134,0.31980955534123134,-0.027775858328138957,1.449834821141246,169.07876021491933,4.454992247331755,53,1762115362.1994278
0.4908505082130432,0.14536847174167633,-0.39284640550613403,0.9999191761016846,0.5897380113601685,0.3290178179740906,-0.13892528414726257,0.9998027086257935,0.42581525444984436,0.36118870973587036,-0.14990267157554626,0.9997395873069763,0.5587453246116638,0.7654716372489929,-0.004661832004785538,0.9988769292831421,0.4774850010871887,0.7756862044334412,0.004822747316211462,0.998462438583374,0.5469066500663757,1.0004334449768066,-0.00159592111594975,0.7603781819343567,0.4683198928833008,1.056503415107727,0.0535614974796772,0.6913487911224365,0.5425919890403748,1.24531090259552,0.474125474691391,0.393461674451828,0.46954846382141113,1.2688934803009033,0.42611807584762573,0.31405603885650635,0.6139270067214966,0.7619217038154602,-0.11689136177301407,0.8757686614990234,0.4257136881351471,0.8247944116592407,-0.2057875096797943,0.8606676459312439,-178.6080576347933,0.5181151628494263,0.770578920841217,117.97124792207823,129.50130116740297,1.3952701735346298,-0.013443276697705599,0.316475226056024,-0.2788508232103083,-0.04485897971914919,168.896457445883,6.695743744627462,54,1762115362.273757
0.48317041993141174,0.1452852040529251,-0.40017300844192505,0.9999099373817444,0.5893893241882324,0.3373873233795166,-0.1430654227733612,0.9997950196266174,0.4192257821559906,0.37220460176467896,-0.14707542955875397,0.9997289180755615,0.5594812631607056,0.7916731238365173,-0.009102343581616879,0.9987913966178894,0.4739363193511963,0.80693519115448,0.009397419169545174,0.998369574546814,0.5527543425559998,1.0982398986816406,-0.0031810984946787357,0.7228161692619324,0.4690495431423187,1.105699062347412,0.09079224616289139,0.6509760618209839,0.5474104881286621,1.3193689584732056,0.4607091546058655,0.3559194505214691,0.47127991914749146,1.336937665939331,0.4601499140262604,0.28492963314056396,0.6150467991828918,0.7827540636062622,-0.14725491404533386,0.8848921060562134,0.4203367233276367,0.8536891341209412,-0.20390412211418152,0.8711806535720825,-178.40193195599764,0.5167087912559509,0.7993041574954987,116.59888462241673,137.2727796670804,1.4630443661044168,-0.016267208286451784,0.33225884958192686,-0.032663830493978425,0.18256589695211575,168.43628207762004,7.961048932716993,55,1762115362.3602114
0.48000913858413696,0.14583037793636322,-0.38761991262435913,0.9999055862426758,0.5902669429779053,0.33945122361183167,-0.13922381401062012,0.9998034834861755,0.4176805913448334,0.37498152256011963,-0.125921830534935,0.9997233748435974,0.5607924461364746,0.8058887720108032,-0.008486485108733177,0.9987923502922058,0.47193360328674316,0.8173247575759888,0.008784333243966103,0.998361349105835,0.556317925453186,1.1261271238327026,-0.004759981296956539,0.6829529404640198,0.4667319655418396,1.1295408010482788,0.08092743903398514,0.6113253235816956,0.549640417098999,1.3569533824920654,0.45457330346107483,0.3215731084346771,0.4690123498439789,1.3743481636047363,0.4381060004234314,0.2581562101840973,0.6168819665908813,0.7931103110313416,-0.14260992407798767,0.8948699235916138,0.41804251074790955,0.848651111125946,-0.17662526667118073,0.8811224102973938,-178.43817925071787,0.5163630247116089,0.811606764793396,117.35348650739397,137.420524087702,1.4779410856022666,-0.004233688512625894,0.15063749817544883,0.1473426948516626,-2.2238364054578788,168.36706195664937,5.632602037886401,56,1762115362.4418817
0.4725552499294281,0.1460384875535965,-0.4170357286930084,0.9998754262924194,0.5906903147697449,0.3413943648338318,-0.13873589038848877,0.9997891187667847,0.4107592701911926,0.38297873735427856,-0.13671168684959412,0.9997050166130066,0.5625725984573364,0.8259642124176025,-0.0082338135689497,0.9986429214477539,0.46945247054100037,0.8404519557952881,0.008556900545954704,0.9982466697692871,0.5617457628250122,1.148584008216858,0.03454340249300003,0.6467827558517456,0.4681874215602875,1.157518982887268,0.10483644157648087,0.5840014219284058,0.5569055080413818,1.375805377960205,0.5179389715194702,0.2910066545009613,0.47095149755477905,1.4028494358062744,0.4806370139122009,0.23492200672626495,0.618472695350647,0.8079028725624084,-0.07132241874933243,0.9007793068885803,0.4135269224643707,0.8735020160675049,-0.16966018080711365,0.8862695693969727,-178.14102826589792,0.5160125344991684,0.8332080841064453,122.72869881494508,140.02425626684496,1.5450334123886635,-0.0051945120723101874,0.3201467828962944,-0.014240082612827673,2.5122471173160053,166.986693349292,14.712634060744072,57,1762115362.5093548
0.46348199248313904,0.1374538242816925,-0.5734702348709106,0.9998672008514404,0.5903924107551575,0.34209662675857544,-0.2441585808992386,0.9997833371162415,0.39882534742355347,0.3879934847354889,-0.2011212557554245,0.9996948838233948,0.5636377334594727,0.8484900593757629,-0.02180204540491104,0.998354971408844,0.4648962616920471,0.8664988875389099,0.02237648516893387,0.9978870153427124,0.5650923848152161,1.196586012840271,0.05987662076950073,0.6258059740066528,0.4676676392555237,1.2068289518356323,0.18166355788707733,0.5627791881561279,0.5660784244537354,1.4402185678482056,0.5884691476821899,0.2651018798351288,0.47250810265541077,1.4712555408477783,0.6274317502975464,0.21536840498447418,0.6188521981239319,0.8380448222160339,-0.1292843222618103,0.9024866223335266,0.4053439497947693,0.9265596270561218,-0.22592763602733612,0.8867209553718567,-177.71402001090064,0.5142669975757599,0.8574944734573364,127.95043502244492,145.75807867685918,1.771084527883047,-0.01877461803578847,0.2612191569348494,-0.14606468584575982,-0.6338128138942981,166.52667715684208,6.745511963147003,58,1762115362.602328
0.45505160093307495,0.12557317316532135,-0.5287586450576782,0.999873161315918,0.5905047059059143,0.34283092617988586,-0.23632152378559113,0.9997844099998474,0.3898342549800873,0.3889990448951721,-0.202084019780159,0.9996967315673828,0.5645567178726196,0.8631781935691833,-0.022649679332971573,0.9981077313423157,0.4609772562980652,0.8799864053726196,0.023295138031244278,0.9975348711013794,0.5652480125427246,1.223233938217163,0.05357205122709274,0.6238253116607666,0.46139198541641235,1.1826796531677246,0.2220609188079834,0.5492735505104065,0.5657126903533936,1.4972047805786133,0.5191490650177002,0.2427189201116562,0.464517205953598,1.5247305631637573,0.6428453326225281,0.19701634347438812,0.6223601698875427,0.8492588400840759,-0.12705038487911224,0.9059585332870483,0.3953562378883362,0.9547039270401001,-0.21548934280872345,0.8879168033599854,-177.4412407899546,0.5127669870853424,0.8715822994709015,132.4273415041885,162.39568916586168,1.7760865845292295,-0.017434401039718234,0.16374072719312102,0.015577144785988662,-1.132977434288672,167.04346212190097,12.58248672646249,59,1762115362.6883655
0.4473479390144348,0.11458881199359894,-0.6024420261383057,0.9998801350593567,0.5911180973052979,0.34135299921035767,-0.309950053691864,0.9997840523719788,0.382656455039978,0.3839949369430542,-0.22355183959007263,0.9997039437294006,0.5645058751106262,0.8732872605323792,-0.036667272448539734,0.9974465370178223,0.45684337615966797,0.8852569460868835,0.037371598184108734,0.9967993497848511,0.5637072324752808,1.2462620735168457,0.047793544828891754,0.6334978938102722,0.4598279893398285,1.2580946683883667,0.2543058395385742,0.551211953163147,0.5642614960670471,1.5243217945098877,0.5087573528289795,0.23113307356834412,0.4623759388923645,1.560229778289795,0.6929067373275757,0.18699143826961517,0.6263299584388733,0.8662732243537903,-0.16307201981544495,0.905986487865448,0.38965365290641785,0.9575227499008179,-0.2095612734556198,0.8822556734085083,-177.3636127928692,0.5106746256351471,0.8792721033096313,133.85790378702106,154.7538905813598,1.8682908582345243,-0.028022402595329173,0.10298735862672347,-0.14180209745481862,-0.8136526090322932,168.43932671259276,15.32584803731643,60,1762115362.763033
0.4464540481567383,0.1066085696220398,-0.5644481182098389,0.9998859763145447,0.5913586020469666,0.3406190872192383,-0.3025820553302765,0.9997752904891968,0.37889063358306885,0.3820154368877411,-0.20285148918628693,0.9996954798698425,0.5650332570075989,0.8784831762313843,-0.05020270496606827,0.9968763589859009,0.45412391424179077,0.8914794921875,0.05094531178474426,0.9960492253303528,0.5638663172721863,1.2197813987731934,0.03982530161738396,0.6521702408790588,0.4555133283138275,1.2316384315490723,0.3034936487674713,0.5518077611923218,0.562703013420105,1.5086781978607178,0.5000334978103638,0.23015771806240082,0.4620411992073059,1.5341109037399292,0.753383457660675,0.1813644915819168,0.6290954351425171,0.8611447811126709,-0.1732354462146759,0.9067441821098328,0.38855987787246704,0.9461488723754883,-0.1310451477766037,0.8746550679206848,-177.32635463625053,0.5095785856246948,0.8849813342094421,136.8953951481504,160.49917709478947,1.8506265422807264,-0.011401232103131596,0.05938858618149712,0.172896811065383,-0.4535233379432276,168.97485901148409,9.11344910854256,61,1762115362.8591664
0.44232240319252014,0.0968063548207283,-0.6404592394828796,0.9998906850814819,0.5928566455841064,0.3398371934890747,-0.3812409043312073,0.9997508525848389,0.3771257698535919,0.3801681101322174,-0.20692355930805206,0.9996908903121948,0.5648190379142761,0.8936291933059692,-0.0809047669172287,0.9955485463142395,0.44827476143836975,0.9012220501899719,0.08170182257890701,0.9948137402534485,0.5606372356414795,1.2840162515640259,0.03781017288565636,0.6602176427841187,0.45156416296958923,1.29408597946167,0.3387393057346344,0.548474133014679,0.5616664886474609,1.5827455520629883,0.4527881145477295,0.22959010303020477,0.4567187428474426,1.6143988370895386,0.7612205147743225,0.17748580873012543,0.6283468008041382,0.9002438187599182,-0.2543199062347412,0.897400438785553,0.3834378123283386,0.9591168165206909,-0.15103809535503387,0.8618878722190857,-177.7031340654717,0.5065468996763229,0.8974256217479706,142.65677711166524,160.36313183910045,1.9534424951098852,-0.03697478227999011,0.151771928294151,-0.31189788982712774,1.1267176149124691,169.41078263971855,6.969374169096706,62,1762115362.9411597
0.4415974020957947,0.08463683724403381,-0.6995565295219421,0.9998890161514282,0.5955232381820679,0.33968403935432434,-0.42317891120910645,0.9996992349624634,0.37634164094924927,0.37842702865600586,-0.24913927912712097,0.9996621012687683,0.5645983219146729,0.904480516910553,-0.08244515210390091,0.9944351315498352,0.44458383321762085,0.909451961517334,0.08332294225692749,0.9933748245239258,0.5590827465057373,1.3197566270828247,0.05063873529434204,0.6581801772117615,0.4363138675689697,1.268154263496399,0.4198130667209625,0.5198183059692383,0.5624470710754395,1.627894401550293,0.505876898765564,0.21307139098644257,0.45093122124671936,1.6378130912780762,0.9325590133666992,0.16251535713672638,0.6326085925102234,0.9186708927154541,-0.25103995203971863,0.8769632577896118,0.3750538229942322,0.9823797345161438,-0.1762991100549698,0.8434060215950012,-178.0495941625033,0.5045910775661469,0.9069662392139435,141.847408934051,168.72453877291943,2.10098395375632,-0.02583305516279275,0.12601519126061642,0.14716310329543716,-0.3402023144839798,169.9758256098596,2.07506359308137,63,1762115363.0168698
0.442316472530365,0.05923602730035782,-0.6416994333267212,0.9998607039451599,0.5980759859085083,0.33894672989845276,-0.3665851056575775,0.9994582533836365,0.37370744347572327,0.3722861111164093,-0.23078350722789764,0.9995898008346558,0.5643673539161682,0.9163694381713867,-0.0733846127986908,0.9927071928977966,0.44150155782699585,0.9163616895675659,0.07422854006290436,0.9914600253105164,0.5591045022010803,1.336539387702942,0.07004919648170471,0.6468698382377625,0.43486204743385315,1.258436918258667,0.3914194703102112,0.49236196279525757,0.5664803981781006,1.6628124713897705,0.5187331438064575,0.19623126089572906,0.4467463493347168,1.6654385328292847,0.8816307187080383,0.14888225495815277,0.6332055330276489,0.9177179932594299,-0.22581472992897034,0.8226245641708374,0.3665142357349396,0.9929054975509644,-0.1670367270708084,0.8086134791374207,-178.25915624790306,0.502934455871582,0.9163655638694763,144.8433072871349,172.30448794930885,2.0929524396121044,-0.023015180322221634,0.13058331456356986,0.039148284604731264,0.0634642066420811,171.54814522039456,1.7695531203148989,64,1762115363.0888493
0.44212451577186584,0.03911932557821274,-0.6697612404823303,0.9998390674591064,0.6007274389266968,0.33806538581848145,-0.39001405239105225,0.9994030594825745,0.36993518471717834,0.3532521426677704,-0.21774713695049286,0.9994987845420837,0.567278265953064,0.9267523884773254,-0.0909256637096405,0.9848572015762329,0.4408148229122162,0.9291008710861206,0.09185684472322464,0.9804046750068665,0.5610218048095703,1.356455683708191,0.06213425472378731,0.60723477602005,0.43727102875709534,1.3396655321121216,0.40035080909729004,0.4550861716270447,0.5691088438034058,1.7147477865219116,0.5163400769233704,0.1794247031211853,0.4399584233760834,1.71821928024292,0.8751241564750671,0.135576531291008,0.6377609968185425,0.9432617425918579,-0.24820351600646973,0.7670367956161499,0.36658018827438354,0.9706485271453857,-0.16093575954437256,0.7497435808181763,-178.15903492948183,0.5040465444326401,0.927926629781723,147.8348876233967,165.4722991869991,2.1637970542812845,0.01683547787482856,0.17501849779831083,0.6032836752996478,0.6726870236851475,176.2352097532573,3.4733629479111165,65,1762115363.1549056
0.4403786063194275,0.025197677314281464,-0.6986222863197327,0.999825656414032,0.604347825050354,0.3348996043205261,-0.37666618824005127,0.9992839097976685,0.36991965770721436,0.35062992572784424,-0.20275335013866425,0.999418318271637,0.5690697431564331,0.9312613606452942,-0.09567029774188995,0.9822244644165039,0.4426039755344391,0.9370054602622986,0.09650497138500214,0.9774103760719299,0.565941572189331,1.3564820289611816,0.06591865420341492,0.5846522450447083,0.44001826643943787,1.3465521335601807,0.41126590967178345,0.43178513646125793,0.5771721005439758,1.710440754890442,0.5364739894866943,0.16752921044826508,0.4438028335571289,1.7123357057571411,0.9159321784973145,0.12636199593544006,0.6380127668380737,0.9397836327552795,-0.22138254344463348,0.7157040238380432,0.36771830916404724,0.9620193243026733,-0.10446397960186005,0.7013572454452515,-178.1885197146089,0.5058368593454361,0.9341334104537964,147.7253482006802,163.46642508433743,2.208683130124263,0.024871405480958404,0.08622581296908433,0.11163668049636272,-1.2335253716239643,176.16116100166286,2.4909101764860475,66,1762115363.2268884
0.439649760723114,0.025025375187397003,-0.7104216814041138,0.9997227191925049,0.6078391671180725,0.3343377709388733,-0.4192329943180084,0.9991630911827087,0.3687838613986969,0.3402884006500244,-0.16567839682102203,0.9993053674697876,0.5710532069206238,0.9409955143928528,-0.11170987039804459,0.977424681186676,0.4424668848514557,0.9406712651252747,0.11240969598293304,0.9709643125534058,0.5639129281044006,1.3673768043518066,0.05994771048426628,0.5551049709320068,0.43167051672935486,1.3577059507369995,0.420900821685791,0.408285915851593,0.5735466480255127,1.7377358675003052,0.5368376970291138,0.15836313366889954,0.43248406052589417,1.735707402229309,0.9306858777999878,0.11878908425569534,0.640581488609314,0.9601626992225647,-0.314613938331604,0.6658272743225098,0.3671511709690094,0.9578016400337219,-0.00020855918410234153,0.6511756777763367,-178.24911615192855,0.5067600458860397,0.9408333897590637,149.7098232839657,163.00130072109937,2.2404430756993174,0.012254762334279629,0.08893831356873617,-0.1674785716848405,0.03600686179695523,178.574072332489,3.5310682410074383,67,1762115363.3022213
0.43836814165115356,0.019947024062275887,-0.698337733745575,0.999656617641449,0.6086011528968811,0.3340892493724823,-0.4219287931919098,0.999126672744751,0.3694986402988434,0.3290616273880005,-0.11167974770069122,0.9992108345031738,0.571430504322052,0.9493947625160217,-0.1264794021844864,0.9662780165672302,0.43979611992836,0.9432151913642883,0.1273840218782425,0.954249382019043,0.5581321716308594,1.384400486946106,0.04705227166414261,0.5106534361839294,0.41866594552993774,1.3762568235397339,0.42496293783187866,0.37731656432151794,0.5593352317810059,1.7761286497116089,0.5277756452560425,0.14584900438785553,0.41566333174705505,1.7710355520248413,0.9298045039176941,0.10908631980419159,0.6430367231369019,0.9806022644042969,-0.32948511838912964,0.6161676049232483,0.3699817657470703,0.9550912380218506,0.018431104719638824,0.5974645018577576,-178.4565826338105,0.505613312125206,0.946304976940155,150.87507440384525,162.4078629226022,2.261491462033134,-0.013899083364157573,0.0663188343813575,-0.31699989489417063,-0.2741613071988254,-178.79541593018303,18.3879238745584,68,1762115363.3847256
0.43948403000831604,0.018352951854467392,-0.6885980367660522,0.999606192111969,0.6097419261932373,0.33163389563560486,-0.43764162063598633,0.9990396499633789,0.3710147440433502,0.3301883935928345,-0.041237615048885345,0.9991405606269836,0.5712209939956665,0.959484338760376,-0.1590689718723297,0.9465286731719971,0.43967336416244507,0.9543270468711853,0.16032177209854126,0.9298288226127625,0.5507516264915466,1.4051634073257446,-0.05198497325181961,0.4681738018989563,0.4098750054836273,1.3972177505493164,0.42825445532798767,0.3486468493938446,0.5452390909194946,1.803845763206482,0.44999027252197266,0.13392436504364014,0.40707650780677795,1.7966265678405762,0.9427547454833984,0.09996988624334335,0.6417230367660522,0.9718606472015381,-0.40166014432907104,0.5652360320091248,0.3703310191631317,0.9476503133773804,0.058870017528533936,0.548409640789032,-178.621051160301,0.5054471790790558,0.9569056928157806,141.92780659546239,158.7867450825867,2.257121211889434,-0.0024560644458621627,0.1567180158682603,0.16917038825100936,1.3364361921365138,-179.65307614560692,3.6253539495354454,69,1762115363.4523675
0.4404769837856293,0.02260226383805275,-0.6693723201751709,0.9995308518409729,0.6127882599830627,0.3262774646282196,-0.40304508805274963,0.99896639585495,0.3721117675304413,0.3270670771598816,-0.021425331011414528,0.999031126499176,0.5712864995002747,0.9548768997192383,-0.15354153513908386,0.919683039188385,0.4391120970249176,0.9519087076187134,0.15495142340660095,0.8968271613121033,0.5485273599624634,1.398377537727356,-0.04503592103719711,0.4284785985946655,0.40884122252464294,1.3915748596191406,0.39690518379211426,0.32070890069007874,0.5431710481643677,1.8011394739151,0.4366331696510315,0.12198133766651154,0.4107658863067627,1.7900105714797974,0.8834511041641235,0.09109653532505035,0.640887975692749,0.9632639288902283,-0.37587106227874756,0.5332326292991638,0.37074798345565796,0.928853452205658,-0.007277119904756546,0.508213222026825,-178.83460104540896,0.5051992982625961,0.9533928036689758,143.590904132677,157.85203915618683,2.216327329327167,-0.003376727032978454,-0.04785391590721603,-0.012541616937402028,-2.786756886155829,179.81202442027737,7.4260870342706715,70,1762115363.5257761
0.4411390423774719,0.02562064677476883,-0.6765177249908447,0.9994146227836609,0.6154282689094543,0.32528015971183777,-0.3919084072113037,0.9986869692802429,0.3728705048561096,0.3270860016345978,-0.04438178241252899,0.9989060759544373,0.5715664625167847,0.9555965065956116,-0.1487455517053604,0.87967848777771,0.4390522539615631,0.9529007077217102,0.15015020966529846,0.8530875444412231,0.5487044453620911,1.4068434238433838,-0.05215666815638542,0.39514410495758057,0.411081463098526,1.3963838815689087,0.38865822553634644,0.2974720597267151,0.5445168018341064,1.8161929845809937,0.44133004546165466,0.11195731908082962,0.4153483510017395,1.8008002042770386,0.8641408681869507,0.08347970992326736,0.6402609944343567,0.954215943813324,-0.41328319907188416,0.49126163125038147,0.3719435930252075,0.9209163188934326,-0.023465165868401527,0.47087550163269043,-178.98202982122675,0.5053093582391739,0.9542486071586609,141.69675601060982,158.36671347984074,2.224199991991069,0.0016949510378075512,0.013179586786266352,0.07810510484191481,0.9399311352593286,179.57344095147286,274.72600595307705,71,1762115363.5907102
0.441563218832016,0.02602516859769821,-0.6672344207763672,0.9991624355316162,0.6185767650604248,0.3272114098072052,-0.40083885192871094,0.998301088809967,0.37334391474723816,0.3268935978412628,-0.022664712741971016,0.9987525343894958,0.5725883841514587,0.9659441709518433,-0.15890488028526306,0.846072256565094,0.4391970634460449,0.9585341811180115,0.16028806567192078,0.8180190324783325,0.547627329826355,1.4210045337677002,-0.08721338212490082,0.36861634254455566,0.41124898195266724,1.406121850013733,0.3479287922382355,0.280986487865448,0.5446692705154419,1.836334228515625,0.39369839429855347,0.10429968684911728,0.41748887300491333,1.8150346279144287,0.7893375158309937,0.07769372314214706,0.6398170590400696,0.9479020833969116,-0.4605961740016937,0.4556165039539337,0.3723439574241638,0.9166755080223083,-0.035797711461782455,0.4427179992198944,-179.10414162268887,0.5058927237987518,0.9622391760349274,139.69006430984322,155.25964148275136,2.1965410301300423,0.009177669211005044,0.12570985165319482,0.11772020316466285,1.7703574203500216,-179.92574700285965,6.049264808487716,72,1762115363.6542737
0.44181475043296814,0.020835552364587784,-0.6916195750236511,0.9989641904830933,0.6223779916763306,0.32558509707450867,-0.41717100143432617,0.9978500008583069,0.37727439403533936,0.3264929950237274,-0.051242630928754807,0.9986298680305481,0.5763854384422302,0.9665294289588928,-0.15320038795471191,0.8182493448257446,0.43946924805641174,0.9608579277992249,0.15458746254444122,0.7880141735076904,0.5477811694145203,1.4289790391921997,-0.1501556783914566,0.3468686640262604,0.41017866134643555,1.4156031608581543,0.3320257365703583,0.2646557092666626,0.5452471971511841,1.8473726511001587,0.3434595763683319,0.09770866483449936,0.4168268144130707,1.8300879001617432,0.7958441376686096,0.07254327833652496,0.6395426392555237,0.9447962641716003,-0.41088399291038513,0.4221624433994293,0.3767520785331726,0.9170300960540771,-0.04193783551454544,0.4142955243587494,-179.27211889845972,0.507927343249321,0.9636936783790588,130.58608039843446,152.81126905658635,2.212935885984939,0.032038400747854426,0.022903511011330445,0.3599794930505609,-1.6188534617533066,179.78776940317806,3.9362461371926534,73,1762115363.7177794
0.44247573614120483,0.018076032400131226,-0.682108998298645,0.9987260103225708,0.6313272714614868,0.3220472037792206,-0.40668830275535583,0.9972094297409058,0.38068729639053345,0.328916996717453,-0.06277398020029068,0.9984477162361145,0.5821132659912109,0.9662160873413086,-0.14773942530155182,0.7781324982643127,0.4413847327232361,0.9620040059089661,0.1491299569606781,0.7475095987319946,0.5531119108200073,1.4292911291122437,-0.14462628960609436,0.3260631263256073,0.4115966260433197,1.4183318614959717,0.27423620223999023,0.2510339915752411,0.5554071664810181,1.8485167026519775,0.35969048738479614,0.0909404531121254,0.4195139408111572,1.8336927890777588,0.6957470178604126,0.06774237006902695,0.6393412351608276,0.9340270161628723,-0.38515231013298035,0.3883267939090729,0.3869476914405823,0.9249930381774902,-0.009894335642457008,0.389616996049881,-179.484884431297,0.5117489993572235,0.9641100466251373,130.00989440058686,149.61112598542147,2.188410498700372,0.04818127508003066,0.0052493349564903735,0.20352021396499423,-0.2225738498685541,178.42997263800365,1.1242206358472933,74,1762115363.7970977
0.44696465134620667,0.018425608053803444,-0.7013869285583496,0.998254656791687,0.6331227421760559,0.31952694058418274,-0.4018758237361908,0.9955053925514221,0.3832637667655945,0.33427828550338745,-0.134189635515213,0.9981642961502075,0.587733805179596,0.9634965062141418,-0.14687782526016235,0.7309273481369019,0.4424811005592346,0.9607425928115845,0.14832274615764618,0.7036593556404114,0.5588506460189819,1.4352437257766724,-0.11798366159200668,0.31019872426986694,0.4186958372592926,1.4305388927459717,0.2901453375816345,0.24087968468666077,0.5665662288665771,1.8546115159988403,0.449130117893219,0.08666586130857468,0.4359199106693268,1.8471676111221313,0.7417976260185242,0.06511075794696808,0.6337424516677856,0.9261502027511597,-0.37350472807884216,0.35536906123161316,0.3909137547016144,0.9337849020957947,-0.05160878971219063,0.3690374791622162,-179.3763725113965,0.5151074528694153,0.9621195495128632,129.8447897571234,149.18404169047747,2.2455939734804997,0.052980397097928005,-0.031400561909740894,0.07570728292251329,-0.5781607762388954,176.62125459020228,0.5544297721988777,75,1762115363.8604882
0.44773370027542114,0.014829592779278755,-0.738220751285553,0.9980894923210144,0.6374808549880981,0.3158353567123413,-0.41353240609169006,0.9946674108505249,0.38414403796195984,0.33376818895339966,-0.15706701576709747,0.9980368614196777,0.5889543294906616,0.9607998132705688,-0.14291377365589142,0.7048154473304749,0.4425992965698242,0.9589424133300781,0.14428001642227173,0.679029107093811,0.5590094327926636,1.4280505180358887,-0.10900940001010895,0.29778188467025757,0.41907238960266113,1.422317624092102,0.2904856503009796,0.23263654112815857,0.566535234451294,1.8437557220458984,0.47963351011276245,0.08321184664964676,0.4359220564365387,1.838565707206726,0.7594956159591675,0.06337135285139084,0.6329394578933716,0.9019519090652466,-0.368204802274704,0.32622450590133667,0.39180421829223633,0.9310045838356018,-0.049018166959285736,0.35141217708587646,-179.55212535068267,0.5157768130302429,0.9598711133003235,129.23258856213081,148.8103150731186,2.2763848610401554,0.00840058287926799,-0.028218253576419123,-0.5594841850509498,0.039938506152502634,175.9509848573874,0.4072913934225496,76,1762115363.9401684
0.45003658533096313,0.013447769917547703,-0.6326574087142944,0.9980736374855042,0.6389362215995789,0.30618271231651306,-0.3566446900367737,0.9938685297966003,0.3873605728149414,0.32405123114585876,-0.05487893149256706,0.9980565309524536,0.5952571034431458,0.9593244791030884,-0.14515337347984314,0.6474917531013489,0.44293412566185,0.9585280418395996,0.1469058245420456,0.6263307929039001,0.565212607383728,1.4275299310684204,-0.11478813737630844,0.27984410524368286,0.42562025785446167,1.4252680540084839,0.4021833539009094,0.21989291906356812,0.5759378671646118,1.8649357557296753,0.376753032207489,0.0770130604505539,0.4441787600517273,1.8570239543914795,0.8881542086601257,0.05815443396568298,0.6344805359840393,0.9017680883407593,-0.4555931091308594,0.298635333776474,0.3792347311973572,0.9216346144676208,-0.008242864161729813,0.33915233612060547,-179.470742706184,0.5190956145524979,0.958926260471344,135.16440013579796,159.98935953850585,2.2399739573420274,0.05135947969243484,-0.014621889666164881,0.6648022105841855,0.21040793535167437,175.93730823359073,0.4061507670297292,77,1762115364.0047874
0.46457457542419434,-0.009979510679841042,-0.6853388547897339,0.9977471828460693,0.6421461701393127,0.2930660843849182,-0.3517029881477356,0.9917998909950256,0.38729745149612427,0.32249563932418823,-0.14479492604732513,0.9978214502334595,0.6001533269882202,0.9501221776008606,-0.1298028528690338,0.6117445230484009,0.44360285997390747,0.9561816453933716,0.13157334923744202,0.5924609899520874,0.5734466314315796,1.421871542930603,-0.07810844480991364,0.26799824833869934,0.42637673020362854,1.4207026958465576,0.3969112038612366,0.20909559726715088,0.5819268226623535,1.8484500646591187,0.574944257736206,0.070982925593853,0.44315075874328613,1.8490513563156128,1.0190843343734741,0.053830768913030624,0.63458651304245,0.7818920612335205,-0.7303866147994995,0.2732776999473572,0.3785246014595032,0.9227830767631531,-0.21643459796905518,0.32391127943992615,-179.36469417115472,0.5218780934810638,0.9531519114971161,129.2839282811243,154.0967012575921,2.3779296593563117,0.03447637285862414,-0.07154721144784924,-0.20919054596917522,-0.7053345844577422,173.41274529113713,0.5666946778570154,78,1762115364.0854943
0.46358752250671387,-0.006097171921283007,-0.7591046094894409,0.9939872622489929,0.6401498913764954,0.2822876274585724,-0.3781026303768158,0.9889136552810669,0.3871763348579407,0.32845982909202576,-0.21000628173351288,0.9973906874656677,0.5982627272605896,0.9474475383758545,-0.1267295777797699,0.580772340297699,0.4465959668159485,0.9553086161613464,0.12799504399299622,0.5663577914237976,0.5738836526870728,1.4085239171981812,-0.11394856870174408,0.26553210616111755,0.43113693594932556,1.413145899772644,0.3007757067680359,0.20809993147850037,0.5835874080657959,1.8451424837112427,0.5357723832130432,0.07142230868339539,0.4502626359462738,1.8380303382873535,0.9125343561172485,0.057627975940704346,0.6306021809577942,0.774671196937561,-0.36341342329978943,0.24897092580795288,0.40051668882369995,0.9132343530654907,-0.189937561750412,0.30843496322631836,-179.22254799001982,0.522429347038269,0.9513780772686005,125.38314333150906,145.30609461525856,2.3699860219361684,0.008689553181174153,-0.027961410247255535,-0.4064843446935602,0.6870543192443467,169.6563504700793,0.608102075100112,79,1762115364.148933
0.46375417709350586,-0.0005157797131687403,-0.7472988367080688,0.9931715726852417,0.637697160243988,0.2762492001056671,-0.3781653046607971,0.9843519926071167,0.3871729075908661,0.3315911889076233,-0.18442115187644958,0.9970298409461975,0.5970946550369263,0.9472410678863525,-0.1275884062051773,0.559503436088562,0.44760996103286743,0.9550656080245972,0.1286756545305252,0.5484552383422852,0.5758044719696045,1.4200505018234253,-0.104050412774086,0.266594797372818,0.432565838098526,1.4275403022766113,0.3072470426559448,0.21277014911174774,0.5837622284889221,1.847403645515442,0.5804119110107422,0.06951788067817688,0.4500013291835785,1.8538259267807007,0.8955930471420288,0.05972116068005562,0.5656941533088684,0.4167329668998718,-0.743867039680481,0.23267900943756104,0.4090143144130707,0.9102120995521545,-0.03724263980984688,0.30290499329566956,-179.1221501953758,0.5223523080348969,0.9511533379554749,124.75597212208264,146.491248932323,2.373947537879412,-0.0009714042635064651,-0.002833794797331626,-0.12181745402361642,0.3168404536839788,167.54314753731373,0.7810338589306122,80,1762115364.2282398
0.46342769265174866,0.006892136298120022,-0.7348770499229431,0.9927809834480286,0.6356192827224731,0.2762983739376068,-0.39181509613990784,0.9801936149597168,0.3877109885215759,0.3390069901943207,-0.16833166778087616,0.9967474341392517,0.5968118906021118,0.9469937086105347,-0.1421159952878952,0.5564395785331726,0.448190301656723,0.9578362107276917,0.14286930859088898,0.550674319267273,0.5754040479660034,1.4375840425491333,-0.10435543209314346,0.2785526216030121,0.43377605080604553,1.4414905309677124,0.3257923722267151,0.2259988635778427,0.5823448896408081,1.8637198209762573,0.5418021082878113,0.07126659154891968,0.4504043459892273,1.8669707775115967,0.8987640142440796,0.06346458941698074,0.5267223715782166,0.3149803876876831,-0.934605598449707,0.2229166179895401,0.40913739800453186,0.9145883321762085,-0.019058819860219955,0.3025922477245331,-179.03717015892659,0.5225010961294174,0.9524149596691132,127.73374718227596,147.18639256454992,2.360962194729678,0.0023498452420399434,0.019925087357291323,0.05245327170418759,0.35943635892047343,165.804740917685,0.9194262094932777,81,1762115364.291558
