nose_x,nose_y,nose_z,nose_visibility,left_shoulder_x,left_shoulder_y,left_shoulder_z,left_shoulder_visibility,right_shoulder_x,right_shoulder_y,right_shoulder_z,right_shoulder_visibility,left_hip_x,left_hip_y,left_hip_z,left_hip_visibility,right_hip_x,right_hip_y,right_hip_z,right_hip_visibility,left_knee_x,left_knee_y,left_knee_z,left_knee_visibility,right_knee_x,right_knee_y,right_knee_z,right_knee_visibility,left_ankle_x,left_ankle_y,left_ankle_z,left_ankle_visibility,right_ankle_x,right_ankle_y,right_ankle_z,right_ankle_visibility,left_wrist_x,left_wrist_y,left_wrist_z,left_wrist_visibility,right_wrist_x,right_wrist_y,right_wrist_z,right_wrist_visibility,trunk_lateral_inclination,center_mass_x,center_mass_y,left_knee_angle,right_knee_angle,person_height,center_mass_velocity_x,center_mass_velocity_y,center_mass_acceleration_x,center_mass_acceleration_y,body_orientation,torso_leg_ratio,frame,timestamp
0.47531384229660034,0.12634652853012085,0.4525010585784912,0.9819490313529968,0.37487006187438965,0.343613862991333,-0.027125095948576927,0.9943451881408691,0.5989676117897034,0.3512776494026184,-0.01576184667646885,0.9946264624595642,0.46095210313796997,0.9825521111488342,-0.04729338362812996,0.9754248857498169,0.5769174098968506,0.983887255191803,0.048240236937999725,0.9646782875061035,0.4957877993583679,1.4460208415985107,0.11160461604595184,0.8516749143600464,0.5303056240081787,1.4586881399154663,0.21497943997383118,0.4311766028404236,0.5347297787666321,1.8817105293273926,0.47031188011169434,0.25866588950157166,0.5157413482666016,1.9194437265396118,0.4962272047996521,0.21628043055534363,0.40989866852760315,0.9968611598014832,0.1262417435646057,0.11826121062040329,0.587270200252533,0.9196364283561707,-0.040688689798116684,0.16197429597377777,-177.11716889696038,0.5189347565174103,0.9832196831703186,159.5089532982286,167.40268955533287,1.7751994529373174,0.0,0.0,0.0,0.0,1.958662890077258,2.62644042955379,0,1762115365.2916667
0.47245845198631287,0.13238663971424103,0.5052095651626587,0.9820738434791565,0.37504976987838745,0.3436538875102997,0.16856826841831207,0.9945240616798401,0.594224214553833,0.34869492053985596,-0.00666013453155756,0.9948644042015076,0.4594472348690033,0.9852949976921082,0.01834258809685707,0.9761271476745605,0.5754439830780029,0.9842243790626526,-0.017503436654806137,0.9650033116340637,0.4961770176887512,1.4288477897644043,0.16731086373329163,0.8419941067695618,0.5354968309402466,1.458687663078308,0.16304075717926025,0.42850613594055176,0.5362504124641418,1.870145559310913,0.5615099668502808,0.26406410336494446,0.5162650346755981,1.9207711219787598,0.4668744206428528,0.2334003746509552,0.42249760031700134,0.9947254657745361,0.2766575813293457,0.11991848051548004,0.603190541267395,0.9206845760345459,-0.11636598408222198,0.16908292472362518,-177.05889884469462,0.5174456089735031,0.9847596883773804,156.84533348322068,167.27748536057132,1.7639152110749259,-0.017962342259953298,0.018575795746051466,-0.21666472256816083,0.22406429927427113,1.3175760650578416,3.1480760618646797,1,1762115365.3745706
0.4788837432861328,0.12620112299919128,0.4372708201408386,0.9825455546379089,0.387739360332489,0.3304959237575531,0.0399719700217247,0.9943676590919495,0.5928049683570862,0.34490230679512024,0.0008821616065688431,0.9935785531997681,0.4575572609901428,0.9790422916412354,-0.020734548568725586,0.9749035835266113,0.5615053176879883,0.9709884524345398,0.02097894251346588,0.9609799981117249,0.4577028155326843,1.2879235744476318,-0.010074975900352001,0.8471080660820007,0.5357727408409119,1.3234577178955078,0.20705632865428925,0.4272359013557434,0.48626574873924255,1.6957589387893677,0.20921900868415833,0.2761895954608917,0.506101667881012,1.6606348752975464,0.4830223023891449,0.22727367281913757,0.4235030710697174,0.9613563418388367,0.21776863932609558,0.12488115578889847,0.5960314273834229,0.8521047234535217,0.2830793261528015,0.1562611311674118,-178.26909974688712,0.5095312893390656,0.9750153720378876,153.493232476343,168.5535862683278,1.554766398848514,-0.118187834455454,-0.14551593814866112,-1.4967090573743351,-2.450450269492424,4.018572500250161,34.6967576583134,2,1762115365.4415345
0.4832135736942291,0.1262083351612091,0.46155357360839844,0.9840810894966125,0.39045217633247375,0.3311282992362976,-0.042204465717077255,0.9948773384094238,0.592517077922821,0.3424684405326843,0.02576952800154686,0.9934517741203308,0.4573863446712494,0.9662517309188843,-0.0271151065826416,0.9769935011863708,0.5628600716590881,0.955053448677063,0.02687162160873413,0.963390052318573,0.44802552461624146,1.3699040412902832,-0.06541158258914948,0.8399420380592346,0.5211649537086487,1.3334455490112305,0.12127625942230225,0.4427739679813385,0.45118650794029236,1.9093735218048096,-0.0028890592511743307,0.29419562220573425,0.5033621788024902,1.8347086906433105,0.1751667559146881,0.23737023770809174,0.37951892614364624,0.931430995464325,0.19771632552146912,0.17614470422267914,0.5880419015884399,0.7371665835380554,0.5763051509857178,0.1455181986093521,-178.28871165051615,0.5101232081651688,0.9606525897979736,167.85562588121675,171.15031680107927,1.785750137877177,0.00885128293801183,-0.21477446530879998,1.8996847585462648,-1.0356602843672267,3.212143099105026,2.5455949619352456,3,1762115365.5084083
0.4787317216396332,0.143373504281044,0.45998573303222656,0.9854943156242371,0.39766672253608704,0.33330872654914856,-0.03692012280225754,0.9952970147132874,0.5901967287063599,0.34218162298202515,0.0688340812921524,0.9935030341148376,0.450582891702652,0.9646371006965637,-0.055958591401576996,0.9784821271896362,0.546498715877533,0.9518954753875732,0.056307803839445114,0.9646720886230469,0.44810277223587036,1.3748561143875122,-0.08090599626302719,0.8339107632637024,0.5090128183364868,1.362554907798767,0.13135068118572235,0.442536860704422,0.4451426863670349,1.9033926725387573,0.027968842536211014,0.3013698160648346,0.4914793074131012,1.8404605388641357,0.21765580773353577,0.24164439737796783,0.3856249153614044,0.9238426089286804,0.10826678574085236,0.21139290928840637,0.5665098428726196,0.765283465385437,0.0605897381901741,0.1425241231918335,-179.57442887203422,0.49854080379009247,0.9582662880420685,164.87939945807042,176.92904196125798,1.7611616402044172,-0.12328228728911626,-0.02539962594149055,-1.4064203111687787,2.015692303270762,2.6386539430807643,0.44976276764171663,4,1762115365.6023586
0.4747280180454254,0.14960500597953796,0.07424914091825485,0.9868007302284241,0.481373131275177,0.3499611020088196,-0.07050831615924835,0.9954321980476379,0.509041965007782,0.3400246500968933,0.11480395495891571,0.9939279556274414,0.480847030878067,0.9429002404212952,-0.08697421848773956,0.9757102131843567,0.4993264675140381,0.9350447654724121,0.08760009706020355,0.9641126990318298,0.45411133766174316,1.3350820541381836,-0.15796884894371033,0.8030818104743958,0.48173433542251587,1.3618485927581787,0.07865641266107559,0.4314371943473816,0.45909619331359863,1.7955656051635742,-0.022949960082769394,0.29269734025001526,0.46811842918395996,1.821176290512085,0.12011076509952545,0.23966382443904877,0.4586741030216217,0.8783563375473022,-0.147117018699646,0.22048944234848022,0.5061416625976562,0.7375677227973938,-0.18168441951274872,0.1554991751909256,179.50605561975223,0.49008674919605255,0.9389725029468536,153.04732602865258,173.6088857371061,1.6590018095590604,-0.1089527027027027,-0.24865110676843283,0.18467434198939553,-2.877181824165675,-19.754265630968685,1.186324322787066,5,1762115365.6799524
0.4740847945213318,0.14841485023498535,0.18305036425590515,0.9878774285316467,0.45078057050704956,0.34107449650764465,-0.06963126361370087,0.9957829713821411,0.5121115446090698,0.33506858348846436,0.07811619341373444,0.9937967658042908,0.4619552493095398,0.9341604709625244,-0.08561108261346817,0.9774676561355591,0.5164458751678467,0.9256262183189392,0.08647342026233673,0.9652290940284729,0.4479586184024811,1.3185352087020874,-0.0922897458076477,0.7960138320922852,0.48976731300354004,1.3231583833694458,0.11425598710775375,0.4167119264602661,0.4371182918548584,1.7787150144577026,0.021622342988848686,0.2946215271949768,0.4668900966644287,1.7541556358337402,0.24003536999225616,0.23346680402755737,0.4248206615447998,0.8775352239608765,0.004952466581016779,0.23947639763355255,0.5307470560073853,0.7076752185821533,-0.19296199083328247,0.15296338498592377,-179.24930956693777,0.48920056223869324,0.9298933446407318,165.08649669570383,167.71478152948202,1.619013556463184,-0.01150377120821031,-0.11785838084096241,1.2650041879849814,1.6978466928144105,-5.592929091164499,0.4599412694698381,6,1762115365.7569869
0.47372785210609436,0.14760753512382507,0.07227389514446259,0.9885606169700623,0.48319992423057556,0.3549668788909912,-0.06012342497706413,0.9956480264663696,0.5062773823738098,0.3352218270301819,0.06438465416431427,0.9940155744552612,0.48133572936058044,0.9266998171806335,-0.0846765786409378,0.9740403890609741,0.4977800250053406,0.9192640781402588,0.08547110110521317,0.9635995030403137,0.4579281210899353,1.3048983812332153,-0.10112877935171127,0.7624534368515015,0.4814038872718811,1.3285388946533203,0.04453296586871147,0.3995794355869293,0.45230191946029663,1.7320507764816284,0.05211898684501648,0.28218382596969604,0.461371511220932,1.764308214187622,0.11223425716161728,0.2271805852651596,0.4588739275932312,0.8681212663650513,-0.1053934246301651,0.24087511003017426,0.4863901734352112,0.7316973209381104,-0.3680003881454468,0.16477155685424805,179.48635572570916,0.4895578771829605,0.9229819476604462,157.61046089869657,165.46555430854082,1.6006917174501512,0.004682798453948088,-0.09057745726328814,0.2121334262806003,0.3575307128947025,-40.550265669374454,0.4037926334878607,7,1762115365.8332906
0.4750767648220062,0.14695733785629272,0.08883585780858994,0.989224910736084,0.4861915111541748,0.3567226529121399,0.006823353469371796,0.9956551790237427,0.5013073682785034,0.33508238196372986,0.04265232011675835,0.9939557909965515,0.4860152304172516,0.9113554358482361,-0.06251456588506699,0.974559485912323,0.4995277523994446,0.8963691592216492,0.06326479464769363,0.9638202786445618,0.4611665606498718,1.2931580543518066,-0.11340280622243881,0.7500454783439636,0.4863346219062805,1.2795993089675903,0.044309407472610474,0.3855542242527008,0.4508485794067383,1.717506766319275,-0.014931525103747845,0.28619393706321716,0.46221575140953064,1.6883608102798462,0.13424120843410492,0.22434978187084198,0.49407729506492615,0.8133388757705688,-0.12475462257862091,0.23994281888008118,0.4678981304168701,0.6695024967193604,-0.44473791122436523,0.1778324842453003,179.89957653714308,0.4927714914083481,0.9038622975349426,159.23288830705715,164.7176932781233,1.5563605456977552,0.04299893131719144,-0.2558255175933901,0.5126790740193098,-2.211058794891977,-55.06547324079792,0.056793316767787115,8,1762115365.9080276
0.4823271334171295,0.13485999405384064,-0.21315264701843262,0.9897293448448181,0.5436533689498901,0.32694870233535767,-0.003507541958242655,0.9945443868637085,0.44060149788856506,0.33525946736335754,-0.025583352893590927,0.9941778182983398,0.5280043482780457,0.88736891746521,-0.04042380303144455,0.9688690900802612,0.4709424376487732,0.8772830367088318,0.040875159204006195,0.9625281095504761,0.5017390847206116,1.2479126453399658,-0.09037844836711884,0.7265697717666626,0.47933927178382874,1.2615762948989868,0.013904958963394165,0.3775908946990967,0.48483791947364807,1.6130484342575073,0.06971684843301773,0.2807290852069855,0.4555724561214447,1.6466602087020874,0.14756105840206146,0.22310583293437958,0.538252592086792,0.7685038447380066,-0.16334882378578186,0.23616217076778412,0.43301087617874146,0.7091819643974304,-0.3253576159477234,0.20787708461284637,-179.23648249455601,0.4994733929634094,0.8823259770870209,148.44411434236403,156.4038609093508,1.529282450926753,0.09232193177787412,-0.29667321890723736,0.6794481605257663,-0.5626968201483031,175.3892787233424,0.3612472580479347,9,1762115365.9806204
0.4839595854282379,0.12387089431285858,0.054064132273197174,0.990386962890625,0.503389835357666,0.34395572543144226,0.016101988032460213,0.9947736263275146,0.4806886315345764,0.33538785576820374,-0.07992596179246902,0.9945130348205566,0.5155062675476074,0.8897711634635925,0.000604954781010747,0.9709498882293701,0.47951942682266235,0.8730043768882751,-0.0005555424140766263,0.9645845890045166,0.4993754029273987,1.1592296361923218,0.05091211944818497,0.7085812091827393,0.4983751177787781,1.1467292308807373,0.05466732382774353,0.3704089820384979,0.4801168441772461,1.3443429470062256,0.06092291325330734,0.3022269606590271,0.4558632969856262,1.3146839141845703,0.0522967167198658,0.24048130214214325,0.5022592544555664,0.7720039486885071,-0.11540795862674713,0.2287314236164093,0.46235132217407227,0.7126902937889099,-0.3513699471950531,0.20501092076301575,-179.4210909303866,0.4975128471851349,0.8813877701759338,172.10915290798755,158.24626085187398,1.205750982250777,-0.03225083734027783,-0.015433436350372979,-2.049213111153848,4.626374237912048,-159.3225316404714,0.17721880813014465,10,1762115366.041411
0.48618632555007935,0.12258338183164597,-0.06913182139396667,0.9911084771156311,0.5143575072288513,0.3518996238708496,0.009830242022871971,0.9949110746383667,0.473489910364151,0.3377954363822937,-0.09719555824995041,0.9948945045471191,0.5087265372276306,0.8873938918113708,0.008994488045573235,0.9726667404174805,0.48754754662513733,0.8682975769042969,-0.00905507244169712,0.9668043255805969,0.5195327997207642,1.1086649894714355,0.053225141018629074,0.6893953680992126,0.4880102574825287,1.096669316291809,0.09345691651105881,0.3763722777366638,0.479966402053833,1.2286525964736938,0.114832803606987,0.31811749935150146,0.4606904089450836,1.2410290241241455,0.12420041859149933,0.2659410238265991,0.5196252465248108,0.7541283369064331,-0.15335437655448914,0.22318075597286224,0.4422515332698822,0.7230896949768066,-0.38674819469451904,0.21718788146972656,-179.54708819668352,0.49813704192638397,0.8778457343578339,155.28824198175434,163.92504918488646,1.1282536469655702,0.007837477996910586,-0.04447430578007688,0.5033545921256802,-0.364641289208861,-160.9594687210116,0.12598127082025815,11,1762115366.1210532
0.4857420325279236,0.11672336608171463,-0.1474238783121109,0.988979697227478,0.549893856048584,0.33972129225730896,0.009103445336222649,0.9893814325332642,0.42785748839378357,0.3392258286476135,-0.08182109892368317,0.9936597347259521,0.531339704990387,0.8620920181274414,0.013993574306368828,0.9621683359146118,0.47559356689453125,0.8458336591720581,-0.013762597925961018,0.9624441266059875,0.5261853933334351,1.1779358386993408,0.09619172662496567,0.6558504104614258,0.48210635781288147,1.1748055219650269,0.03041365183889866,0.36256033182144165,0.5038694143295288,1.456854224205017,0.299200177192688,0.30245351791381836,0.4630996584892273,1.4589149951934814,0.15315251052379608,0.2569085955619812,0.524330735206604,0.5371989607810974,-0.21156296133995056,0.2247193455696106,0.4455607831478119,0.5928183794021606,-0.5189916491508484,0.22497792541980743,-178.37552179718438,0.5034666359424591,0.8539628386497498,158.37572035463174,163.61867609216765,1.392226886565618,0.0764956369236034,-0.3427910856360681,0.9854502202715829,-4.281739286567211,-179.76738231144682,0.7061622406650054,12,1762115366.190725
0.4857941269874573,0.112574502825737,-0.1362513303756714,0.9894495010375977,0.549676775932312,0.32495176792144775,-0.05852867290377617,0.9889390468597412,0.42900437116622925,0.339246541261673,-0.06065148860216141,0.9936707615852356,0.5378536581993103,0.8341957926750183,-0.006539943628013134,0.9594225287437439,0.47446709871292114,0.8308802843093872,0.006947810295969248,0.961741030216217,0.5406123995780945,1.121055006980896,0.017088476568460464,0.6338806748390198,0.4728144109249115,1.1456007957458496,0.052530139684677124,0.35535627603530884,0.5027437806129456,1.3709546327590942,0.25442972779273987,0.285189688205719,0.4633790850639343,1.4122155904769897,0.29069334268569946,0.24731430411338806,0.529046893119812,0.5491487979888916,-0.31968286633491516,0.23547618091106415,0.4336079955101013,0.6464395523071289,-0.4362216889858246,0.24256668984889984,-178.07500729682903,0.5061603784561157,0.8325380384922028,140.66245498492225,146.44932999291296,1.3427596821891972,0.036250617632526294,-0.2883208897758555,-0.5415910386899191,0.7330241225680455,173.2442626471958,0.7111074503919795,13,1762115366.265034
0.48623624444007874,0.11346456408500671,-0.11033644527196884,0.9888673424720764,0.5554836392402649,0.3263700604438782,-0.028091823682188988,0.9877675175666809,0.4359663128852844,0.3386984169483185,-0.0454142689704895,0.9929930567741394,0.543192982673645,0.8227187991142273,-0.008355313912034035,0.9553530812263489,0.4697393774986267,0.8211554884910583,0.008714999072253704,0.9598280191421509,0.5391110777854919,1.114827036857605,-0.004183120094239712,0.6142033338546753,0.46483486890792847,1.1402308940887451,0.0031888429075479507,0.349642276763916,0.49883756041526794,1.3460806608200073,0.24389824271202087,0.26851218938827515,0.45255881547927856,1.3872580528259277,0.2532217502593994,0.23881106078624725,0.5274450778961182,0.5530572533607483,-0.26657646894454956,0.24540585279464722,0.4390327036380768,0.5817697644233704,-0.4386775493621826,0.2661191523075104,-178.7426987793183,0.5064661800861359,0.8219371438026428,133.54971225607662,133.66353312536728,1.3036256974616462,0.0047707829644783335,-0.16538357820345917,-0.4911139909523238,1.9179336346563076,174.11069995378696,0.4087871726791989,14,1762115366.3291328
0.48894840478897095,0.13028009235858917,0.13060547411441803,0.9886804223060608,0.4679637849330902,0.32588130235671997,-0.07921040058135986,0.9885079264640808,0.5193073153495789,0.3071909248828888,-0.05941159278154373,0.9917441606521606,0.508246660232544,0.7982833981513977,-0.009922681376338005,0.9578185081481934,0.50465989112854,0.7804641127586365,0.010301539674401283,0.9608749747276306,0.5316629409790039,1.0266714096069336,0.02424396388232708,0.5881377458572388,0.4708016514778137,1.0082272291183472,0.11829861253499985,0.33242741227149963,0.48904862999916077,1.1532878875732422,0.40425997972488403,0.24754466116428375,0.4624742865562439,1.1847648620605469,0.3433835804462433,0.22837033867835999,0.47588616609573364,0.600570023059845,-0.11556883156299591,0.24559569358825684,0.49797987937927246,0.38886773586273193,-0.4250645041465759,0.2641271948814392,-178.44720111228207,0.506453275680542,0.7893737554550171,115.94277503247567,152.90738275551377,1.0669216964564412,-0.00016261322837957608,-0.4103434030855203,-0.062167565639528015,-3.0868301261612117,-20.002818837584233,0.503211647467785,15,1762115366.4084892
0.49185213446617126,0.13094578683376312,0.2946915030479431,0.9893805384635925,0.433718740940094,0.3189627528190613,-0.07443442940711975,0.9894813895225525,0.5667411684989929,0.2988222539424896,-0.03223980590701103,0.9904882311820984,0.473062127828598,0.7871242761611938,-0.018402688205242157,0.9614964127540588,0.5310448408126831,0.7644729018211365,0.01900813914835453,0.9628947377204895,0.49187883734703064,1.0278176069259644,0.16181246936321259,0.6099732518196106,0.5035168528556824,0.9830589890480042,0.273406445980072,0.32781466841697693,0.47950872778892517,1.275857925415039,0.49183282256126404,0.26170384883880615,0.4858008921146393,1.1972875595092773,0.5751937627792358,0.22331681847572327,0.4323946535587311,0.6299892067909241,-0.03760441765189171,0.25623929500579834,0.5259727239608765,0.4696597158908844,-0.19912979006767273,0.24317103624343872,-179.77622904914475,0.5020534843206406,0.7757985889911652,162.91603111455174,174.35783654789557,1.13116373836361,-0.05982469064962768,-0.18458378313542043,-0.8112351321405087,3.0696908830228766,-8.609578813138086,0.1212127984923453,16,1762115366.482034
0.4921012818813324,0.14776742458343506,0.15759052336215973,0.99022376537323,0.4335100054740906,0.33532825112342834,-0.14568519592285156,0.990288496017456,0.5578052997589111,0.2982403337955475,-0.16953232884407043,0.9904297590255737,0.4775683879852295,0.7920444011688232,-0.008404605090618134,0.9651698470115662,0.5329954028129578,0.7642473578453064,0.008407799527049065,0.9662464261054993,0.49576514959335327,0.9617906212806702,0.3048526644706726,0.6151456832885742,0.5059670209884644,0.9193251132965088,0.3553650677204132,0.33504533767700195,0.47986412048339844,1.030470609664917,0.7155852913856506,0.2626221477985382,0.49523669481277466,1.0304774045944214,0.6715697050094604,0.23319131135940552,0.4223264157772064,0.6537187099456787,-0.00016073958249762654,0.2604406476020813,0.5205155611038208,0.41584789752960205,-0.08117155730724335,0.22746284306049347,-178.8049535504761,0.5052818953990936,0.7781458795070648,160.36936397901252,174.78304337696866,1.0327021150941533,0.04416756909267045,0.03211304679676823,1.4227077053247266,2.9646076585695087,-16.614342086739374,0.722721015010848,17,1762115366.5551286
0.4932654798030853,0.1504676342010498,0.07214391231536865,0.9909676909446716,0.4214801788330078,0.33079808950424194,-0.1815480887889862,0.9909677505493164,0.5635791420936584,0.3092915117740631,-0.1674296110868454,0.9906748533248901,0.46906358003616333,0.7901115417480469,-0.008383194915950298,0.967616081237793,0.545718789100647,0.7771224975585938,0.008348314091563225,0.9680777192115784,0.45341044664382935,0.8455963730812073,0.4125317633152008,0.567319929599762,0.5596770644187927,0.8840288519859314,0.419029176235199,0.3100382089614868,0.4651758670806885,0.9585752487182617,0.6842271089553833,0.2573436200618744,0.5086086392402649,0.9494612812995911,0.702251672744751,0.2265024334192276,0.4278615415096283,0.4450189769268036,0.22766277194023132,0.24121953547000885,0.5329763293266296,0.36458730697631836,0.03436805307865143,0.20960356295108795,-178.1638005048004,0.5073911845684052,0.7836170196533203,164.30282493609752,168.04534982783866,1.0156248459671615,0.0373412458900149,0.09685689021327604,-0.12084801692613635,1.1461755988959805,-8.606358267219596,0.7562153574461608,18,1762115366.6116154
0.49301034212112427,0.17261330783367157,0.06883080303668976,0.9916000366210938,0.42425641417503357,0.3304573595523834,-0.17935386300086975,0.9916212558746338,0.5654625296592712,0.3171598017215729,-0.14666655659675598,0.9911522269248962,0.46710848808288574,0.7799465656280518,-0.0022209142334759235,0.970202624797821,0.546413779258728,0.7799273729324341,0.0019038228783756495,0.9703116416931152,0.44696101546287537,0.7700960040092468,0.43100136518478394,0.5185152888298035,0.5644727945327759,0.8297660946846008,0.43858638405799866,0.2873782515525818,0.4677521586418152,0.9099442362785339,0.7279058694839478,0.2496730387210846,0.5283837914466858,0.9153019189834595,0.7263784408569336,0.2193503975868225,0.40663042664527893,0.42543554306030273,0.24033264815807343,0.2238749861717224,0.5361220240592957,0.40402472019195557,0.3086962103843689,0.19166594743728638,-178.50533246569887,0.5067611336708069,0.7799369692802429,152.75427641667198,166.38822857300292,0.9904614456880402,-0.007728645964331464,-0.04514207752554646,-0.552858886672123,-1.7418588770167058,-5.379750243042698,1.5557870236566458,19,1762115366.693137
0.4927980303764343,0.18845583498477936,0.11683301627635956,0.9922672510147095,0.42893990874290466,0.3290301263332367,-0.12412726879119873,0.9921602010726929,0.5576457381248474,0.3234460651874542,-0.11830107122659683,0.9914100766181946,0.4697776436805725,0.7485909461975098,0.002276910934597254,0.9723777174949646,0.542941689491272,0.7536382675170898,-0.0028166004922240973,0.9724189043045044,0.4427022337913513,0.7863906621932983,0.36825788021087646,0.4764353036880493,0.5721760392189026,0.8709301352500916,0.3254317045211792,0.2701098322868347,0.4640243947505951,0.920397937297821,0.5837848782539368,0.23228874802589417,0.5191240906715393,0.9454411268234253,0.5810676217079163,0.20513500273227692,0.41620945930480957,0.20148466527462006,0.3380360007286072,0.23256853222846985,0.5278929471969604,0.2018694281578064,0.4161091446876526,0.18096725642681122,-178.23845508705764,0.5063596665859222,0.7511146068572998,152.5307687598302,163.58072829159048,0.878068763361708,-0.005648009633187539,-0.40548524834303806,0.029271276485437148,-5.069460926330562,-2.484290060611091,0.8235806517839213,20,1762115366.764218
0.4915035367012024,0.18977873027324677,0.17143359780311584,0.9929096102714539,0.42457127571105957,0.32844334840774536,-0.11633626371622086,0.9926812052726746,0.5586164593696594,0.3283422291278839,-0.08103843033313751,0.9918802976608276,0.4670308530330658,0.7430970668792725,0.006868647877126932,0.9742840528488159,0.5427574515342712,0.750270426273346,-0.007293307688087225,0.9743579626083374,0.44437989592552185,0.8164945840835571,0.3944418132305145,0.45010730624198914,0.5670554041862488,0.9098526239395142,0.35302621126174927,0.2889550030231476,0.46379509568214417,0.996535062789917,0.5588291883468628,0.22462335228919983,0.5288680791854858,1.0488392114639282,0.5475218296051025,0.21549803018569946,0.4272535741329193,0.5020650029182434,0.24634556472301483,0.21219322085380554,0.53373122215271,0.43079307675361633,0.38873711228370667,0.16492722928524017,-178.17879515557658,0.5048941522836685,0.7466837465763092,142.32721677105727,162.8520016059899,0.9162350195377374,-0.024764763827112745,-0.07487419825307806,-0.3230414756276883,5.5867790314434655,-0.0432220442862886,1.416873976321216,21,1762115366.8366654
0.49062594771385193,0.19827376306056976,0.15289175510406494,0.9934999942779541,0.42478910088539124,0.32833433151245117,-0.14171266555786133,0.9931367039680481,0.5562547445297241,0.33205512166023254,-0.11219693720340729,0.9920161366462708,0.46750158071517944,0.7368370294570923,0.007916746661067009,0.9764291644096375,0.5413380265235901,0.7383334636688232,-0.008321003057062626,0.9763507843017578,0.44677290320396423,0.8140022158622742,0.3648845851421356,0.4527083933353424,0.5585508942604065,0.8907910585403442,0.36818021535873413,0.3111414909362793,0.46447697281837463,0.9909602403640747,0.5457810163497925,0.23921048641204834,0.5223292112350464,1.0180506706237793,0.5602501630783081,0.23751480877399445,0.44561657309532166,0.28029441833496094,0.2813515067100525,0.2090320736169815,0.5353070497512817,0.4193485975265503,0.4099472463130951,0.1508502960205078,-178.04614689921047,0.5044198036193848,0.7375852465629578,147.04232550083856,163.87164034600747,0.9000646295891696,-0.006187778161359247,-0.11868801142036071,0.2423328552637617,-0.5715419409723675,1.6211739513512207,1.5008824000192118,22,1762115366.9000545
0.48708024621009827,0.20154285430908203,0.132158562541008,0.9940798878669739,0.42525142431259155,0.3291754722595215,-0.1353658139705658,0.993600606918335,0.5534849166870117,0.3423815667629242,-0.10701026022434235,0.9925362467765808,0.46413668990135193,0.7292322516441345,0.004448491148650646,0.9783992767333984,0.5401874780654907,0.7255012392997742,-0.005036856047809124,0.9782605171203613,0.443422794342041,0.7985416650772095,0.37233951687812805,0.4453178942203522,0.5437694787979126,0.8582195043563843,0.39505141973495483,0.3139364421367645,0.46374592185020447,0.9776462316513062,0.5138306617736816,0.25957441329956055,0.5189247131347656,1.000717043876648,0.5448086261749268,0.26146239042282104,0.4431335926055908,0.570343017578125,0.21800968050956726,0.19286219775676727,0.5394114255905151,0.5383480191230774,0.22161611914634705,0.1396937519311905,-178.1287062850066,0.5021620839834213,0.7273667454719543,138.1956485474765,153.78195854373845,0.8821167062465094,-0.03512957178523599,-0.15899740689491432,-0.45032731279302546,-0.6272044497405117,5.879863151018814,5.656470763261699,23,1762115366.9643228
0.4826222360134125,0.20419734716415405,0.13421067595481873,0.9945937395095825,0.4244312345981598,0.3287340998649597,-0.13155852258205414,0.9940468668937683,0.5474624037742615,0.34253454208374023,-0.08663374185562134,0.9930098056793213,0.4648275375366211,0.6990607976913452,0.00229177949950099,0.9802685379981995,0.5360643267631531,0.696337103843689,-0.0027915930841118097,0.9800551533699036,0.4466286301612854,0.8154372572898865,0.35161587595939636,0.46587926149368286,0.5418013334274292,0.8681301474571228,0.3561060130596161,0.3432423174381256,0.46435412764549255,0.9921903014183044,0.44912242889404297,0.29209643602371216,0.5290929675102234,1.0258276462554932,0.5309579372406006,0.2985328733921051,0.4290367662906647,0.6327658891677856,0.0830107182264328,0.1808049976825714,0.5341062545776367,0.5718051195144653,0.1580764204263687,0.13144244253635406,-177.70677866357224,0.5004459321498871,0.6976989507675171,136.63394157459186,163.07713533694638,0.8800768372973998,-0.030689473235413246,-0.5305410475601697,0.07940106635364533,-6.644213171105091,6.400131291935315,5.777538512439865,24,1762115367.0202427
0.4786798059940338,0.2050935924053192,0.10882395505905151,0.9950891137123108,0.4227656424045563,0.327952116727829,-0.12896563112735748,0.9945209622383118,0.5450583100318909,0.3393773138523102,-0.09339533746242523,0.9935134053230286,0.4659603238105774,0.6869426369667053,0.005267232656478882,0.981997549533844,0.535955011844635,0.689439594745636,-0.005632956512272358,0.9817298650741577,0.4493427872657776,0.7700614333152771,0.34088438749313354,0.49825361371040344,0.5432801842689514,0.845027506351471,0.3474896550178528,0.3957919180393219,0.46524539589881897,0.9151495099067688,0.5822368860244751,0.32938331365585327,0.5353652834892273,0.9833859205245972,0.6174067854881287,0.35081881284713745,0.42827969789505005,0.6274476647377014,0.05041554570198059,0.17057393491268158,0.5389643311500549,0.5497553944587708,0.17937278747558594,0.1250452697277069,-177.2473286711915,0.5009576678276062,0.6881911158561707,161.8870631853458,175.75524087264392,0.8918193245369687,0.0064646344475299536,-0.12011020486841074,0.4693589578607166,5.184874691207752,5.337367754358014,4.266912363336389,25,1762115367.099402
0.4787168502807617,0.20709460973739624,0.10598625987768173,0.9955379366874695,0.41989460587501526,0.32655346393585205,-0.10616783052682877,0.9949508905410767,0.5389950275421143,0.334439754486084,-0.09380073100328445,0.9939273595809937,0.4667719900608063,0.6755865812301636,0.02172793820500374,0.9835638999938965,0.5325472354888916,0.6790643334388733,-0.02206454798579216,0.9832560420036316,0.4516618847846985,0.7852096557617188,0.3302259147167206,0.5200235247612,0.5450750589370728,0.8452158570289612,0.2712039053440094,0.4435255825519562,0.4666147828102112,0.9253867864608765,0.5690255165100098,0.3483070433139801,0.5419957041740417,0.9855091571807861,0.5196484327316284,0.38865748047828674,0.4413200318813324,0.6269412040710449,-0.02040218934416771,0.16043543815612793,0.5296200513839722,0.5323613286018372,0.04005008563399315,0.11809878051280975,-176.66430967640292,0.49965961277484894,0.6773254573345184,167.72870325826923,177.23952796579422,0.8676628778071237,-0.013637858046416092,-0.11415872399584184,-0.21120440032896529,0.06252851227969698,3.7883368613888746,3.404441484399055,26,1762115367.1945822
0.4776104986667633,0.20448678731918335,0.11922075599431992,0.995949387550354,0.41977453231811523,0.3210887610912323,-0.10694801807403564,0.9953925609588623,0.5301254987716675,0.328797847032547,-0.08760637789964676,0.9943639039993286,0.4667799472808838,0.6623923182487488,0.017770931124687195,0.9851256012916565,0.5210582613945007,0.6618712544441223,-0.018056068569421768,0.984792172908783,0.45402398705482483,0.7816264033317566,0.31930992007255554,0.551728367805481,0.5259953141212463,0.8308019638061523,0.2887592315673828,0.48710793256759644,0.47035765647888184,0.9212492108345032,0.5632318258285522,0.3818765878677368,0.541508674621582,0.9558883905410767,0.5509408712387085,0.42415085434913635,0.42889243364334106,0.6050997376441956,-0.03691691905260086,0.16178496181964874,0.5293818712234497,0.5276517868041992,0.15151667594909668,0.11343716084957123,-176.78012624330083,0.49391910433769226,0.6621317863464355,170.0713174947092,175.97426427459308,0.8552221073735761,-0.07294712134203056,-0.1930725428473613,-0.7536684378560987,-1.0027919969709287,3.9961737357092098,1.1911878533086973,27,1762115367.2732763
0.4749130606651306,0.20293249189853668,0.051253557205200195,0.996320903301239,0.4175921380519867,0.3158315122127533,-0.14739881455898285,0.9957908987998962,0.5226471424102783,0.3240281939506531,-0.09906310588121414,0.9947280287742615,0.46676164865493774,0.6509132981300354,0.00010663053399184719,0.9865428805351257,0.5129365921020508,0.6452083587646484,-0.0003076224820688367,0.9861388802528381,0.4659815728664398,0.7758855819702148,0.2542535662651062,0.583312451839447,0.5140326619148254,0.7923098802566528,0.27959272265434265,0.5177338123321533,0.47579461336135864,0.8995615839958191,0.4693092703819275,0.4279358386993408,0.5189183950424194,0.9033067226409912,0.5236961841583252,0.45849841833114624,0.43027448654174805,0.60600346326828,-0.10348103195428848,0.16322918236255646,0.5278464555740356,0.5603098273277283,0.020907482132315636,0.11588144302368164,-176.55912810493447,0.48984912037849426,0.6480608284473419,175.5525425069383,176.60912434117913,0.828646548660893,-0.05681916522433764,-0.19643814072693383,0.22515494227221375,-0.04698555667914577,4.461336819287742,2.6841417538935444,28,1762115367.3449068
0.4699639678001404,0.1964935064315796,0.017143061384558678,0.9966594576835632,0.41641274094581604,0.3140736222267151,-0.15382224321365356,0.9961671829223633,0.5144825577735901,0.3215939700603485,-0.1089828610420227,0.9951127171516418,0.4668360650539398,0.6428610682487488,0.00031727267196401954,0.9878519773483276,0.49393707513809204,0.6374423503875732,-0.0005249834503047168,0.987440824508667,0.4673977792263031,0.7683378458023071,0.25937893986701965,0.5993449091911316,0.4969683289527893,0.7813762426376343,0.25109395384788513,0.5418678522109985,0.47734183073043823,0.8838911056518555,0.4762558043003082,0.4703982472419739,0.5001313090324402,0.8891550898551941,0.48425331711769104,0.49359869956970215,0.42843469977378845,0.6062597632408142,-0.10671202838420868,0.1715746968984604,0.508910596370697,0.555705189704895,0.05047336965799332,0.1141599640250206,-177.34633117891232,0.48038657009601593,0.640151709318161,176.86649349411744,175.0283538435543,0.8312433508277616,-0.1481932226362679,-0.12386490079083556,-1.4310112632425334,1.1365712183532724,4.385065513546652,2.279179913608594,29,1762115367.4087596
0.46974435448646545,0.19619369506835938,0.03695852309465408,0.9969730973243713,0.41533613204956055,0.3071664869785309,-0.1455785632133484,0.9965168237686157,0.5143144130706787,0.31084322929382324,-0.10638976097106934,0.9955264329910278,0.4608321189880371,0.6275081038475037,-0.0031564696691930294,0.9890183210372925,0.4998013973236084,0.6154171824455261,0.002974763512611389,0.9885918498039246,0.46356281638145447,0.7319967746734619,0.26829349994659424,0.6163738369941711,0.5042906999588013,0.7300353050231934,0.2689773142337799,0.5660914778709412,0.47404390573501587,0.8474060297012329,0.4897843301296234,0.508484423160553,0.499390184879303,0.8433317542076111,0.4987180829048157,0.5272477865219116,0.4264284670352936,0.6052661538124084,-0.13169610500335693,0.18279153108596802,0.5217769742012024,0.5584294199943542,-0.06174098700284958,0.13888046145439148,-177.1616308422205,0.48031675815582275,0.6214626431465149,173.2631791725418,176.44141180158329,0.7942500278864104,-0.0009608348537152008,-0.25722113024531745,2.026387024708651,-1.835406849678591,2.1273859054297612,5.549943389979515,30,1762115367.4814172
0.4699217677116394,0.19218192994594574,0.045187078416347504,0.9972516894340515,0.4160543382167816,0.3036711513996124,-0.1392667591571808,0.9968447089195251,0.5153029561042786,0.3061223030090332,-0.10956394672393799,0.9959120154380798,0.4612956941127777,0.6169918775558472,-0.002932832343503833,0.9900909066200256,0.5006406307220459,0.6047971844673157,0.002731409389525652,0.9896718859672546,0.46238622069358826,0.73722904920578,0.25269487500190735,0.6416330337524414,0.5020614862442017,0.7340763807296753,0.26047301292419434,0.5893471240997314,0.47400742769241333,0.8497704267501831,0.47159940004348755,0.5447107553482056,0.49944910407066345,0.8444688320159912,0.48335251212120056,0.552744448184967,0.42308124899864197,0.6002746820449829,-0.10247480869293213,0.22493837773799896,0.5325800180435181,0.5671020746231079,0.013790272176265717,0.16003410518169403,-177.1395325607042,0.4809681624174118,0.6108945310115814,176.78712699209635,179.0220829695657,0.7849200738154664,0.011658278431104814,-0.1891390662069672,0.22584613718860935,1.2184747713918511,1.4147511760133966,3.393588390260369,31,1762115367.537292
0.4700300097465515,0.19216005504131317,0.03384900838136673,0.9974954724311829,0.416400283575058,0.30291932821273804,-0.13738299906253815,0.9971152544021606,0.5161784291267395,0.305145263671875,-0.11348644644021988,0.9962553977966309,0.4637036919593811,0.6006524562835693,-0.004895633086562157,0.9910553693771362,0.5020981431007385,0.5877596735954285,0.004622256848961115,0.9906421899795532,0.4634397625923157,0.7294062376022339,0.2294197827577591,0.6691008806228638,0.5050806999206543,0.7118262648582458,0.24480530619621277,0.6127747297286987,0.47695350646972656,0.8441824316978455,0.433826208114624,0.582274317741394,0.5017863512039185,0.823481559753418,0.46183425188064575,0.5796940922737122,0.42443928122520447,0.584052562713623,-0.07499673962593079,0.22534142434597015,0.5338108539581299,0.5650453567504883,0.02956242486834526,0.16650323569774628,-176.72356784845152,0.4829009175300598,0.5942060649394989,176.58789342080172,178.55654901031178,0.7638699914140465,0.024393404368000096,-0.2106260118076828,0.16073069713962684,-0.27118787540205685,1.2779908385636753,3.250351036827344,32,1762115367.6165247
0.4695807993412018,0.19453755021095276,0.034368883818387985,0.9977046251296997,0.41707149147987366,0.3039107918739319,-0.12907721102237701,0.9973496794700623,0.5144575238227844,0.3046427071094513,-0.11227867752313614,0.9965580105781555,0.4646691381931305,0.5903401970863342,-0.009789823554456234,0.9919227361679077,0.5013724565505981,0.5750067234039307,0.009494041092693806,0.9915089011192322,0.4631972908973694,0.718654215335846,0.1912047415971756,0.6949844360351562,0.504913866519928,0.6995075941085815,0.22507445514202118,0.6291384696960449,0.4779995381832123,0.8508239984512329,0.3704683780670166,0.6156603097915649,0.5027821063995361,0.8247122168540955,0.4202145040035248,0.59878009557724,0.4245310425758362,0.5733295679092407,-0.06722453236579895,0.22013325989246368,0.5361695289611816,0.5597378015518188,0.030880261212587357,0.17387068271636963,-176.45308581029155,0.4830207973718643,0.5826734602451324,174.32764936736953,176.98604147910788,0.7378887410346204,0.0018836373376489583,-0.1812084873959024,-0.3536894694046532,0.4622290664479943,0.4306045066722417,2.7234258745325115,33,1762115367.6801674
0.46800342202186584,0.1972668468952179,0.032872315496206284,0.9978761076927185,0.417558491230011,0.3043525516986847,-0.11447171866893768,0.9975522756576538,0.5121102333068848,0.30438053607940674,-0.11202511936426163,0.9968278408050537,0.46465176343917847,0.5803266167640686,-0.008669985458254814,0.992694079875946,0.49944549798965454,0.5667581558227539,0.00833065900951624,0.9922798871994019,0.4632943272590637,0.7089564204216003,0.19143041968345642,0.7146509289741516,0.5013161897659302,0.694463849067688,0.2030392587184906,0.6429113745689392,0.4786784052848816,0.836474597454071,0.3630990982055664,0.6408841609954834,0.5028581023216248,0.8095778822898865,0.39010104537010193,0.6105273962020874,0.42555171251296997,0.5621950626373291,-0.06640233844518661,0.21439281105995178,0.5358691215515137,0.5490099787712097,0.04476447030901909,0.17352640628814697,-176.34081719654856,0.4820486307144165,0.5735423862934113,174.09899013958992,178.3078603457639,0.714312134791196,-0.015305361204741493,-0.143755583415286,-0.2706159786735774,0.589641929393783,0.01695777175146344,2.033823017927341,34,1762115367.7436855
0.46783819794654846,0.20114746689796448,0.03686187043786049,0.9980100393295288,0.41909804940223694,0.3048552870750427,-0.0879407450556755,0.9976981282234192,0.5103090405464172,0.30440008640289307,-0.11099741607904434,0.997035562992096,0.46646928787231445,0.5687069892883301,0.006943958345800638,0.9933643937110901,0.49721550941467285,0.5594368577003479,-0.00719929113984108,0.9929590821266174,0.4678861200809479,0.6919186115264893,0.19788607954978943,0.7227420210838318,0.4982892870903015,0.6877853274345398,0.17499028146266937,0.6592143774032593,0.4807213842868805,0.8164970278739929,0.36174601316452026,0.6567471027374268,0.4954104423522949,0.8071898818016052,0.3453727662563324,0.6257158517837524,0.43249577283859253,0.5494619607925415,-0.06045997142791748,0.20369981229305267,0.5303680300712585,0.5397039651870728,0.035820480436086655,0.1692025065422058,-176.22053936222392,0.48184239864349365,0.564071923494339,174.53362462428805,178.85817466845674,0.6882267568675462,-0.0028857284879783554,-0.13251665549072397,0.1737832907394821,0.15726212873252193,-0.28593989049939456,3.4420830985011643,35,1762115367.8151517
0.4678593575954437,0.2027326226234436,0.03972718492150307,0.9981584548950195,0.4200823903083801,0.30431437492370605,-0.08355844765901566,0.9978767037391663,0.5100244879722595,0.3042410910129547,-0.1054123044013977,0.9972682595252991,0.4664607644081116,0.5584366321563721,0.007815087214112282,0.9940009713172913,0.49778279662132263,0.5491328835487366,-0.00808738823980093,0.9936071634292603,0.46777042746543884,0.6958763003349304,0.17612943053245544,0.7377380132675171,0.49918097257614136,0.6814519762992859,0.16856582462787628,0.6748905777931213,0.4816203713417053,0.8293240070343018,0.322359561920166,0.6760161519050598,0.4957168996334076,0.8092002272605896,0.32976457476615906,0.6371758580207825,0.4317973256111145,0.545828104019165,-0.044994253665208817,0.20118050277233124,0.5303147435188293,0.5323869585990906,0.03984048590064049,0.17241905629634857,-176.08659234321703,0.4821217805147171,0.5537847578525543,175.16027826769826,177.91495680688934,0.6800950735952349,0.003918436989008563,-0.1442814101942478,0.09543100834569401,-0.16500515869202528,-0.046684010848558895,3.2862058998633827,36,1762115367.886451
0.4679592251777649,0.20309358835220337,0.040521495044231415,0.9982122778892517,0.4230995178222656,0.3045601546764374,-0.08199112862348557,0.9979715347290039,0.5101444721221924,0.3037039339542389,-0.09990159422159195,0.9974019527435303,0.46647119522094727,0.5528014898300171,0.008229468949139118,0.9945359826087952,0.4980933666229248,0.5440257787704468,-0.008426067419350147,0.994117796421051,0.4717569947242737,0.6885356903076172,0.15342506766319275,0.7543443441390991,0.500046968460083,0.6775722503662109,0.1482730656862259,0.695766270160675,0.48742467164993286,0.8253828883171082,0.2866477072238922,0.6960321664810181,0.496992290019989,0.8100107908248901,0.2950289845466614,0.6580055356025696,0.4376174807548523,0.5353266000747681,-0.056704867631196976,0.1929522007703781,0.5302773118019104,0.5288663506507874,0.0023768297396600246,0.1764993816614151,-176.33192938019295,0.48228228092193604,0.5484136343002319,175.82225603206794,177.7990646032586,0.6640660423659837,0.0022007718536583773,-0.07364852053209192,-0.023552520204715554,0.9685139010207662,-0.563573752937046,2.4828042536234056,37,1762115367.9593801
0.4705795347690582,0.2068985253572464,0.04098662734031677,0.9982654452323914,0.4315846562385559,0.30477824807167053,-0.06235409528017044,0.9980372786521912,0.5105594992637634,0.30401432514190674,-0.09970839321613312,0.9974666237831116,0.47588032484054565,0.5520145893096924,0.007306803949177265,0.9950442314147949,0.49849969148635864,0.5420191884040833,-0.0075063556432724,0.9945911169052124,0.4819028973579407,0.6834107041358948,0.166780486702919,0.7723333239555359,0.5002495646476746,0.6660069227218628,0.16661730408668518,0.6983984708786011,0.4941670894622803,0.8182073831558228,0.3030507266521454,0.7158504724502563,0.4971495568752289,0.7897417545318604,0.3422512412071228,0.6578725576400757,0.4738241136074066,0.515228807926178,-0.02952190302312374,0.1793004274368286,0.5301021337509155,0.5196149349212646,0.013930614106357098,0.1699765920639038,-176.19927400971602,0.48719000816345215,0.5470168888568878,174.42034431325584,178.61977302228414,0.6606538860145131,0.06871784771207574,-0.019557187256927868,0.931370075016486,0.7573852049278876,-0.5542042633276484,3.516824412140572,38,1762115368.0307987
0.4729215204715729,0.2321893274784088,0.042543910443782806,0.998278021812439,0.43302375078201294,0.3269006609916687,-0.07643254101276398,0.9981523156166077,0.5133433938026428,0.32172441482543945,-0.07348217070102692,0.9963904023170471,0.4757955074310303,0.5627625584602356,-0.0018370088655501604,0.9955058693885803,0.49977773427963257,0.5537137985229492,0.0016949542332440615,0.9949434995651245,0.4802023768424988,0.686586320400238,0.16585856676101685,0.7911254167556763,0.4995390772819519,0.6691545248031616,0.1821562647819519,0.7118047475814819,0.4922604560852051,0.8167475461959839,0.31728246808052063,0.7384317517280579,0.497200071811676,0.7807528972625732,0.3642660677433014,0.6726718544960022,0.46654096245765686,0.539982795715332,-0.08779687434434891,0.193306103348732,0.5077106356620789,0.408048540353775,0.0632777288556099,0.15497437119483948,-176.42788744279616,0.4877866208553314,0.5582381784915924,175.18931811689367,178.70163852692076,0.6406311062553492,0.009396932748021945,0.1767406317006951,-0.9343325344160494,3.0917837123408596,-3.687360693887501,3.004410604190395,39,1762115368.0942888
0.4743581712245941,0.2595751881599426,0.054936908185482025,0.9983557462692261,0.4322020411491394,0.35500597953796387,-0.05140460655093193,0.9982506632804871,0.5098885297775269,0.3493184447288513,-0.08071716129779816,0.9965804219245911,0.4660419821739197,0.5679088830947876,0.0011576461838558316,0.9959408044815063,0.49395552277565,0.5587936639785767,-0.001127075171098113,0.9953622817993164,0.47550278902053833,0.6925386786460876,0.1319790631532669,0.8086691498756409,0.49053412675857544,0.665278971195221,0.17423203587532043,0.7143149375915527,0.4836603105068207,0.8234174251556396,0.24674396216869354,0.7574977874755859,0.4973728656768799,0.7083747386932373,0.403031587600708,0.6503938436508179,0.46182218194007874,0.5610372424125671,-0.03530705347657204,0.17914701998233795,0.5087680816650391,0.5300054550170898,-0.0426468551158905,0.1482296884059906,-177.57237022565448,0.47999875247478485,0.5633512735366821,174.8349798778055,159.2300326823796,0.5740169094458745,-0.09837724185703314,0.06458919993374193,-1.3614156689586367,-1.416709680804309,-4.187232521791051,1.1939340656751842,40,1762115368.1734521
0.47432979941368103,0.26200100779533386,0.0642753317952156,0.998323380947113,0.4320639669895172,0.3556205630302429,-0.03884703665971756,0.9983429312705994,0.5080348253250122,0.35215309262275696,-0.07537010312080383,0.9966806769371033,0.46257179975509644,0.5677525401115417,0.0029571729246526957,0.9963289499282837,0.4917282462120056,0.5594293475151062,-0.002839677734300494,0.9957181811332703,0.4737219214439392,0.695779025554657,0.11817313730716705,0.8229479789733887,0.49232611060142517,0.6619731783866882,0.1565205156803131,0.7077184915542603,0.48015251755714417,0.8264007568359375,0.2357371598482132,0.7720303535461426,0.49627193808555603,0.7280877232551575,0.3773285746574402,0.6307414770126343,0.4601580500602722,0.562269389629364,-0.01677735336124897,0.16710565984249115,0.5077300071716309,0.545369565486908,-0.034712083637714386,0.14090456068515778,-178.06069340640272,0.477150022983551,0.563590943813324,178.32576625353354,163.88519770446283,0.5695235058223123,-0.04475556333834012,0.0037653902483790374,0.8424346490730013,-0.955585244309518,-2.6132867111746583,1.3683439993929476,41,1762115368.237103
0.47568219900131226,0.2762198746204376,0.09435243904590607,0.9984395503997803,0.43729105591773987,0.36279740929603577,-0.03847392275929451,0.9984760284423828,0.5087088346481323,0.3638106882572174,-0.03199831768870354,0.9969106316566467,0.46303313970565796,0.568614661693573,-0.015364949591457844,0.996688187122345,0.4932401180267334,0.5603324770927429,0.015478365123271942,0.9960912466049194,0.4734560549259186,0.696521520614624,0.07002154737710953,0.8397780656814575,0.49169641733169556,0.6692314743995667,0.16558821499347687,0.720407247543335,0.48008543252944946,0.8271233439445496,0.14279738068580627,0.7915461659431458,0.49933677911758423,0.736539363861084,0.3649739623069763,0.6332053542137146,0.46568822860717773,0.5603920817375183,0.0016880512703210115,0.15802563726902008,0.5088679790496826,0.5527231097221375,-0.014239424839615822,0.15051507949829102,-178.53732140127866,0.4781366288661957,0.564473569393158,175.18884917981677,162.50468637097777,0.5303683912761415,0.013559398397693203,0.012130347166472795,0.8014505210586743,0.114963619645095,0.812860800697411,0.719839879793166,42,1762115368.3098648
0.4823001027107239,0.28291749954223633,0.0848010927438736,0.9985763430595398,0.4443575441837311,0.36577171087265015,-0.04503047093749046,0.9986115097999573,0.5103791356086731,0.36721497774124146,-0.039040811359882355,0.997170090675354,0.4669950008392334,0.5668042302131653,-0.022386595606803894,0.9970142841339111,0.4974781572818756,0.5596065521240234,0.02232997678220272,0.9964554309844971,0.4741894602775574,0.696510374546051,0.08364416658878326,0.8554989695549011,0.49274197220802307,0.6686643958091736,0.18799878656864166,0.7419388294219971,0.4807296693325043,0.8243928551673889,0.18443432450294495,0.8112605214118958,0.5026370882987976,0.7490761876106262,0.3597850203514099,0.6623703241348267,0.461361825466156,0.5586076378822327,-0.015523014590144157,0.1660524159669876,0.5172369480133057,0.550734281539917,-0.005457887426018715,0.1658623367547989,-178.58233067980112,0.4822365790605545,0.5632053911685944,178.85656970766053,170.64478730732566,0.5375910540513,0.06380938377792703,-0.019737232696467863,0.7820633056407167,-0.49596959405652546,1.2523165488527868,0.5923395833804016,43,1762115368.3741179
0.4944981038570404,0.28638410568237305,0.08776004612445831,0.9986516833305359,0.4577191472053528,0.3636590838432312,-0.05367572233080864,0.9987295866012573,0.5167335271835327,0.36751043796539307,-0.021098028868436813,0.997100830078125,0.47726377844810486,0.5594866275787354,-0.02210519090294838,0.9973082542419434,0.5047307014465332,0.5542227625846863,0.022111160680651665,0.9967681169509888,0.4785490930080414,0.6858075261116028,0.1004566177725792,0.8696508407592773,0.5000823736190796,0.652844250202179,0.19824910163879395,0.7557495832443237,0.48717984557151794,0.7993800044059753,0.21783342957496643,0.8293213844299316,0.5098470449447632,0.7373787760734558,0.3722885251045227,0.687332272529602,0.4795771539211273,0.5285149812698364,-0.030439108610153198,0.16440284252166748,0.5118235349655151,0.5024768114089966,-0.03485090285539627,0.15160313248634338,-178.87055523125943,0.49099723994731903,0.5568546950817108,176.79209747789486,174.61367354421208,0.5246992027674579,0.13819681595258154,-0.10018033909014322,1.1734395847871364,-1.2689660417898443,3.733901120337772,0.40993812781561384,44,1762115368.4375105
0.5043962597846985,0.28573909401893616,0.09924803674221039,0.9987269639968872,0.466251939535141,0.3625093698501587,-0.05171511322259903,0.9988287091255188,0.5287889242172241,0.3687465786933899,-0.01767960749566555,0.9972288608551025,0.48365887999534607,0.5564163327217102,-0.021856432780623436,0.9975690841674805,0.5138975381851196,0.552063524723053,0.021810786798596382,0.9970577955245972,0.4832070767879486,0.6761582493782043,0.09501903504133224,0.8823786377906799,0.509936511516571,0.6508350372314453,0.17740470170974731,0.7767646312713623,0.49040117859840393,0.7791712284088135,0.1845667064189911,0.8455362319946289,0.5103285908699036,0.7398032546043396,0.2996171712875366,0.7156243920326233,0.47858214378356934,0.5345327854156494,-0.023628773167729378,0.16390548646450043,0.5236278772354126,0.5369094610214233,-0.0317922942340374,0.14461849629878998,-179.61792316972574,0.49877820909023285,0.5542399287223816,175.38843396513082,176.07147423118795,0.4948312233510346,0.09710997708810665,-0.03263345433986967,-0.5127821364496162,0.8430153506579323,5.695634693210524,0.33150953750356693,45,1762115368.5176358
0.5051388740539551,0.2885957956314087,0.09381316602230072,0.998806893825531,0.4683237671852112,0.36197057366371155,-0.05122169107198715,0.9989162683486938,0.5295284986495972,0.3697085976600647,-0.022167373448610306,0.9973579049110413,0.4847230017185211,0.5542812347412109,-0.021448275074362755,0.9978069067001343,0.516579270362854,0.550729513168335,0.021369507536292076,0.9973248839378357,0.4833773076534271,0.6707276105880737,0.10793660581111908,0.8939502239227295,0.511137843132019,0.647568941116333,0.18811394274234772,0.7957525849342346,0.4915250241756439,0.7781378626823425,0.20165260136127472,0.8605039119720459,0.512275218963623,0.7322138547897339,0.3205036222934723,0.741542398929596,0.4845944344997406,0.5355096459388733,-0.023016832768917084,0.15540751814842224,0.5230535864830017,0.5352991223335266,-0.03441602736711502,0.13545197248458862,-179.47053723023575,0.5006511360406876,0.552505373954773,172.1430235280156,176.7864046238564,0.49566622529636684,0.026525473233520398,-0.0245657664593421,-0.9996585116368732,0.1142592554821084,7.205591444102068,0.3714840032948963,46,1762115368.5882444
0.5119835734367371,0.283064603805542,0.08877725899219513,0.99860680103302,0.47753119468688965,0.35958462953567505,-0.05428239703178406,0.9988794326782227,0.5349574089050293,0.36666327714920044,-0.024955851957201958,0.9972476959228516,0.49208396673202515,0.550262987613678,-0.020225586369633675,0.9980061054229736,0.5228927731513977,0.545502245426178,0.02015523985028267,0.9975287914276123,0.491485595703125,0.6502850651741028,0.12882640957832336,0.9040606021881104,0.5176962614059448,0.635028064250946,0.1879146844148636,0.8112971186637878,0.4976726472377777,0.7535585165023804,0.25145941972732544,0.8732625842094421,0.5160863399505615,0.727849006652832,0.32794058322906494,0.7635619044303894,0.4935871958732605,0.5208300948143005,-0.03144159913063049,0.14492806792259216,0.5223409533500671,0.5133386254310608,-0.11172983795404434,0.12385309487581253,-179.61420603660773,0.5074883699417114,0.547882616519928,173.30017453012002,174.43575196653921,0.499829569758992,0.12165013341138642,-0.0822494983816711,1.6924867232664544,-1.0263264041569726,7.027121944376194,0.5433644051231852,47,1762115368.6444485
0.5198952555656433,0.28261834383010864,0.06296230107545853,0.9984637498855591,0.48635464906692505,0.351633220911026,-0.07183138281106949,0.9987949728965759,0.544838547706604,0.35619446635246277,-0.032387346029281616,0.9970119595527649,0.49956783652305603,0.5322151780128479,-0.020041171461343765,0.9981426000595093,0.5314121246337891,0.5325847864151001,0.019977090880274773,0.9976338148117065,0.5006605386734009,0.6252875328063965,0.12314243614673615,0.9120180606842041,0.5274225473403931,0.617637038230896,0.165715754032135,0.8192221522331238,0.5039623379707336,0.721824586391449,0.2510288953781128,0.882692277431488,0.5234658122062683,0.7152113318443298,0.3041922450065613,0.7784656882286072,0.49682632088661194,0.47510337829589844,0.02721327170729637,0.1346077024936676,0.5251621603965759,0.47479772567749023,-0.04001336917281151,0.11282511055469513,179.9657746547666,0.5154899805784225,0.532399982213974,175.86664857961472,175.0760462626076,0.48592238169793966,0.10052473342119451,-0.19450930030551727,-0.2653997174877549,-1.4103268922554235,4.459554899616742,0.3245912382025788,48,1762115368.724047
0.5261269807815552,0.2714524269104004,0.0669734999537468,0.9985246062278748,0.4905962347984314,0.33910071849823,-0.08567757159471512,0.9988588690757751,0.5530272722244263,0.3464716374874115,-0.032666973769664764,0.997175931930542,0.5031336545944214,0.5134719014167786,-0.02646309696137905,0.9983079433441162,0.5367904901504517,0.5149886608123779,0.026310468092560768,0.9978123307228088,0.5056586265563965,0.6030728816986084,0.11115892976522446,0.9196273684501648,0.5324138402938843,0.6001582741737366,0.17030738294124603,0.8280280232429504,0.5079325437545776,0.6988889575004578,0.15606257319450378,0.893217921257019,0.5263451933860779,0.6973741054534912,0.23032303154468536,0.7972878813743591,0.4883589744567871,0.49592262506484985,-0.0682123452425003,0.1581690013408661,0.5489568710327148,0.4912371337413788,-0.0743621438741684,0.12203118205070496,179.38186960574512,0.5199620723724365,0.5142302811145782,148.17499305606796,152.26625377153712,0.4450473645997674,0.06924737147160673,-0.28134575485280977,-0.4843091781957805,-1.3446048297493562,6.733453707523995,0.9743549214489026,49,1762115368.7886283
0.5270883440971375,0.26327523589134216,0.065513014793396,0.9986454844474792,0.4938996434211731,0.3292214572429657,-0.08008439093828201,0.9989398121833801,0.5556348562240601,0.3386823534965515,-0.03415587916970253,0.9973965883255005,0.5057811141014099,0.501176655292511,-0.02586396038532257,0.9984552264213562,0.5383337140083313,0.5037999749183655,0.02583923377096653,0.9979948997497559,0.5069060921669006,0.592566967010498,0.10095701366662979,0.9272312521934509,0.5346627831459045,0.593790590763092,0.1373053938150406,0.8439407348632812,0.5094072222709656,0.6895933151245117,0.18360885977745056,0.9030125141143799,0.5286704897880554,0.6922921538352966,0.21703152358531952,0.8160402178764343,0.48586010932922363,0.4895104765892029,-0.06396197527647018,0.19625578820705414,0.5542128086090088,0.4911932647228241,-0.07262112200260162,0.13490897417068481,179.07884132933876,0.5220574140548706,0.5024883151054382,166.17474238729773,167.83182910680355,0.44848328680972954,0.02625125454024087,-0.14710791136971899,-0.5386720549061351,1.6817838483096612,8.712769168534328,1.5515082295740852,50,1762115368.868447
0.5277177095413208,0.26057013869285583,0.06965534389019012,0.9987569451332092,0.4942224621772766,0.32875964045524597,-0.07048849016427994,0.999008297920227,0.5554785132408142,0.33742618560791016,-0.031262144446372986,0.9975858330726624,0.5083352327346802,0.4969310462474823,-0.023743528872728348,0.998589813709259,0.5382146239280701,0.498935729265213,0.02369963377714157,0.9981544613838196,0.5069881081581116,0.5908121466636658,0.09075786173343658,0.933907687664032,0.5352749228477478,0.5933154225349426,0.1324264109134674,0.8577295541763306,0.5105934739112854,0.6900283098220825,0.12847325205802917,0.9119418859481812,0.5276892185211182,0.6891323328018188,0.17711971700191498,0.833212673664093,0.4879874587059021,0.49019843339920044,-0.05089886859059334,0.21885333955287933,0.5545016527175903,0.4927096366882324,-0.05982973426580429,0.14789149165153503,179.45237870739214,0.5232749283313751,0.49793338775634766,150.05876949766798,155.80736728091338,0.43707635496059216,0.01919314829083119,-0.07180482212993065,-0.11126545496147192,1.1870935613883868,8.052796912647985,0.7912734432838755,51,1762115368.931882
0.5257963538169861,0.25866517424583435,0.07129539549350739,0.9988635778427124,0.49366825819015503,0.3278748393058777,-0.06193649768829346,0.9990792870521545,0.5541216731071472,0.33420395851135254,-0.031086787581443787,0.9977520108222961,0.5091637969017029,0.4958212673664093,-0.020235251635313034,0.9987111687660217,0.5375746488571167,0.49562132358551025,0.020176416262984276,0.9982954263687134,0.5075573921203613,0.5858816504478455,0.09283780306577682,0.9396510720252991,0.5347471237182617,0.591303825378418,0.1316334754228592,0.8701630234718323,0.5119236707687378,0.6838477849960327,0.17380832135677338,0.9190787672996521,0.5290152430534363,0.6901823282241821,0.22386133670806885,0.847554624080658,0.49020281434059143,0.4840276837348938,-0.04562117159366608,0.24147649109363556,0.5543310642242432,0.4898160696029663,-0.02696412242949009,0.15490944683551788,179.81708530154626,0.5233692228794098,0.4957212954759598,167.81632555586697,173.4930027873498,0.4469656638485328,0.0012894496609285341,-0.03024969842201356,-0.2448277085882734,0.5682538523363703,5.976759875615176,0.7688534572454668,52,1762115369.0050097
0.5226669311523438,0.25899654626846313,0.07142944633960724,0.9989541172981262,0.4907117486000061,0.3279328942298889,-0.054083455353975296,0.9991353154182434,0.5504348874092102,0.3325704038143158,-0.03148021176457405,0.9978893399238586,0.5070202350616455,0.49545562267303467,-0.011080807074904442,0.9988085627555847,0.5345774292945862,0.49333664774894714,0.010979631915688515,0.9984133243560791,0.5073546171188354,0.580016016960144,0.09841841459274292,0.9450440406799316,0.5321027040481567,0.5868058800697327,0.11913380771875381,0.8823019862174988,0.5125858187675476,0.6725375056266785,0.19225479662418365,0.9256419539451599,0.5282661318778992,0.6863749623298645,0.21644756197929382,0.8612448573112488,0.4882919192314148,0.4799592196941376,-0.029759684577584267,0.26038554310798645,0.5493751764297485,0.4778536558151245,0.028953945264220238,0.14645037055015564,-179.92128275196592,0.5207988321781158,0.4943961352109909,172.73655497471248,175.10992044088567,0.4409756886334167,-0.04047924786170748,-0.020869002831031713,-0.6577853938813006,0.14772987692160044,4.440115164286403,0.3229405894500068,53,1762115369.0685086
0.5208991169929504,0.2571687400341034,0.07002507150173187,0.99896240234375,0.489346444606781,0.32496485114097595,-0.05308499187231064,0.9991329312324524,0.5487097501754761,0.32879897952079773,-0.039649926126003265,0.9979667663574219,0.5072321891784668,0.48840203881263733,-0.006522872485220432,0.9988648891448975,0.5337738990783691,0.48731303215026855,0.006371252238750458,0.9984747767448425,0.5106834173202515,0.5750005841255188,0.10364769399166107,0.9488396048545837,0.5314751863479614,0.5776007175445557,0.12374918162822723,0.8915369510650635,0.5148202776908875,0.6629238128662109,0.19239404797554016,0.9300988912582397,0.5277096629142761,0.6746106743812561,0.20932455360889435,0.8720570206642151,0.48735761642456055,0.47381290793418884,-0.027560796588659286,0.2625882923603058,0.5470872521400452,0.46949589252471924,-0.004331710748374462,0.14177033305168152,-179.47503939908705,0.520503044128418,0.48785753548145294,173.39224017316056,168.94421640524726,0.43189241433475334,-0.004661637890544273,-0.10304873466473782,0.5644877403291176,-1.2951576378493654,3.6954591198934383,7.901424109472798,54,1762115369.1319602
0.5199894309043884,0.25300610065460205,0.07248447835445404,0.9989786744117737,0.4889823794364929,0.320519357919693,-0.04787536337971687,0.9991335868835449,0.5478178262710571,0.3236981928348541,-0.03758247196674347,0.9980218410491943,0.5069103837013245,0.481209397315979,-0.006903071887791157,0.998887836933136,0.5336712598800659,0.47950974106788635,0.006772637367248535,0.9984888434410095,0.5119240880012512,0.5693073272705078,0.10783369839191437,0.9506813883781433,0.5313878655433655,0.5706560611724854,0.12421760708093643,0.8972761631011963,0.5169423818588257,0.6503786444664001,0.18614724278450012,0.9312281012535095,0.5275712609291077,0.6625771522521973,0.19605347514152527,0.8789127469062805,0.48751360177993774,0.4656466543674469,-0.02901671826839447,0.26194459199905396,0.5457177758216858,0.4606021046638489,-0.009905599988996983,0.1368793547153473,-179.31548487932218,0.5202908217906952,0.4803595691919327,171.49116556112023,165.77811956290142,0.4205524458795071,-0.0026692966041719146,-0.09430814950759893,0.02505933111062149,0.1099375990707603,3.092640883385324,3.141539973740184,55,1762115369.2114651
0.5194720029830933,0.25182265043258667,0.07689086347818375,0.9989756345748901,0.48904046416282654,0.31935039162635803,-0.04650091379880905,0.9991300702095032,0.5474724769592285,0.32177042961120605,-0.030164038762450218,0.9980497360229492,0.5071631669998169,0.4789310097694397,-0.007624943740665913,0.9989070296287537,0.5334610939025879,0.4775838255882263,0.007507136557251215,0.9984988570213318,0.5133258700370789,0.5641846656799316,0.10390956699848175,0.9531989097595215,0.5311353802680969,0.5687547922134399,0.11940032243728638,0.9039939045906067,0.51734459400177,0.6482081413269043,0.18837079405784607,0.93330317735672,0.5280607342720032,0.660810649394989,0.20353050529956818,0.8863580822944641,0.4878690242767334,0.4626937806606293,-0.026134010404348373,0.2631298303604126,0.5449472069740295,0.4549427032470703,0.017640991136431694,0.1294533759355545,-179.25316296465596,0.5203121304512024,0.478257417678833,172.49904923454588,171.56363773961888,0.4199312853344021,0.00033586744932394345,-0.03313414592900467,0.047367444101261515,0.9642256274124668,2.3716239982613376,4.345645831331303,56,1762115369.2749088
