nose_x,nose_y,nose_z,nose_visibility,left_shoulder_x,left_shoulder_y,left_shoulder_z,left_shoulder_visibility,right_shoulder_x,right_shoulder_y,right_shoulder_z,right_shoulder_visibility,left_hip_x,left_hip_y,left_hip_z,left_hip_visibility,right_hip_x,right_hip_y,right_hip_z,right_hip_visibility,left_knee_x,left_knee_y,left_knee_z,left_knee_visibility,right_knee_x,right_knee_y,right_knee_z,right_knee_visibility,left_ankle_x,left_ankle_y,left_ankle_z,left_ankle_visibility,right_ankle_x,right_ankle_y,right_ankle_z,right_ankle_visibility,left_wrist_x,left_wrist_y,left_wrist_z,left_wrist_visibility,right_wrist_x,right_wrist_y,right_wrist_z,right_wrist_visibility,trunk_lateral_inclination,center_mass_x,center_mass_y,left_knee_angle,right_knee_angle,person_height,center_mass_velocity_x,center_mass_velocity_y,center_mass_acceleration_x,center_mass_acceleration_y,body_orientation,torso_leg_ratio,frame,timestamp
0.4903942048549652,0.3202773928642273,-0.4473937153816223,0.9969465136528015,0.5660312175750732,0.4948594272136688,-0.2788088023662567,0.9987735152244568,0.4098793566226959,0.5121637582778931,-0.2985377311706543,0.9982241988182068,0.5384593605995178,0.8495575189590454,0.003273547859862447,0.9663745760917664,0.4613439440727234,0.8617216944694519,-0.003122583730146289,0.9695438742637634,0.5453017950057983,1.1182794570922852,0.0895816907286644,0.4977600574493408,0.46758490800857544,1.1284162998199463,0.09033440053462982,0.4557517170906067,0.5481517910957336,1.310362458229065,0.4968910217285156,0.05422244593501091,0.47170519828796387,1.3341095447540283,0.4381301999092102,0.07587669789791107,0.6156814694404602,0.8120434880256653,-0.026205267757177353,0.7577568888664246,0.36913442611694336,0.9035601019859314,-0.10823191702365875,0.7430193424224854,-178.0569172150481,0.4999016523361206,0.8556396067142487,133.0488913616091,139.9120415701158,1.3569644682091675,0.0,0.0,0.0,0.0,173.67643638399645,3.4268142771062764,0,1762115314.808899
0.4904375672340393,0.31126296520233154,0.23409685492515564,0.9932913184165955,0.42039769887924194,0.48804715275764465,-0.07444433122873306,0.9985160827636719,0.5567559003829956,0.4835968017578125,-0.0580771341919899,0.997955858707428,0.45944270491600037,0.8602796792984009,-0.015592488460242748,0.9680554866790771,0.5270609855651855,0.8618666529655457,0.01573111303150654,0.9706189036369324,0.48072585463523865,1.11873197555542,0.10742364823818207,0.5309473872184753,0.5134351253509521,1.1296296119689941,0.14005018770694733,0.46682581305503845,0.4915923476219177,1.348386526107788,0.3682864308357239,0.08109010756015778,0.4920104146003723,1.3866032361984253,0.35559582710266113,0.10592253506183624,0.39342257380485535,0.8467651605606079,0.11995337158441544,0.7466602325439453,0.5904564261436462,0.7872470617294312,0.18845480680465698,0.7202324271202087,-179.28622071499848,0.49325184524059296,0.8610731661319733,156.71538608301034,164.90243010468657,1.0639416707071792,-0.09113318902140173,0.07446495670642052,-1.2489472283784393,1.020515163449,-1.8693107460994478,0.8854070463310793,1,1762115314.881867
0.4890438914299011,0.2991032898426056,0.21164345741271973,0.9909641146659851,0.412358820438385,0.4759138226509094,-0.07616522163152695,0.9984865784645081,0.5643702745437622,0.4689762592315674,-0.08005334436893463,0.9979154467582703,0.44697609543800354,0.8601287603378296,-0.01524282991886139,0.9706990122795105,0.5334059000015259,0.8614527583122253,0.015070712193846703,0.9725586175918579,0.46910548210144043,1.1070270538330078,0.11216193437576294,0.5319762825965881,0.5258203744888306,1.1074379682540894,0.14266513288021088,0.45360562205314636,0.48103219270706177,1.3458645343780518,0.31251949071884155,0.08868100494146347,0.5065505504608154,1.3831219673156738,0.32278668880462646,0.1091587245464325,0.3823724687099457,0.8435659408569336,0.16100314259529114,0.7407121658325195,0.6010340452194214,0.7806565761566162,0.22098644077777863,0.692555844783783,-179.73053103701463,0.4901909977197647,0.8607907593250275,167.103573784159,173.98656802906658,1.0706616411020051,-0.042669014248347334,-0.003936824682511458,0.6756032601605345,-1.0929413191660478,-2.613075940941952,0.4973239005738469,2,1762115314.9536016
0.4890504777431488,0.2842549979686737,0.17744313180446625,0.9903889298439026,0.41446390748023987,0.4554402232170105,-0.10890807211399078,0.998538076877594,0.560486912727356,0.4517465829849243,-0.10027923434972763,0.9979177117347717,0.4439232349395752,0.8471445441246033,-0.012457546778023243,0.9733873605728149,0.5316659808158875,0.8433460593223572,0.012367600575089455,0.9746851325035095,0.46942591667175293,0.983081042766571,0.12511181831359863,0.5456689596176147,0.5431538224220276,0.9964941143989563,0.21122977137565613,0.4383445680141449,0.4709251821041107,1.2852344512939453,0.33363813161849976,0.10251706093549728,0.5123150944709778,1.25032639503479,0.39978867769241333,0.10979124903678894,0.38555631041526794,0.8314064741134644,0.08451878279447556,0.7275180816650391,0.597347617149353,0.762897253036499,0.15447206795215607,0.66161048412323,-179.95330373402663,0.4877946078777313,0.8452453017234802,167.05652868943653,162.22408270814532,1.0015748106590803,-0.03879164785204568,-0.25164266113999234,0.0627650097661337,-4.009747249888879,-1.4489831746018524,0.021757454914189456,3,1762115315.0153775
0.4886256754398346,0.27657708525657654,0.20620164275169373,0.9906837344169617,0.4152440130710602,0.440668523311615,-0.09055247902870178,0.998573899269104,0.5566130876541138,0.43702012300491333,-0.0740170106291771,0.9979516267776489,0.4469306468963623,0.806552529335022,-0.014365586452186108,0.9758402109146118,0.5326558351516724,0.8044102191925049,0.014224350452423096,0.976710855960846,0.47056514024734497,0.9753584861755371,0.1016557589173317,0.5682968497276306,0.5381025075912476,0.9844488501548767,0.18482612073421478,0.4352276623249054,0.4670645594596863,1.2506580352783203,0.26557666063308716,0.12836311757564545,0.5174554586410522,1.2241848707199097,0.34354668855667114,0.11722317337989807,0.38869383931159973,0.7852265238761902,0.10631424188613892,0.6977605819702148,0.6020253896713257,0.7504470944404602,0.1454448252916336,0.6356062889099121,-179.39607232060186,0.48979324102401733,0.8054813742637634,171.8814341919739,168.69635802552398,0.9658725605728448,0.028693736094472018,-0.5708779736436762,0.9688660476755605,-4.58315915856735,-1.4783399405994206,0.3200621047512412,4,1762115315.0850315
0.4883156716823578,0.26916438341140747,0.17151087522506714,0.9913520812988281,0.41414570808410645,0.4353639781475067,-0.10886342823505402,0.9986522197723389,0.5538055300712585,0.4303126037120819,-0.08704160153865814,0.9980818629264832,0.4456094801425934,0.8000672459602356,-0.015876969322562218,0.9781594276428223,0.5315359234809875,0.7969906330108643,0.015751522034406662,0.9788224101066589,0.47045665979385376,0.9685056805610657,0.11342376470565796,0.5877920985221863,0.5389454364776611,0.9786946773529053,0.21692213416099548,0.4316626787185669,0.4664987027645111,1.2380818128585815,0.30961838364601135,0.15297478437423706,0.5342176556587219,1.2125749588012695,0.3751686215400696,0.12383417785167694,0.385903537273407,0.7780657410621643,0.0789724737405777,0.6815297603607178,0.6042302846908569,0.7455390691757202,0.1306832730770111,0.6346670985221863,-179.27977495052872,0.48857270181179047,0.7985289394855499,172.4958822618876,165.94189391804585,0.9713884361288092,-0.017062782473635792,-0.09719301198554801,-0.6396627943268256,6.62197771348852,-2.0714355974669947,1.058292230817512,5,1762115315.1565638
0.48655661940574646,0.2653868794441223,0.15977391600608826,0.991887092590332,0.4162597060203552,0.4269467294216156,-0.11200772225856781,0.998715877532959,0.5517415404319763,0.4245048463344574,-0.09169657528400421,0.9981975555419922,0.4463885426521301,0.7897003889083862,-0.015847222879529,0.9801616668701172,0.5304044485092163,0.7862488627433777,0.015743281692266464,0.980620265007019,0.4720757007598877,0.9557886123657227,0.1596825271844864,0.598246157169342,0.532331109046936,0.9895886182785034,0.22253790497779846,0.4304855465888977,0.46804314851760864,1.2083089351654053,0.33060789108276367,0.16872894763946533,0.5359777212142944,1.202933430671692,0.39566320180892944,0.1324823498725891,0.3898305594921112,0.7371565699577332,0.05982213467359543,0.6741510629653931,0.6047689914703369,0.7294102907180786,0.04126212000846863,0.6420122981071472,-179.3047525763043,0.4883964955806732,0.787974625825882,165.78211581382718,173.55878714717446,0.9620994327913485,-0.00275855022264358,-0.165230276540869,0.22393613898060089,-1.0651394680943764,-1.0325697793815263,22.66263600328756,6,1762115315.2204401
0.48566699028015137,0.25947052240371704,0.14364507794380188,0.9922418594360352,0.417441189289093,0.4173295795917511,-0.11272642761468887,0.9987097978591919,0.5477112531661987,0.41290155053138733,-0.10067468881607056,0.9982857704162598,0.4475437104701996,0.7719507217407227,-0.015145679004490376,0.981837809085846,0.5294618606567383,0.7666577696800232,0.015069885179400444,0.9820578098297119,0.47265926003456116,0.9584912657737732,0.16074256598949432,0.6078708171844482,0.528653085231781,0.9798868894577026,0.2161073237657547,0.4295157194137573,0.46908530592918396,1.1868821382522583,0.34772101044654846,0.17929278314113617,0.5346502065658569,1.1879888772964478,0.3870657980442047,0.13752885162830353,0.39840447902679443,0.6956294775009155,0.08827115595340729,0.6447585821151733,0.6037197709083557,0.7119240760803223,0.05756822228431702,0.6395152807235718,-179.04137129175064,0.48850278556346893,0.7693042457103729,172.53898861610836,175.82502845471296,0.9546961780664098,0.0017214167117151904,-0.30237566607460037,0.07255519048825673,-2.2211346663946543,-1.946799792992199,4.887551065089289,7,1762115315.2821858
0.48516497015953064,0.2588405907154083,0.14705312252044678,0.9927368760108948,0.4196895658969879,0.4031629264354706,-0.08669384568929672,0.9987122416496277,0.5442366003990173,0.40495041012763977,-0.08807816356420517,0.9983841180801392,0.4480641782283783,0.755271852016449,-0.013551680371165276,0.9833235144615173,0.5267505645751953,0.7474682331085205,0.013509583659470081,0.9832959175109863,0.4735591411590576,0.95703125,0.15221825242042542,0.6185416579246521,0.5262417197227478,0.9675959348678589,0.21253570914268494,0.434877872467041,0.47044816613197327,1.1705256700515747,0.2795652747154236,0.18952909111976624,0.5336669087409973,1.1724742650985718,0.3078891634941101,0.1436433047056198,0.4057675004005432,0.6603562831878662,0.1390092670917511,0.6095355749130249,0.6033669710159302,0.7006163001060486,0.06544007360935211,0.6440304517745972,-179.1019372797029,0.4874073714017868,0.7513700425624847,169.35502297713955,162.72631299421224,0.9245246279077182,-0.013160005270303558,-0.2154565973316224,-0.17878132177170752,1.0442218502917213,0.8222455161584837,2.522714705493318,8,1762115315.365424
0.4852023124694824,0.26276347041130066,0.11438940465450287,0.9933180212974548,0.42180436849594116,0.4031085968017578,-0.04685044661164284,0.9986648559570312,0.541211724281311,0.4028184711933136,-0.09807460010051727,0.9984511733055115,0.4490962028503418,0.7506312131881714,-0.0011839077342301607,0.9847752451896667,0.5251253843307495,0.7383120059967041,0.001194413285702467,0.9843809604644775,0.47491854429244995,0.9543956518173218,0.09503505378961563,0.634221613407135,0.5255479216575623,0.9372006058692932,0.19419631361961365,0.4311668574810028,0.4710007309913635,1.1745134592056274,0.18046244978904724,0.20332607626914978,0.5365450382232666,1.110860824584961,0.2877696752548218,0.14374901354312897,0.41510218381881714,0.6385820508003235,0.23026759922504425,0.5554561018943787,0.6028567552566528,0.6953452229499817,0.05097941681742668,0.6443647146224976,-179.0600955137722,0.48711079359054565,0.7444716095924377,171.47610236750242,163.88090507258119,0.8882257631883362,-0.004667612868849999,-0.10856919595953532,0.13365531256186125,1.6822196106795781,-0.13921202820405237,1.5824056653282899,9,1762115315.4289634
0.4852316379547119,0.2641860842704773,0.09976829588413239,0.9938881397247314,0.42466139793395996,0.399413138628006,-0.02946517802774906,0.9986608028411865,0.5383961200714111,0.3987637758255005,-0.09568141400814056,0.9985414147377014,0.45160025358200073,0.7414412498474121,0.0008421858656220138,0.9861524105072021,0.5244232416152954,0.7232627272605896,-0.0008857980137690902,0.985424816608429,0.4757601320743561,0.9458957314491272,0.09961991757154465,0.6517203450202942,0.527242124080658,0.8940044045448303,0.19718722999095917,0.4145066738128662,0.4724205434322357,1.1448861360549927,0.2039879560470581,0.21849998831748962,0.5390564203262329,1.0290476083755493,0.32644331455230713,0.13886377215385437,0.42001739144325256,0.625407874584198,0.22634108364582062,0.5068038105964661,0.6000462770462036,0.6905444860458374,0.02552736923098564,0.6551471948623657,-178.8855635064282,0.48801174759864807,0.7323519885540009,172.813740567303,173.73533094622186,0.8395007908146869,0.012073468800920157,-0.1624121377679798,0.22434322442200594,-0.7215363628196617,-0.327123880812431,1.5296006183628306,10,1762115315.503586
0.48539096117019653,0.2655661702156067,0.09587530046701431,0.9944025874137878,0.4253358244895935,0.4020739197731018,-0.0302048921585083,0.9986793994903564,0.5379852056503296,0.3990781605243683,-0.09215833991765976,0.9986222982406616,0.4527619481086731,0.7405345439910889,0.0002923373249359429,0.987405002117157,0.5239805579185486,0.7225921750068665,-0.00032402941724285483,0.9863083362579346,0.47648078203201294,0.9513974785804749,0.09187307208776474,0.6685680747032166,0.5264614224433899,0.8876059651374817,0.19695451855659485,0.39651936292648315,0.4736297130584717,1.1449307203292847,0.18068689107894897,0.23073886334896088,0.5394162535667419,1.0174510478973389,0.33556851744651794,0.13311082124710083,0.4233512282371521,0.6202409863471985,0.2055109292268753,0.46349865198135376,0.5979815721511841,0.6869648098945618,0.02178115025162697,0.6645262837409973,-178.83849239291445,0.48837125301361084,0.7315633594989777,173.229973681818,175.34263526655258,0.8318750379822859,0.004940985067682034,-0.010838791914200611,-0.09802771851173447,2.083199883372238,-1.5233453853558765,1.3281013038239646,11,1762115315.576346
0.48581838607788086,0.26674124598503113,0.0980524942278862,0.9949166178703308,0.4269290864467621,0.39814648032188416,-0.007159011904150248,0.9987509846687317,0.5368083715438843,0.3959348499774933,-0.0816054493188858,0.9987208843231201,0.45358315110206604,0.7294490337371826,0.004305892623960972,0.9885722398757935,0.5235801339149475,0.7101409435272217,-0.004388118628412485,0.9872434735298157,0.4758032262325287,0.944453239440918,0.09639875590801239,0.6850555539131165,0.5262078642845154,0.8697441220283508,0.19380265474319458,0.3810814619064331,0.4678935110569,1.1327967643737793,0.1909230649471283,0.2480744868516922,0.5366019606590271,0.9783825278282166,0.3411785066127777,0.1281687617301941,0.4320663809776306,0.6184225678443909,0.1952488124370575,0.4238370656967163,0.5941259860992432,0.6826033592224121,0.023860502988100052,0.6694955229759216,-178.808486400931,0.4885816425085068,0.7197949886322021,171.66313629184785,176.36801149612114,0.8067063578924676,0.0029007988034384707,-0.1622594138820861,-0.028129588300198332,-2.0877504327752336,-1.153083371119228,5.399746037493526,12,1762115315.648874
0.48775944113731384,0.27396661043167114,0.09807710349559784,0.9953762888908386,0.4282284677028656,0.3960117697715759,0.0006936822319403291,0.9988043308258057,0.5361856818199158,0.39756694436073303,-0.08724804222583771,0.9988122582435608,0.454026460647583,0.7218623757362366,0.006850092206150293,0.9895844459533691,0.5232625007629395,0.7011144757270813,-0.006872695870697498,0.9879376292228699,0.4755236506462097,0.9316675066947937,0.09755323827266693,0.6953287124633789,0.5242031812667847,0.8578091263771057,0.18213483691215515,0.36064639687538147,0.4688092768192291,1.119058609008789,0.19066740572452545,0.25148576498031616,0.5350935459136963,0.9617810845375061,0.3415271043777466,0.11934123188257217,0.4349800646305084,0.6099812984466553,0.22393222153186798,0.3875150978565216,0.5930866003036499,0.6729795932769775,0.018276385962963104,0.68260258436203,-178.8281352052474,0.48864448070526123,0.7114884257316589,172.16622846959015,172.77193450215492,0.7847819740832827,0.0011461531436722126,-0.15150964975603817,-0.03200430220539871,0.19607303492411213,0.8253156423668043,3.081579745537503,13,1762115315.7036994
0.4902622103691101,0.27867791056632996,0.09621693193912506,0.9957889914512634,0.4289068579673767,0.3916950523853302,-0.011881887912750244,0.9988619685173035,0.5356276035308838,0.3966129720211029,-0.09023647010326385,0.9989041090011597,0.45532554388046265,0.7132585048675537,0.007101270370185375,0.9905463457107544,0.5230684876441956,0.6915138363838196,-0.007112330291420221,0.9887834787368774,0.47549551725387573,0.9202415347099304,0.0998263731598854,0.7057448029518127,0.5219855904579163,0.8415161371231079,0.18099644780158997,0.34267789125442505,0.46913403272628784,1.1050363779067993,0.17965586483478546,0.25895944237709045,0.5344610810279846,0.9455048441886902,0.34262576699256897,0.11155981570482254,0.4335036873817444,0.603593647480011,0.23300687968730927,0.3551850914955139,0.5913165211677551,0.6704359650611877,0.0006517792935483158,0.6993686556816101,-178.71207287458068,0.4891970157623291,0.7023861706256866,173.05510899507004,172.95251129328543,0.7646787640156115,0.008106633272351395,-0.13354563326185737,0.10212213520374011,0.2635628128097347,2.6384451775083404,2.266114508411551,14,1762115315.7718577
0.4925684928894043,0.28077760338783264,0.10587892681360245,0.9961617588996887,0.43612489104270935,0.38931959867477417,-0.021340342238545418,0.998935878276825,0.5375450253486633,0.3950907289981842,-0.08781494945287704,0.9989860653877258,0.459989458322525,0.6952489018440247,0.006280818022787571,0.9914488792419434,0.5233599543571472,0.6776452660560608,-0.006307005882263184,0.9897213578224182,0.4749894142150879,0.901445746421814,0.09829685837030411,0.7222307920455933,0.5197818875312805,0.8368909358978271,0.16500936448574066,0.346329927444458,0.47067636251449585,1.0832182168960571,0.17287743091583252,0.2885989546775818,0.5298110246658325,0.9565720558166504,0.30636006593704224,0.1143665537238121,0.42861637473106384,0.610237181186676,0.14692915976047516,0.3336494266986847,0.5905777215957642,0.6698001623153687,-0.006552062928676605,0.7137928605079651,-179.05767288503145,0.4916747063398361,0.6864470839500427,174.6372094860175,175.2043177880248,0.7511590884308748,0.034929961514545485,-0.2247058971816547,0.37814964939430834,-1.2851582595830855,3.256801162038859,1.6927862306520651,15,1762115315.8427908
0.49482661485671997,0.281721293926239,0.10097905248403549,0.9965149164199829,0.44003644585609436,0.3867540955543518,-0.02387082204222679,0.9990015029907227,0.5378395318984985,0.38890379667282104,-0.08271117508411407,0.9990543127059937,0.4635622501373291,0.6726263761520386,0.006128240376710892,0.9922678470611572,0.5232314467430115,0.6545746326446533,-0.006149617023766041,0.9905861616134644,0.47501340508461,0.8761788010597229,0.0669117346405983,0.7391723394393921,0.5186591148376465,0.8280960917472839,0.14588698744773865,0.35424569249153137,0.47180110216140747,1.058061122894287,0.0968225747346878,0.3227784037590027,0.5297713279724121,0.9271339178085327,0.28131479024887085,0.11663924157619476,0.4279325008392334,0.6006957292556763,0.13359829783439636,0.31271255016326904,0.5875443816184998,0.6530426740646362,-0.018934836611151695,0.7198070883750916,-179.07368411383493,0.4933968484401703,0.663600504398346,171.63861532532556,166.4744448382175,0.7163381248028458,0.028084478702929683,-0.37257917144579017,-0.11163528038527734,-2.41149892392605,1.2591522119711525,1.128552323044383,16,1762115315.904111
0.49635976552963257,0.2817123532295227,0.0986422747373581,0.9968316555023193,0.442903608083725,0.38762426376342773,-0.027866128832101822,0.9990664124488831,0.5398955941200256,0.3903781771659851,-0.0853346735239029,0.9991199374198914,0.46433448791503906,0.6727298498153687,0.005610840395092964,0.9930119514465332,0.5231197476387024,0.6560145616531372,-0.005635350476950407,0.9913869500160217,0.4750142991542816,0.8736175298690796,0.055374760180711746,0.7563912868499756,0.5169748067855835,0.8275909423828125,0.14288663864135742,0.3667645752429962,0.47215455770492554,1.057098627090454,0.08625894039869308,0.36256441473960876,0.5291811227798462,0.9264755845069885,0.2747054100036621,0.12386834621429443,0.4270252585411072,0.6047365069389343,0.07497787475585938,0.3016190528869629,0.5867189764976501,0.6503841280937195,-0.030261972919106483,0.7272859811782837,-179.51573072776628,0.4937271177768707,0.6643722057342529,174.18127281507745,166.45862284874102,0.7147884183811788,0.004559578158789511,0.01065382754409814,-0.32477620774721555,5.290775187847986,1.626373895665102,0.4979404429659329,17,1762115315.976545
0.4976440966129303,0.2771623730659485,0.06940454244613647,0.9970899820327759,0.44272175431251526,0.38275858759880066,-0.04991620033979416,0.9990878105163574,0.5421910285949707,0.3876574635505676,-0.08445778489112854,0.9991457462310791,0.4669858515262604,0.6571712493896484,0.0017546865856274962,0.9936851263046265,0.5261609554290771,0.6463229656219482,-0.0018997618462890387,0.992145836353302,0.4745270311832428,0.854482889175415,0.04578039050102234,0.7745664119720459,0.5179097056388855,0.799336314201355,0.15070614218711853,0.3834165930747986,0.47170892357826233,1.0151727199554443,0.08169855177402496,0.4137752652168274,0.5246121883392334,0.9184706807136536,0.2878122925758362,0.1502225697040558,0.43215203285217285,0.6078126430511475,0.07469195127487183,0.2786053717136383,0.5861385464668274,0.6424055099487305,-0.025946835055947304,0.7096928358078003,-179.11506915065755,0.49657340347766876,0.6517471075057983,176.85169099647126,174.05339590260277,0.6992396440942412,0.04198796971061184,-0.18624351092415695,0.5521378863528038,-2.9045993103879946,2.8195471134820718,2.1186899992403045,18,1762115316.0443332
0.4984142780303955,0.2731923758983612,0.06844015419483185,0.9973374009132385,0.4434097707271576,0.3782232403755188,-0.06948335468769073,0.9991299510002136,0.5453072190284729,0.3822089731693268,-0.06801049411296844,0.9991771578788757,0.4693918228149414,0.6442911624908447,-0.0053977882489562035,0.9943093061447144,0.5282012820243835,0.6368135809898376,0.005091597326099873,0.9928977489471436,0.46607375144958496,0.8201329708099365,0.053486891090869904,0.7943919897079468,0.5218933820724487,0.7642525434494019,0.20022599399089813,0.4179278016090393,0.4711524546146393,0.980368971824646,0.11362848430871964,0.4682988226413727,0.5247184634208679,0.8802660703659058,0.3414122760295868,0.20682673156261444,0.4362151622772217,0.5969905257225037,0.050704848021268845,0.25927019119262695,0.5867776870727539,0.6374726891517639,-0.017163719981908798,0.6945820450782776,-179.02335028860728,0.4987965524196625,0.6405523717403412,176.55516866811908,173.26973908735718,0.6761066513603857,0.03685073467806952,-0.18556302265290314,-0.08515438690910536,0.011279717819096553,2.239990420939793,1.122736784511044,19,1762115316.1046617
0.5013845562934875,0.2712630033493042,0.04233241826295853,0.9975765943527222,0.4450429081916809,0.3757253885269165,-0.09048871695995331,0.9991710186004639,0.5468131303787231,0.3790276050567627,-0.07353873550891876,0.9992097616195679,0.4703122675418854,0.6404896974563599,-0.008455844596028328,0.9948674440383911,0.529309868812561,0.63380366563797,0.008111595176160336,0.9935747385025024,0.46742337942123413,0.7911100387573242,0.10010115057229996,0.8119729161262512,0.5220938920974731,0.7638970017433167,0.20210950076580048,0.46119728684425354,0.47099724411964417,0.9496119022369385,0.2072257101535797,0.517689049243927,0.5219900608062744,0.8946958184242249,0.3412187695503235,0.2694634795188904,0.4447924494743347,0.6007203459739685,0.05161814019083977,0.23836839199066162,0.5825127363204956,0.6302396655082703,0.00855410099029541,0.6663329601287842,-179.14360554939088,0.4998110681772232,0.6371466815471649,177.3504539262475,170.44337923869253,0.6909817059797432,0.016341593379162026,-0.05485809746918084,-0.33035667032748145,2.105365761042233,1.8584680936176612,2.2367577938370116,20,1762115316.1667435
0.5043133497238159,0.26807355880737305,0.04802917689085007,0.9977791905403137,0.45168495178222656,0.36700206995010376,-0.09873206168413162,0.9991844296455383,0.5482801198959351,0.37367671728134155,-0.07635130733251572,0.9992327690124512,0.472843736410141,0.6276015639305115,-0.010084455832839012,0.9953515529632568,0.5297381281852722,0.6253071427345276,0.009746553376317024,0.9941698312759399,0.46973785758018494,0.7515268325805664,0.11866800487041473,0.8228868842124939,0.5218834280967712,0.7573167681694031,0.18911424279212952,0.5011234283447266,0.47242021560668945,0.9065910577774048,0.21541187167167664,0.5613510608673096,0.5157110691070557,0.8970462083816528,0.28130197525024414,0.3313426673412323,0.44734588265419006,0.5872142314910889,0.005961210932582617,0.2252756804227829,0.5781344771385193,0.6205207705497742,0.010890277102589607,0.6304072141647339,-179.70729963236383,0.5012909322977066,0.6264543533325195,165.74029661650425,159.77613356648618,0.6647323075617411,0.020689103472182873,-0.14948310573208495,0.060779962778938615,-1.3228961766894494,3.952808468133996,0.7493677535659448,21,1762115316.2382722
0.5049890875816345,0.26678961515426636,0.048603374511003494,0.9979778528213501,0.45340022444725037,0.3670729398727417,-0.09086000174283981,0.9992071390151978,0.549116849899292,0.3707141876220703,-0.07306310534477234,0.9992579817771912,0.4746165871620178,0.6222088932991028,-0.009391099214553833,0.9957793354988098,0.5304118394851685,0.6217365860939026,0.009081324562430382,0.9946896433830261,0.47318726778030396,0.7309193015098572,0.13315919041633606,0.8349109292030334,0.5218104124069214,0.7510358095169067,0.18748006224632263,0.5407040119171143,0.47535619139671326,0.8898574709892273,0.23186297714710236,0.6009320616722107,0.5129017233848572,0.8937057256698608,0.27530890703201294,0.38899290561676025,0.45368799567222595,0.5793886780738831,0.023659680038690567,0.21016712486743927,0.5719121694564819,0.6134155988693237,0.02405221201479435,0.5979570746421814,-179.71572393018354,0.5025142133235931,0.6219727396965027,159.1363904867814,157.55654500542204,0.6578379545695318,0.017019031428808357,-0.062350941205738454,-0.051060279797044215,1.212235794681195,2.178593039230602,0.3725066283880822,22,1762115316.3101494
0.5051844120025635,0.2661172151565552,0.052296560257673264,0.9981259703636169,0.45375579595565796,0.3690601885318756,-0.09448633342981339,0.9992089867591858,0.5495483875274658,0.36841586232185364,-0.07509899884462357,0.999268114566803,0.4752044677734375,0.6176615953445435,-0.009002192877233028,0.9961550235748291,0.5304465889930725,0.6169611811637878,0.008725614286959171,0.9951434135437012,0.4745616316795349,0.732185423374176,0.13776633143424988,0.8451504707336426,0.520992636680603,0.748566746711731,0.1826455295085907,0.5754358768463135,0.4759550094604492,0.8832504153251648,0.26560673117637634,0.6348772048950195,0.5116190314292908,0.887851357460022,0.28429946303367615,0.4375714063644409,0.4523739218711853,0.5804835557937622,0.010630091652274132,0.19769173860549927,0.5726757049560547,0.6077888607978821,0.023781199008226395,0.5668008327484131,-179.729526660013,0.502825528383255,0.6173113882541656,168.18225794643575,163.24123234365695,0.658334190966968,0.004303696086380445,-0.06443967079979697,-0.17577992857030197,-0.028875112528190344,-0.3853806972969515,0.2940123282742315,23,1762115316.382486
0.5053834319114685,0.2661530375480652,0.053370267152786255,0.9982627034187317,0.4546996057033539,0.37027707695961,-0.09165985137224197,0.9992194771766663,0.5498299598693848,0.3681461811065674,-0.07549059391021729,0.9992851614952087,0.4750364422798157,0.6166256666183472,-0.007347037550061941,0.9964851140975952,0.5302786231040955,0.6174740791320801,0.00704719964414835,0.9955478310585022,0.4768727421760559,0.7252921462059021,0.1589464545249939,0.8510614633560181,0.5197018384933472,0.7471792697906494,0.1816718876361847,0.604599118232727,0.4769435524940491,0.862713634967804,0.287844717502594,0.6630814075469971,0.5115635395050049,0.879593551158905,0.28705695271492004,0.48005175590515137,0.45180463790893555,0.584172248840332,0.006042975001037121,0.18822242319583893,0.5717874765396118,0.6107406616210938,0.025606995448470116,0.5354265570640564,-179.90920330612266,0.5026575326919556,0.6170498728752136,166.31451436052726,165.13064088321713,0.648801401685301,-0.0021820284774651463,-0.0033967180929140783,-0.08424046822773246,0.7928623652469938,-1.2831963725422149,0.0973419560100208,24,1762115316.4594767
0.5051215887069702,0.26636236906051636,0.05246521160006523,0.9983745813369751,0.4564231336116791,0.36896294355392456,-0.08730009943246841,0.9992074370384216,0.5498363971710205,0.36830487847328186,-0.07554681599140167,0.9992918968200684,0.4749118387699127,0.605905294418335,-0.0006283109541982412,0.9967499375343323,0.5293163061141968,0.6083014011383057,0.00042173071415163577,0.9958942532539368,0.47979965806007385,0.7252985835075378,0.16603103280067444,0.8524538278579712,0.5180590748786926,0.7479764223098755,0.1648484170436859,0.6296773552894592,0.47941961884498596,0.8494624495506287,0.3121439814567566,0.6824550032615662,0.5116604566574097,0.8812814354896545,0.2937317490577698,0.5164128541946411,0.4557173252105713,0.5734339952468872,0.009546766057610512,0.1785646677017212,0.5660966038703918,0.6098231673240662,0.02664625085890293,0.509943962097168,179.75596634870308,0.5021140724420547,0.6071033477783203,175.0184184342131,174.28145953465804,0.6493387601591937,-0.007421010222685246,-0.13582090767026955,-0.07153887905294844,-1.8082670531353704,-0.40362285425049227,0.2995853894187181,25,1762115316.5327094
0.5055432319641113,0.266781210899353,0.044553253799676895,0.9984203577041626,0.4587725102901459,0.3691113293170929,-0.0870736688375473,0.9991593360900879,0.5499552488327026,0.3685370683670044,-0.07624979317188263,0.9993056058883667,0.4747399389743805,0.6026874780654907,0.005593641195446253,0.996893584728241,0.5287720561027527,0.604848325252533,-0.005727577023208141,0.9961394667625427,0.4820726811885834,0.7246812582015991,0.15789350867271423,0.8432600498199463,0.5172027349472046,0.7506837844848633,0.13695038855075836,0.6507095098495483,0.4799998700618744,0.8414179682731628,0.29711198806762695,0.6878054141998291,0.5110219717025757,0.8840265274047852,0.2623283267021179,0.5450161099433899,0.45783060789108276,0.5776090621948242,-0.004542151931673288,0.1717255562543869,0.5652403831481934,0.6090975999832153,0.010636160150170326,0.49417412281036377,179.36404127754034,0.5017559975385666,0.6037679016590118,176.8842440498815,178.21568740857353,0.6407416322638658,-0.005466352925761331,-0.05091874765695235,0.029839697029351017,1.2961119762128213,-0.36083906121664383,0.6317869370571814,26,1762115316.5982146
0.505292534828186,0.26712554693222046,0.009520136751234531,0.9984483122825623,0.4592357277870178,0.36942774057388306,-0.10043865442276001,0.9990768432617188,0.5498462915420532,0.3691332936286926,-0.08225749433040619,0.9993023872375488,0.47564440965652466,0.596380889415741,0.005271700210869312,0.9969466924667358,0.5283806920051575,0.5995852947235107,-0.00538450013846159,0.9963068962097168,0.4860779643058777,0.7230387926101685,0.14721450209617615,0.8383542895317078,0.5170369148254395,0.7461690306663513,0.11261286586523056,0.6711898446083069,0.4821593165397644,0.828121542930603,0.26998043060302734,0.6980979442596436,0.5101519227027893,0.8851830959320068,0.2209366112947464,0.5763140320777893,0.4559456706047058,0.5783953070640564,-0.04348316788673401,0.1720021516084671,0.5627613067626953,0.6063055396080017,-0.02067680098116398,0.4739258885383606,179.36658291705135,0.5020125508308411,0.5979830920696259,175.29764427453264,178.42273744249758,0.6350529268104231,0.004008353355310946,-0.09038106945298095,0.14803150790086447,-0.616553888578607,-0.1861869871215308,0.4679887280574198,27,1762115316.6622193
0.5052815675735474,0.2703991234302521,0.023276427760720253,0.9984577298164368,0.4591739773750305,0.3697826862335205,-0.10766377300024033,0.9990600943565369,0.5489556193351746,0.36943256855010986,-0.08386807143688202,0.9993302822113037,0.47556382417678833,0.5922951698303223,0.00525242742151022,0.9971206784248352,0.5266518592834473,0.5982486009597778,-0.0053404937498271465,0.9966129064559937,0.48649606108665466,0.7085816264152527,0.17362333834171295,0.8200280070304871,0.5163072347640991,0.7422316670417786,0.10882622003555298,0.6934460997581482,0.4832250475883484,0.7880851030349731,0.3294740319252014,0.6889000535011292,0.5093744993209839,0.8850196599960327,0.21681749820709229,0.6045082807540894,0.454129159450531,0.5783482193946838,-0.054363518953323364,0.17718404531478882,0.5622085332870483,0.6066303849220276,-0.0069273533299565315,0.4488782286643982,179.2492765983009,0.5011078417301178,0.59527188539505,171.33926706164942,178.29026730910837,0.6189061883610405,-0.012394861911839162,-0.03714457201652811,-0.22473034479697124,0.7293604473164804,-0.22343280282687772,0.5794688154601775,28,1762115316.73521
0.5053725242614746,0.27361243963241577,0.028330227360129356,0.9984274506568909,0.4591091275215149,0.37006741762161255,-0.1036185622215271,0.9990476965904236,0.5481321811676025,0.3698923885822296,-0.08372162282466888,0.9993579983711243,0.47540155053138733,0.588714063167572,0.005532574374228716,0.9972679615020752,0.5258985757827759,0.5939577221870422,-0.005602092016488314,0.9968900084495544,0.48684054613113403,0.703145444393158,0.182037353515625,0.7969621419906616,0.5157722234725952,0.7420462965965271,0.10457900911569595,0.7113328576087952,0.4839545786380768,0.7822471857070923,0.34584280848503113,0.6720465421676636,0.5090665817260742,0.8846534490585327,0.20675107836723328,0.6275765895843506,0.44918590784072876,0.5782073736190796,-0.04627164825797081,0.18507611751556396,0.5621638894081116,0.606692373752594,-0.0035776589065790176,0.43159446120262146,179.2311383958267,0.5006500631570816,0.5913358926773071,171.76238966438805,178.5283906424499,0.6123597600214209,-0.006809432530295668,-0.05854768752815006,0.08308297235079282,-0.3183702331192143,-0.11264961059254061,0.6192854249726987,29,1762115316.802437
0.5052710175514221,0.2746123969554901,-1.7425609257770702e-05,0.9984629154205322,0.45902466773986816,0.3702777922153473,-0.11922111362218857,0.9989941120147705,0.5464686155319214,0.3702121675014496,-0.09145671874284744,0.999371349811554,0.4754129946231842,0.5834885239601135,0.005216064862906933,0.9973427653312683,0.5246156454086304,0.588622510433197,-0.005306787323206663,0.9971243739128113,0.48771587014198303,0.7057845592498779,0.16885247826576233,0.7857284545898438,0.5147911310195923,0.7373882532119751,0.09122855961322784,0.7268657684326172,0.48433470726013184,0.7885425090789795,0.32223281264305115,0.6679179072380066,0.5085793733596802,0.8800777792930603,0.17902877926826477,0.6490207314491272,0.4484385550022125,0.5776538848876953,-0.06821896135807037,0.19039799273014069,0.5583879351615906,0.6002969741821289,-0.007776256650686264,0.41052255034446716,179.27463165093693,0.5000143200159073,0.5860555171966553,170.41637410215012,178.21003024896135,0.6133219264166243,-0.009257201974684598,-0.07688876082292412,-0.03564253338591151,-0.2670685830893816,-0.0429991843590165,0.5695350176366037,30,1762115316.8711126
0.5032445788383484,0.2747970223426819,-0.0044533563777804375,0.9984230399131775,0.45888811349868774,0.3684886395931244,-0.12063555419445038,0.9989203810691833,0.5404163002967834,0.368173211812973,-0.08997438102960587,0.9992885589599609,0.47606953978538513,0.5684338212013245,-0.0034254000056535006,0.9972226023674011,0.5212535858154297,0.5732183456420898,0.0032608367037028074,0.9971495866775513,0.4896598756313324,0.6936190128326416,0.13815727829933167,0.7822494506835938,0.5130664706230164,0.7183456420898438,0.10287340730428696,0.7260980010032654,0.4867168068885803,0.7889880537986755,0.2834242284297943,0.6704586744308472,0.5088401436805725,0.8591383099555969,0.20927052199840546,0.6544079184532166,0.44748154282569885,0.5603357553482056,-0.0757293552160263,0.20478343963623047,0.5491269826889038,0.5613656640052795,0.019432758912444115,0.37883490324020386,179.71970059134762,0.4986615628004074,0.5708260834217072,170.34909416263375,177.0506022571461,0.6038412036825672,-0.020130617733357458,-0.2266318790291393,-0.16180920980179245,-2.2283536441506784,-0.22167290945067475,0.27627651319622354,31,1762115316.9383116
0.5003236532211304,0.27461278438568115,0.00986680667847395,0.998456597328186,0.45869889855384827,0.3638327717781067,-0.11323876678943634,0.9989012479782104,0.5350247621536255,0.36094143986701965,-0.08771796524524689,0.9992794990539551,0.4759972095489502,0.5575117468833923,-0.0009924352634698153,0.9973416924476624,0.5192891955375671,0.5605856776237488,0.0007535465992987156,0.9973462820053101,0.4895715117454529,0.6741060018539429,0.1550716608762741,0.7816880345344543,0.5124099254608154,0.6982051134109497,0.10815282166004181,0.740389883518219,0.48470640182495117,0.7605749368667603,0.31183284521102905,0.6796882152557373,0.5091786980628967,0.840523362159729,0.21515870094299316,0.6738974452018738,0.4462839961051941,0.5444725751876831,-0.057645995169878006,0.2116132378578186,0.5435664057731628,0.5517922043800354,0.01760931685566902,0.34968042373657227,-179.77235468618167,0.49764320254325867,0.5590487122535706,170.3585339369683,178.3409637259812,0.5839076507628198,-0.015152193732395866,-0.17523563821862118,0.07407402676512877,0.7647252457183177,-2.169408044553642,0.19297101585148518,32,1762115317.0055203
0.4989980161190033,0.27423250675201416,-0.009945605881512165,0.9985783696174622,0.4579639434814453,0.3622223734855652,-0.12180189043283463,0.9989356994628906,0.5326247811317444,0.3590715527534485,-0.1056792289018631,0.9993248581886292,0.47368064522743225,0.5582299828529358,0.0041798753663897514,0.9975346326828003,0.5160659551620483,0.5601931810379028,-0.004413948860019445,0.9975690841674805,0.4887959957122803,0.6585344076156616,0.18499012291431427,0.7866779565811157,0.5125229954719543,0.6843708157539368,0.13069111108779907,0.7608398199081421,0.4855201244354248,0.7464505434036255,0.33148831129074097,0.7029568552970886,0.5112780928611755,0.8129918575286865,0.2294403314590454,0.7027427554130554,0.44630545377731323,0.5445485711097717,-0.07510760426521301,0.2187996655702591,0.5438209772109985,0.5637792944908142,-0.05896509811282158,0.34908151626586914,179.87850279720408,0.4948733001947403,0.5592115819454193,174.35622358126722,170.06963347109544,0.5829726443085118,-0.03812869215621923,0.0022419593042336725,-0.3162796824582738,2.443042327536922,-2.4165503184166486,0.18619640172849664,33,1762115317.0781665
0.4978325366973877,0.274006187915802,0.001991838915273547,0.9986476898193359,0.4579460620880127,0.36031413078308105,-0.11640498787164688,0.9989315867424011,0.5317424535751343,0.3576597571372986,-0.10069932043552399,0.9993304014205933,0.47276026010513306,0.554122269153595,0.007241962943226099,0.9976891279220581,0.515085756778717,0.5555432438850403,-0.007473862264305353,0.9977580904960632,0.4871813654899597,0.650566577911377,0.1792658418416977,0.7961059212684631,0.5126696825027466,0.681237518787384,0.12725800275802612,0.7809057235717773,0.48562344908714294,0.7433258891105652,0.3363776206970215,0.7235391736030579,0.5118880271911621,0.8107269406318665,0.2331405133008957,0.7282545566558838,0.44699686765670776,0.5410776138305664,-0.0639706403017044,0.22251227498054504,0.5401483774185181,0.5540028810501099,-0.052100419998168945,0.32557594776153564,179.7304853654855,0.49392300844192505,0.5548327565193176,175.13769844111445,172.2565719301988,0.5770506964776222,-0.01509217222394717,-0.06954284015782021,0.365857248816759,-1.1400588854246925,-2.0599770263421977,0.7868641254782213,34,1762115317.1411324
0.49597954750061035,0.2727753818035126,0.020558949559926987,0.9986710548400879,0.45758992433547974,0.35644763708114624,-0.09731390327215195,0.9988365173339844,0.5299339294433594,0.352260947227478,-0.09719256311655045,0.9993138313293457,0.4714682698249817,0.5525579452514648,0.008556283079087734,0.9977640509605408,0.5134279131889343,0.5522472262382507,-0.008776483125984669,0.997879683971405,0.4837380051612854,0.6406604647636414,0.17399665713310242,0.8049610257148743,0.5128519535064697,0.6649234890937805,0.1272101104259491,0.7974017858505249,0.4856390357017517,0.749316930770874,0.3157650828361511,0.7428151369094849,0.5160506367683411,0.7923687696456909,0.22642047703266144,0.7492173314094543,0.4473342001438141,0.5208626389503479,-0.013445863500237465,0.21343109011650085,0.5381864309310913,0.5379591584205627,0.012808097526431084,0.3010512590408325,179.61991029174118,0.492448091506958,0.5524025857448578,170.05921190189292,167.46549179311486,0.5575500643706485,-0.022744904112006588,-0.03747600961821283,-0.11801386834892923,0.49450716071385586,-3.3121251226104333,0.5150564823371855,35,1762115317.2059784
0.49443182349205017,0.2684861123561859,0.05559099465608597,0.9986836314201355,0.4577180743217468,0.34547656774520874,-0.0797027200460434,0.9988219141960144,0.5273951888084412,0.3446511924266815,-0.05793270468711853,0.9992560148239136,0.47123926877975464,0.5324491262435913,0.0023146860767155886,0.9978891611099243,0.5113061666488647,0.532355010509491,-0.002565734088420868,0.9979866147041321,0.48146772384643555,0.6344450116157532,0.10864973068237305,0.8203336000442505,0.5131288170814514,0.6449496746063232,0.12115491926670074,0.8124948740005493,0.48616814613342285,0.7471520900726318,0.21642084419727325,0.7626148462295532,0.5184116363525391,0.7701074481010437,0.20891901850700378,0.7666988372802734,0.4473288953304291,0.5112221837043762,-0.009721475653350353,0.20983199775218964,0.5334048271179199,0.5165488719940186,0.04102153703570366,0.27775633335113525,179.60733209888036,0.4912727177143097,0.5324020683765411,176.61834027326904,167.26495320485628,0.5147585315617759,-0.014730247372840082,-0.2506543622657069,0.10044283538968328,-2.6716350906181034,-0.6786777961383911,0.2571623016462762,36,1762115317.2857716
0.49352866411209106,0.2658996880054474,0.08668012917041779,0.9986841678619385,0.4576912820339203,0.34049808979034424,-0.060704607516527176,0.9988369941711426,0.527045726776123,0.34410932660102844,-0.02876320108771324,0.9991165995597839,0.4695689082145691,0.525669276714325,-0.005295445676892996,0.9980652332305908,0.5098459720611572,0.5227566361427307,0.005017894320189953,0.9981224536895752,0.48012644052505493,0.6301390528678894,0.09960594028234482,0.8365623354911804,0.5131419897079468,0.6351062059402466,0.13379716873168945,0.8277740478515625,0.48603659868240356,0.7438116073608398,0.13436855375766754,0.7844890356063843,0.5180853009223938,0.7549286484718323,0.17681509256362915,0.7868320345878601,0.447112500667572,0.5039534568786621,-0.018585285171866417,0.20920266211032867,0.5254048705101013,0.5051016807556152,0.05942462757229805,0.2542453408241272,179.16190694711125,0.48970744013786316,0.5242129564285278,151.90602620238735,150.83777720156527,0.48843145653748843,-0.022556345770631484,-0.11800874390160104,-0.11277755725365927,1.9114823324642436,2.9806588668728797,0.4902716181158234,37,1762115317.3551657
0.4935132563114166,0.2654268741607666,0.0979926586151123,0.9987384080886841,0.4576300084590912,0.34121793508529663,-0.04356156289577484,0.9988901019096375,0.5259031653404236,0.3445635139942169,-0.0168735571205616,0.9989999532699585,0.46807020902633667,0.5239613056182861,-0.01248556561768055,0.9982397556304932,0.5099908113479614,0.519187867641449,0.012308781035244465,0.9982587099075317,0.4803141951560974,0.6259605884552002,0.07110670208930969,0.8524848818778992,0.5134010314941406,0.6246939897537231,0.13945232331752777,0.8434401154518127,0.48601198196411133,0.7434239983558655,0.1278447061777115,0.8049333095550537,0.5188701152801514,0.742633581161499,0.17934046685695648,0.8058515191078186,0.4496925473213196,0.4953610301017761,0.021234793588519096,0.1953902691602707,0.5215318202972412,0.499284029006958,0.10511980950832367,0.23176872730255127,179.12273332518433,0.48903051018714905,0.5215745866298676,166.17780328534784,148.35750627054875,0.48091022783995147,-0.009726223549844648,-0.037908463707149634,0.18434497802846395,1.1508919508651716,2.805412100279088,0.48994689115157936,38,1762115317.4247642
0.4933527410030365,0.2655054032802582,0.0855780839920044,0.99881511926651,0.457589715719223,0.34120509028434753,-0.04801501706242561,0.9989635944366455,0.5261181592941284,0.34603944420814514,-0.020936651155352592,0.9989805221557617,0.46818193793296814,0.5251763463020325,-0.016989396885037422,0.998406171798706,0.5103415250778198,0.519852340221405,0.016853822395205498,0.9983987808227539,0.48039230704307556,0.6287201642990112,0.0789191946387291,0.8668364882469177,0.5139542818069458,0.6172285079956055,0.16842061281204224,0.8563147187232971,0.486046701669693,0.7431901097297668,0.15593726933002472,0.8233252763748169,0.5185929536819458,0.7222906947135925,0.2779383063316345,0.8218205571174622,0.4524034559726715,0.4871281087398529,0.04074343293905258,0.18245214223861694,0.5252199769020081,0.5053583979606628,0.08757717907428741,0.2146911919116974,179.16982309645948,0.489261731505394,0.5225143432617188,170.75345832080973,168.88540999920878,0.485432100990253,0.002815383967788103,0.011442611671877585,0.15270841375461106,0.6009057792328348,4.035258068116874,0.5035821771281387,39,1762115317.506892
0.49344223737716675,0.2653418481349945,0.08101160824298859,0.9988791942596436,0.4574594497680664,0.3421192467212677,-0.04959182068705559,0.9990270137786865,0.5257336497306824,0.34640029072761536,-0.024851158261299133,0.9989594221115112,0.46820926666259766,0.5252078771591187,-0.017838632687926292,0.998554527759552,0.5102071762084961,0.519348680973053,0.017722763121128082,0.9985206127166748,0.48053470253944397,0.629119336605072,0.07812876254320145,0.8796833157539368,0.5139633417129517,0.6169206500053406,0.1678725928068161,0.8673025369644165,0.48604875802993774,0.7435122132301331,0.15064576268196106,0.8398363590240479,0.5183976292610168,0.7223259210586548,0.2732849419116974,0.836126446723938,0.45389628410339355,0.49020084738731384,0.04969935864210129,0.17023111879825592,0.5257571935653687,0.5045141577720642,0.0796574130654335,0.20027793943881989,179.2313556443695,0.4892082214355469,0.5222782790660858,169.31987886780095,168.0022554207161,0.4856484778224561,-0.0009181062518152477,-0.004050303325329199,-0.06405786278177025,-0.2658217819266554,3.5879591740079237,0.48004944243076064,40,1762115317.565175
0.49313879013061523,0.2654359042644501,0.08502671867609024,0.9989544749259949,0.4574308395385742,0.3421661853790283,-0.043484725058078766,0.9990983009338379,0.5256607532501221,0.34705644845962524,-0.01903095468878746,0.9989621639251709,0.46817412972450256,0.5231059789657593,-0.01670253649353981,0.9986936450004578,0.5097224712371826,0.5173614025115967,0.016568107530474663,0.998646080493927,0.48062974214553833,0.630160927772522,0.09099207073450089,0.8913509249687195,0.5139248967170715,0.6151618361473083,0.17605920135974884,0.8776916265487671,0.4860299527645111,0.7401299476623535,0.16903379559516907,0.8549732565879822,0.5183705687522888,0.715688169002533,0.2879893183708191,0.8494952321052551,0.45637670159339905,0.4907747507095337,0.06649290025234222,0.16035552322864532,0.525202751159668,0.5029524564743042,0.0964309573173523,0.1864222288131714,179.15264382651873,0.4889483004808426,0.520233690738678,169.90590377577118,169.57378686071485,0.4843050973379222,-0.0038277173874879744,-0.030109562732169064,-0.042848292656950365,-0.38376082624852037,4.099567279272192,0.5275237337236903,41,1762115317.63308
0.4933086335659027,0.2655394971370697,0.06588636338710785,0.9990231394767761,0.4581012725830078,0.34023112058639526,-0.04938076063990593,0.9991652965545654,0.5257235765457153,0.346819669008255,-0.029449621215462685,0.9989922642707825,0.46822452545166016,0.51939457654953,-0.019702326506376266,0.998817503452301,0.5091850757598877,0.5147666335105896,0.019496235996484756,0.9987540245056152,0.48065224289894104,0.6306161284446716,0.07928295433521271,0.901598334312439,0.5125371217727661,0.6141160726547241,0.1701136827468872,0.8795226812362671,0.4860098958015442,0.7385247945785522,0.17693303525447845,0.868087649345398,0.5178602337837219,0.7077614665031433,0.30275842547416687,0.8558648824691772,0.4553600251674652,0.4880914092063904,0.035963017493486404,0.16452325880527496,0.5255372524261475,0.504520833492279,0.06377698481082916,0.19289332628250122,178.94118768542918,0.4887048006057739,0.5170806050300598,177.24002906117954,177.95864179992566,0.489629821374436,-0.004049067532529318,-0.05243147236296455,-0.0036807480305886156,-0.3711826115911575,5.564854212973169,0.6005231762643043,42,1762115317.6932173
0.4934232234954834,0.2656543552875519,0.04236401617527008,0.999081552028656,0.458695650100708,0.33899590373039246,-0.06910691410303116,0.999222993850708,0.5257474184036255,0.3467088043689728,-0.039544910192489624,0.9990164041519165,0.4685724675655365,0.5177420377731323,-0.02098218724131584,0.9989268183708191,0.509101927280426,0.5134307146072388,0.020757248625159264,0.9988434910774231,0.4807068407535553,0.6279791593551636,0.08803987503051758,0.9102581143379211,0.509758710861206,0.6108270287513733,0.17452135682106018,0.8738592267036438,0.4860268533229828,0.7352089881896973,0.18024690449237823,0.8791710734367371,0.5159327387809753,0.7041676044464111,0.3092508912086487,0.8579995632171631,0.4549857974052429,0.4797969460487366,0.03084523417055607,0.16673384606838226,0.5283768773078918,0.5045711994171143,0.037450917065143585,0.20438751578330994,178.87756095867826,0.48883719742298126,0.5155863761901855,175.35777683076233,176.90045771244533,0.4971554703784255,0.0018080639857259607,-0.02040578775831811,0.07998733490121215,0.4373555812992077,6.561838631801353,0.5887830392326581,43,1762115317.766443
0.49348267912864685,0.26672980189323425,0.017589282244443893,0.999117910861969,0.45902594923973083,0.3394528925418854,-0.08601370453834534,0.9992748498916626,0.5254977941513062,0.346372127532959,-0.06977847963571548,0.999049961566925,0.4697834849357605,0.5184903740882874,-0.01888415403664112,0.9990265369415283,0.5093206763267517,0.514380931854248,0.018667785450816154,0.9989275336265564,0.48082780838012695,0.6258610486984253,0.10353348404169083,0.9174467325210571,0.5069650411605835,0.599757194519043,0.17942488193511963,0.8556737303733826,0.48598724603652954,0.7318998575210571,0.22663238644599915,0.8886665105819702,0.5121814012527466,0.6749148964881897,0.33450037240982056,0.8499796986579895,0.45443400740623474,0.4817292094230652,0.010718805715441704,0.16546419262886047,0.5297166109085083,0.5008910894393921,0.023491917178034782,0.209977924823761,179.10532411089562,0.4895520806312561,0.5164356529712677,177.8188222986587,176.71243469494726,0.5097799884945353,0.0100383581409986,0.011925506699073982,0.11556942362063573,0.45399459543692117,5.942671542004841,0.5222285363263922,44,1762115317.8376582
0.49391549825668335,0.26807740330696106,0.00775218615308404,0.9991349577903748,0.46000614762306213,0.340022474527359,-0.09506426751613617,0.9993216395378113,0.5256696343421936,0.34639230370521545,-0.0752427950501442,0.9990754127502441,0.47077035903930664,0.5174812078475952,-0.019138069823384285,0.9991148114204407,0.5094255805015564,0.5135332942008972,0.018922077491879463,0.9989955425262451,0.48089146614074707,0.6253377199172974,0.1045386791229248,0.9232542514801025,0.5048472881317139,0.5984031558036804,0.18076111376285553,0.8298062682151794,0.4857112467288971,0.731455385684967,0.22893790900707245,0.8962079286575317,0.5068396329879761,0.678722083568573,0.33634746074676514,0.8368628025054932,0.4545605778694153,0.47984665632247925,0.0058832112699747086,0.16428637504577637,0.5310031175613403,0.5016182661056519,0.020199229940772057,0.2199975848197937,179.08895637344492,0.4900979697704315,0.5155072510242462,177.9941176793862,177.8328084736855,0.5162840877994538,0.007866910615196962,-0.013379374323558213,-0.03129313694878769,-0.3646733793494144,5.540764708103744,0.8041886620808133,45,1762115317.9070487
0.4940914213657379,0.269443541765213,0.013754909858107567,0.9991257190704346,0.4602382183074951,0.34028610587120056,-0.09169963747262955,0.9993603825569153,0.5257435441017151,0.34647902846336365,-0.07435577362775803,0.9990894794464111,0.47127828001976013,0.5178015828132629,-0.01857156679034233,0.9991940259933472,0.5095106363296509,0.5137353539466858,0.018365273252129555,0.9990544319152832,0.4810982644557953,0.6252395510673523,0.10477616637945175,0.9283252358436584,0.5050632953643799,0.5962072610855103,0.17753109335899353,0.80568927526474,0.48565515875816345,0.7297478318214417,0.22552284598350525,0.90287184715271,0.5055439472198486,0.6782255172729492,0.32963043451309204,0.82375168800354,0.4550246596336365,0.4828551709651947,0.0031191129237413406,0.161302849650383,0.5310612320899963,0.5015954375267029,0.021429287269711494,0.2268650233745575,179.1370939696304,0.4903944581747055,0.5157684683799744,178.12211811555463,178.10220927192773,0.5083619912375898,0.003978979819731036,0.00350562980549254,-0.05217741386396289,0.22660275989573608,5.400733605143322,1.0304193864211137,46,1762115317.9815624
0.4943431317806244,0.27054643630981445,0.019496819004416466,0.9991183876991272,0.46094417572021484,0.3407737910747528,-0.08888883888721466,0.9993991851806641,0.5260217785835266,0.3465690314769745,-0.0687069520354271,0.9990817904472351,0.47179731726646423,0.5159637928009033,-0.01802683062851429,0.9992663860321045,0.5096100568771362,0.5127466320991516,0.017823021858930588,0.9991095066070557,0.48124179244041443,0.6243087649345398,0.1054355725646019,0.9334121346473694,0.505099356174469,0.5939054489135742,0.17612870037555695,0.7907012104988098,0.48550766706466675,0.7279316186904907,0.2300679236650467,0.9091724157333374,0.5057723522186279,0.6742258667945862,0.3322512209415436,0.8146600127220154,0.4551811218261719,0.4850916266441345,-0.0018427623435854912,0.1620645821094513,0.5304981470108032,0.5011268258094788,0.02848297916352749,0.22229942679405212,179.06711990976143,0.49070368707180023,0.5143552124500275,177.6011068346067,178.26431974865375,0.5038126092491306,0.006075226005901916,-0.02776535200711977,0.04118363278674066,-0.6143613476067593,5.0888361157663775,1.125020372558823,47,1762115318.0324624
0.4951690137386322,0.2718302309513092,0.011716415174305439,0.9991472363471985,0.4635407030582428,0.34134069085121155,-0.10189920663833618,0.9994434714317322,0.5269510746002197,0.3467380404472351,-0.06655443459749222,0.999083936214447,0.4728561043739319,0.5138819217681885,-0.021016446873545647,0.9993358850479126,0.5102617740631104,0.5111448168754578,0.020742421969771385,0.9991773366928101,0.4813123345375061,0.6239392757415771,0.10516079515218735,0.9393311738967896,0.5044600367546082,0.586889922618866,0.19017305970191956,0.7925118803977966,0.485504150390625,0.7270131707191467,0.22699089348316193,0.9170511960983276,0.5049356818199158,0.6685065627098083,0.35458844900131226,0.819797694683075,0.45451655983924866,0.48620936274528503,-0.012033435516059399,0.17750023305416107,0.5298218131065369,0.49514520168304443,0.05844689533114433,0.21433009207248688,178.7463173356067,0.4915589392185211,0.5125133693218231,178.2933315832051,176.95056231477756,0.5092130590084601,0.01077330540288915,-0.023201039132654592,0.05918002584947936,0.05749501680818331,4.865162331213931,1.5791757014865646,48,1762115318.1118486
0.4968796670436859,0.2726011276245117,0.037843573838472366,0.9991167187690735,0.46674782037734985,0.34194159507751465,-0.09593970328569412,0.9994803667068481,0.5281924605369568,0.346798300743103,-0.039528969675302505,0.9990515112876892,0.4749225676059723,0.51326984167099,-0.02397110126912594,0.9993994832038879,0.5114446878433228,0.5118783116340637,0.023638766258955002,0.999241828918457,0.4819898009300232,0.6236571669578552,0.11205500364303589,0.945010781288147,0.5048642158508301,0.5836957097053528,0.20349493622779846,0.805572509765625,0.48549166321754456,0.7248380780220032,0.22400379180908203,0.9247479438781738,0.5045877695083618,0.6643680334091187,0.3548397719860077,0.8306930065155029,0.45314401388168335,0.4853895902633667,-0.026151981204748154,0.20819154381752014,0.5251164436340332,0.46786606311798096,0.1095055490732193,0.20080792903900146,178.5401907541948,0.4931836277246475,0.5125740766525269,176.76123976361075,173.42666847255478,0.49130500455550474,0.025516217147264878,0.0009534267195380865,0.23154182234559673,0.37935308425995046,4.519375357878942,2.656312545692199,49,1762115318.1755214
0.49819451570510864,0.27350515127182007,0.039145682007074356,0.999085009098053,0.47024816274642944,0.3421967625617981,-0.10871511697769165,0.9995209574699402,0.5295873880386353,0.346755713224411,-0.024800045415759087,0.9989616274833679,0.47780728340148926,0.509015679359436,-0.029511919245123863,0.9994572401046753,0.5128594040870667,0.5085967183113098,0.029134627431631088,0.9993007183074951,0.4824630320072174,0.6208081841468811,0.10772454738616943,0.950252115726471,0.5051566958427429,0.582203209400177,0.2021237164735794,0.8195624351501465,0.48550787568092346,0.7216857671737671,0.19067701697349548,0.9318790435791016,0.5042519569396973,0.6642652153968811,0.3430352807044983,0.8415592908859253,0.4516775608062744,0.4859965741634369,-0.05697454884648323,0.26821640133857727,0.5210464000701904,0.4543708264827728,0.14897869527339935,0.18571056425571442,178.40199272416564,0.49533334374427795,0.5088061988353729,168.58688520102933,172.54100838155364,0.477303267771136,0.033103487838458005,-0.058021569527306104,0.11683641967564606,-0.9081562649219773,4.39332504500063,4.280305717111155,50,1762115318.2404606
0.49943456053733826,0.27394425868988037,0.039008256047964096,0.9989891648292542,0.47349196672439575,0.3416736423969269,-0.12177374213933945,0.9995592832565308,0.5309411883354187,0.34567415714263916,-0.016406754031777382,0.9988435506820679,0.48050323128700256,0.5040557384490967,-0.034685663878917694,0.9995065927505493,0.5140249729156494,0.5032332539558411,0.0343545526266098,0.999340295791626,0.4829307496547699,0.613086462020874,0.09451773017644882,0.9546963572502136,0.5055254697799683,0.5825597047805786,0.1938411295413971,0.8302786946296692,0.48561325669288635,0.7171423435211182,0.19129037857055664,0.9379743933677673,0.504813551902771,0.669244110584259,0.34180235862731934,0.8495339751243591,0.451606422662735,0.486386239528656,-0.08426596224308014,0.33095043897628784,0.5161975026130676,0.446717232465744,0.16186338663101196,0.17185024917125702,178.22676576571413,0.497264102101326,0.5036444962024689,173.059509893832,175.33294683359583,0.47703365530802644,0.02968347946249881,-0.07935601756482344,-0.0525792096244352,-0.32799580944641155,3.9833993397506964,5.0212943746213,51,1762115318.3055055
0.4996810555458069,0.2740829885005951,0.03824463114142418,0.998970627784729,0.4742453098297119,0.34178560972213745,-0.11948206275701523,0.9995918273925781,0.5315312147140503,0.3445022702217102,-0.014454521238803864,0.9988093972206116,0.48124176263809204,0.5026650428771973,-0.03612156957387924,0.9995512962341309,0.5143063068389893,0.5004908442497253,0.035784441977739334,0.9993818402290344,0.48315882682800293,0.6108642816543579,0.08381472527980804,0.9586955308914185,0.5055450797080994,0.5828176140785217,0.19071441888809204,0.8400096297264099,0.48563331365585327,0.715128481388092,0.16978779435157776,0.9434958696365356,0.5053139328956604,0.6711704134941101,0.31373023986816406,0.8577457666397095,0.4515312612056732,0.48992329835891724,-0.07495192438364029,0.38195064663887024,0.5165175199508667,0.4494226574897766,0.15184247493743896,0.16075393557548523,178.1511422155228,0.49777403473854065,0.5015779435634613,171.53805846347527,171.80320611193434,0.46588894040463735,0.007561569083587588,-0.030644009432461386,-0.3280361784740089,0.7223291623479288,2.715094652677256,4.5554147685765605,52,1762115318.372943
0.500408411026001,0.27390527725219727,0.02545507811009884,0.998977780342102,0.47575053572654724,0.34151265025138855,-0.1283562034368515,0.999622106552124,0.5324475169181824,0.3415769338607788,-0.01850273832678795,0.9988021850585938,0.48384609818458557,0.5001944899559021,-0.04003000259399414,0.9995903372764587,0.5167261362075806,0.49738451838493347,0.03971108794212341,0.9994126558303833,0.48318734765052795,0.6053517460823059,0.08240750432014465,0.9624494314193726,0.5065615773200989,0.5802710652351379,0.1904095858335495,0.8495693802833557,0.48567214608192444,0.7077085375785828,0.17549219727516174,0.9485695362091064,0.5071465969085693,0.6675393581390381,0.31561142206192017,0.8652099370956421,0.4529480040073395,0.49511539936065674,-0.07202064990997314,0.4260684847831726,0.5162084698677063,0.4423278272151947,0.1563536673784256,0.1507934033870697,178.61094980220588,0.5002861171960831,0.4987895041704178,172.80981182374094,172.93063614732912,0.46863813541834254,0.03623084686431877,-0.040216641908573866,0.41348651190393837,-0.1380625784353177,0.06496250513246882,2.482509772142619,53,1762115318.4422784
0.5014051198959351,0.2735142707824707,0.006253486964851618,0.9988604187965393,0.47836756706237793,0.34077200293540955,-0.14127914607524872,0.9996383786201477,0.5332924127578735,0.34000158309936523,-0.024351829662919044,0.9986417293548584,0.4863125681877136,0.49569833278656006,-0.04162446781992912,0.999613344669342,0.5189484357833862,0.494419127702713,0.04132212698459625,0.9993993043899536,0.4831879138946533,0.5972713232040405,0.08535792678594589,0.9654994606971741,0.5077210664749146,0.5794519782066345,0.18162648379802704,0.8561890125274658,0.48598235845565796,0.6968563795089722,0.18378856778144836,0.9528226256370544,0.5085160136222839,0.6675028800964355,0.298238605260849,0.870841920375824,0.45500001311302185,0.49750927090644836,-0.08693763613700867,0.461073637008667,0.5149562954902649,0.43870997428894043,0.14692404866218567,0.13899074494838715,178.81496916761307,0.5026305019855499,0.49505873024463654,172.93529607588556,172.77786520173981,0.47131406916518204,0.03170166035302652,-0.05044894011445152,-0.061245377935227385,-0.13836501747112268,-0.8036237491073948,1.7817538070913188,54,1762115318.5162299
0.501689612865448,0.2726237177848816,0.007243023719638586,0.9988881945610046,0.4800024628639221,0.339227557182312,-0.14103487133979797,0.9996553659439087,0.5334709882736206,0.3381665349006653,-0.012055682018399239,0.9985830783843994,0.48840269446372986,0.4919147789478302,-0.045203790068626404,0.9996325373649597,0.5201314687728882,0.49094635248184204,0.04490816965699196,0.9994084239006042,0.48324912786483765,0.5939979553222656,0.07875005900859833,0.9686177968978882,0.5093057155609131,0.5780948400497437,0.17575891315937042,0.8649560809135437,0.48687297105789185,0.6878229975700378,0.16574600338935852,0.9570049047470093,0.5095781683921814,0.6697686314582825,0.27662673592567444,0.8792115449905396,0.45734652876853943,0.5000801086425781,-0.08613167703151703,0.4974430203437805,0.5162068605422974,0.4426572024822235,0.14113487303256989,0.12857533991336823,179.07362938118308,0.504267081618309,0.4914305657148361,171.55006957310442,170.48079687661513,0.4590855334547491,0.023989098108288514,-0.05318188807694055,-0.11305127392022027,-0.040059741356103656,-1.136820598199128,1.267037667254397,55,1762115318.5844517
0.502771258354187,0.2722133994102478,0.013852315954864025,0.9989035129547119,0.48177751898765564,0.33772286772727966,-0.1339768022298813,0.9996659159660339,0.5334604382514954,0.33705732226371765,-0.006138802506029606,0.9985705018043518,0.4905461370944977,0.48882827162742615,-0.04414725676178932,0.9996525645256042,0.5221235752105713,0.4892067015171051,0.04387935250997543,0.9994339942932129,0.4832560122013092,0.5862104892730713,0.06940348446369171,0.9715849161148071,0.5098643898963928,0.5773637294769287,0.1689022332429886,0.8752284646034241,0.4878639578819275,0.6810848116874695,0.160294771194458,0.960907518863678,0.5095463395118713,0.6709532141685486,0.27017197012901306,0.888399064540863,0.46059679985046387,0.4997453987598419,-0.09522570669651031,0.5251672267913818,0.5154834985733032,0.44628456234931946,0.11835700273513794,0.11834108829498291,179.51477738915221,0.5063348561525345,0.4890174865722656,172.59533127688692,171.22237713644083,0.4512536270780021,0.02900083930768819,-0.033843786782408646,0.07029040099381675,0.2712196899980617,-0.7377841467780444,0.5983941258813285,56,1762115318.6557522
0.5029758214950562,0.2711832821369171,0.016681786626577377,0.9988765120506287,0.48232483863830566,0.3368147015571594,-0.13211914896965027,0.999675989151001,0.5335075259208679,0.3346932828426361,-0.006078037898987532,0.9984794855117798,0.49184471368789673,0.48808351159095764,-0.043006498366594315,0.9996684193611145,0.5237558484077454,0.4891360402107239,0.042754869908094406,0.999442994594574,0.4833044111728668,0.5795601010322571,0.07250060141086578,0.9740967154502869,0.510292649269104,0.5762883424758911,0.1661880612373352,0.8841332197189331,0.48791128396987915,0.6770541667938232,0.16376955807209015,0.9643705487251282,0.5089092254638672,0.6713621616363525,0.26481062173843384,0.8961948156356812,0.46309441328048706,0.49928855895996094,-0.09568069875240326,0.5472131371498108,0.5137147903442383,0.44317927956581116,0.10890670120716095,0.10834182053804398,179.9565561080704,0.507800281047821,0.48860977590084076,169.96390622090067,170.171886342351,0.44888633472050593,0.021048434321642114,-0.00585609765285226,-0.1142233045079791,0.40199742637974506,-2.3734354915177067,0.07186672743006048,57,1762115318.7253737
0.5031620860099792,0.2701900005340576,0.013592960312962532,0.998786449432373,0.48257341980934143,0.3367064893245697,-0.1359734833240509,0.9996803998947144,0.5335807800292969,0.3339809775352478,-0.0123619195073843,0.9983587861061096,0.4921529293060303,0.4880823493003845,-0.04211090877652168,0.9996780753135681,0.5239230394363403,0.48913490772247314,0.04187018796801567,0.9994373917579651,0.4832683503627777,0.5793786644935608,0.06919364631175995,0.9763221144676208,0.5105050802230835,0.5741326808929443,0.16094109416007996,0.8914800882339478,0.48801398277282715,0.6759964227676392,0.16580423712730408,0.9674239754676819,0.5085012316703796,0.6692651510238647,0.26827090978622437,0.9021667242050171,0.4639004170894623,0.49892234802246094,-0.09876703470945358,0.5674743056297302,0.5138498544692993,0.4458021819591522,0.09794165939092636,0.09955618530511856,179.98537724002904,0.5080379843711853,0.48860862851142883,172.0870541600684,172.49780522306514,0.4509682373037326,0.0028707086936115935,-1.385685615647522e-05,-0.21952976614680325,0.07055589803238205,-3.0586165419255265,0.028512120609741946,58,1762115318.8081768
0.5032748579978943,0.2696708142757416,0.014064033515751362,0.9986981153488159,0.48261943459510803,0.33541199564933777,-0.13312646746635437,0.999679684638977,0.5335181951522827,0.3324749767780304,-0.013289053924381733,0.9981640577316284,0.49251335859298706,0.4852118492126465,-0.04115262255072594,0.9996827840805054,0.5239137411117554,0.48692142963409424,0.040896959602832794,0.999416708946228,0.48326951265335083,0.5787359476089478,0.06357112526893616,0.9784090518951416,0.5104595422744751,0.5731287002563477,0.15220457315444946,0.8993555307388306,0.4879608154296875,0.6777467131614685,0.15609100461006165,0.9702939987182617,0.5080405473709106,0.6696359515190125,0.25569722056388855,0.9088399410247803,0.46561145782470703,0.49812576174736023,-0.09584444016218185,0.581899881362915,0.5140278935432434,0.4472891390323639,0.08623380959033966,0.0913555845618248,-179.9454869245817,0.5082135498523712,0.48606663942337036,172.2447643281213,173.08840310902454,0.4472797504832525,0.002525863192629333,-0.03657163486934629,-0.004961297358633636,-0.5259572967538403,-3.302484894613311,0.1272782637817815,59,1762115318.8776839
0.5032116770744324,0.2688111662864685,0.017065882682800293,0.9986742734909058,0.4823265075683594,0.33465656638145447,-0.1292119026184082,0.999680757522583,0.5334848165512085,0.33089253306388855,-0.015392260625958443,0.9980229139328003,0.4931003153324127,0.4823596179485321,-0.04009174928069115,0.9996858835220337,0.5242325067520142,0.48454391956329346,0.03987572714686394,0.9993963241577148,0.48431190848350525,0.5769217014312744,0.06465847790241241,0.9802950024604797,0.5105637907981873,0.5729895234107971,0.14481250941753387,0.9066451191902161,0.48757997155189514,0.6764117479324341,0.15558810532093048,0.9728627800941467,0.5077515244483948,0.6699796915054321,0.24449443817138672,0.9148094058036804,0.46689948439598083,0.49724870920181274,-0.094047911465168,0.5957624316215515,0.5137616991996765,0.44822242856025696,0.09096595644950867,0.08382517099380493,-179.71072378504147,0.5086664110422134,0.4834517687559128,172.57752532154785,173.87486577200568,0.44388919494278994,0.00679700807294276,-0.0392466774258191,0.06410575002532859,-0.04014979923129608,-4.208022614620754,3.3235230901622494,60,1762115318.9443104
0.503126859664917,0.2678930163383484,0.007142483256757259,0.9986281991004944,0.4820941984653473,0.33400866389274597,-0.12886954843997955,0.9996668100357056,0.5334610939025879,0.3303470015525818,-0.0240973848849535,0.9978177547454834,0.4938267767429352,0.47921624779701233,-0.03817669302225113,0.9996636509895325,0.5247042775154114,0.48195627331733704,0.037962667644023895,0.9993148446083069,0.486494243144989,0.5749582052230835,0.0655575543642044,0.9818122982978821,0.5108401775360107,0.5727174282073975,0.13791969418525696,0.9124000668525696,0.4868292212486267,0.675376832485199,0.1573675274848938,0.9749756455421448,0.5077546834945679,0.670208215713501,0.23638422787189484,0.9192543029785156,0.46791768074035645,0.496094673871994,-0.08812239021062851,0.6080923080444336,0.515372633934021,0.4473838806152344,0.09201204031705856,0.07731493562459946,-179.42559567678776,0.5092655271291733,0.4805862605571747,174.20119595519597,174.75656939251678,0.4471872297896928,0.009068509810573116,-0.04337371300509926,0.03438254495378892,-0.06246879937609696,-4.077402672762108,1.0811061434885696,61,1762115319.010376
0.5031991600990295,0.26729199290275574,-0.008760949596762657,0.9985913634300232,0.4816652238368988,0.3337622880935669,-0.12852148711681366,0.9996443390846252,0.5330394506454468,0.3296853005886078,-0.044778309762477875,0.9976651072502136,0.49346861243247986,0.4787859618663788,-0.031247541308403015,0.9996507167816162,0.5244996547698975,0.480879008769989,0.031013499945402145,0.9992581009864807,0.48876380920410156,0.5765988826751709,0.0722191110253334,0.9830275177955627,0.5111058950424194,0.573462188243866,0.13536840677261353,0.9173290133476257,0.4865957796573639,0.6740568280220032,0.1650611311197281,0.9768722653388977,0.5076383948326111,0.6703206300735474,0.23343023657798767,0.9235773682594299,0.4685288369655609,0.49488961696624756,-0.08643914759159088,0.6093984842300415,0.5176190137863159,0.4397929310798645,0.0843319445848465,0.07212033867835999,-179.36876586312047,0.5089841336011887,0.4798324853181839,176.79569980309162,174.89578951779413,0.45524182376894173,-0.003986873129437835,-0.010679727666416696,-0.18497282368518378,0.46321879744211014,-4.537404466006251,0.5789047439159352,62,1762115319.080956
0.5031472444534302,0.26727744936943054,-0.006899365223944187,0.9986097812652588,0.48157405853271484,0.3338910937309265,-0.12301020324230194,0.9996301531791687,0.5322185754776001,0.33022981882095337,-0.044758860021829605,0.9976774454116821,0.4930892586708069,0.4798784554004669,-0.027806952595710754,0.999649703502655,0.5242675542831421,0.48144203424453735,0.027574095875024796,0.999233603477478,0.4891623556613922,0.5786551833152771,0.07507160305976868,0.9840524196624756,0.5111475586891174,0.5737946033477783,0.13229916989803314,0.9210297465324402,0.4863815903663635,0.6744473576545715,0.17198637127876282,0.9783881306648254,0.5076267123222351,0.669914722442627,0.2364020049571991,0.9261703491210938,0.4684849679470062,0.4947565793991089,-0.0771230012178421,0.60360187292099,0.5197016000747681,0.4366278648376465,0.08554188907146454,0.06810088455677032,-179.31291079306598,0.5086784064769745,0.48066024482250214,178.90676647504742,175.80524031672266,0.4566674321651933,-0.004844033318223028,0.01311527274100937,-0.013581106106310407,0.37701520621361734,-4.1349251541653125,0.5654185465088616,63,1762115319.1440701
0.50311279296875,0.2670995891094208,-0.011281238868832588,0.9985955357551575,0.4813756048679352,0.33404573798179626,-0.12327959388494492,0.9996150732040405,0.5316675901412964,0.33054789900779724,-0.04576766863465309,0.9976571798324585,0.49282366037368774,0.48021113872528076,-0.02748318947851658,0.9996498823165894,0.5240781307220459,0.48152250051498413,0.02725961245596409,0.999210774898529,0.48923245072364807,0.5797519087791443,0.07566613703966141,0.984760046005249,0.5111638903617859,0.5741689205169678,0.13293525576591492,0.92280513048172,0.48629117012023926,0.674656867980957,0.17325536906719208,0.9796909689903259,0.5076273083686829,0.6696131229400635,0.23787757754325867,0.9279529452323914,0.4687442183494568,0.4929155111312866,-0.07785151153802872,0.5985896587371826,0.5201226472854614,0.438886821269989,0.08090508729219437,0.06388060003519058,-179.25601116254194,0.5084508955478668,0.48086681962013245,179.34882416897287,175.997008443431,0.4594719544178436,-0.0034863159586866537,0.0031654963410579695,0.02080529369073757,-0.1524676831331422,-3.9785503571505387,0.5954749856237981,64,1762115319.2093284
0.5031364560127258,0.26708605885505676,-0.005997655913233757,0.9986155033111572,0.48127514123916626,0.33399635553359985,-0.12221252918243408,0.9996193647384644,0.5311406254768372,0.3301559090614319,-0.04529065638780594,0.9976345300674438,0.4925861954689026,0.4799416959285736,-0.026206305250525475,0.9996547102928162,0.5238921642303467,0.4809897243976593,0.02599368989467621,0.9991992115974426,0.4894801080226898,0.5795131325721741,0.07645585387945175,0.9854784607887268,0.5115041732788086,0.5742799043655396,0.12969687581062317,0.9258082509040833,0.48629409074783325,0.6735636591911316,0.17434564232826233,0.9808145761489868,0.5076242089271545,0.6696096658706665,0.23252642154693604,0.9302265048027039,0.46842092275619507,0.49190863966941833,-0.07751165330410004,0.6101071834564209,0.5204647779464722,0.43415990471839905,0.0859445184469223,0.060911476612091064,-179.2157303178995,0.5082391798496246,0.48046571016311646,179.35108787879275,176.36014593480095,0.4555451317844408,-0.0028790600258077905,-0.00545457050779097,0.00825789630292882,-0.11722177472131638,-4.404005338862666,0.5747882773220372,65,1762115319.2828648
0.503132164478302,0.2670314610004425,0.003987347241491079,0.9986729025840759,0.4809280037879944,0.33404800295829773,-0.11764369159936905,0.9996324777603149,0.5308412909507751,0.32931241393089294,-0.0429108664393425,0.9976577758789062,0.4925417900085449,0.4794263541698456,-0.025713613256812096,0.9996630549430847,0.5236465930938721,0.4798058271408081,0.02549305558204651,0.9992005825042725,0.48973196744918823,0.5797304511070251,0.0764438658952713,0.9864289164543152,0.5117272138595581,0.574418306350708,0.12718208134174347,0.9310275912284851,0.4864765703678131,0.6738225817680359,0.1693645417690277,0.982047975063324,0.5076853036880493,0.6696747541427612,0.22373583912849426,0.9340893626213074,0.4680134654045105,0.489932119846344,-0.06600578874349594,0.6234975457191467,0.5204591155052185,0.42450204491615295,0.1121547594666481,0.05763651430606842,-179.14430399244586,0.5080941915512085,0.47961609065532684,178.90079432403397,176.3427322708326,0.4482332914266236,-0.002140802776839022,-0.012544928255604371,0.010900625677237175,-0.10469160422681066,-5.419789482396549,0.605412022065725,66,1762115319.350591
0.5027076005935669,0.26697680354118347,0.027113482356071472,0.998724102973938,0.48028841614723206,0.3340112268924713,-0.10376892238855362,0.9996435046195984,0.5308590531349182,0.3293137550354004,-0.019208144396543503,0.997593104839325,0.49252358078956604,0.47791188955307007,-0.02636619284749031,0.9996699690818787,0.5233660936355591,0.47845688462257385,0.02614591456949711,0.9991986155509949,0.4896997809410095,0.5800814032554626,0.0713462233543396,0.9873778223991394,0.5119159817695618,0.5746544599533081,0.12294654548168182,0.9361588358879089,0.4865345060825348,0.6733027696609497,0.15794502198696136,0.9831573963165283,0.5077378153800964,0.6696996092796326,0.21447081863880157,0.937710165977478,0.46680665016174316,0.4870525896549225,-0.04228788614273071,0.6386164426803589,0.5181825757026672,0.4216521382331848,0.1406060755252838,0.05375056341290474,-179.072887284322,0.5079448372125626,0.47818438708782196,178.93459089893722,176.70771131782823,0.4347206688693943,-0.001932542449221353,-0.01852525975468299,0.0026947454440142283,-0.07738137764971816,-5.306937202316733,0.6455984035410732,67,1762115319.4278748
0.5021805167198181,0.2670815885066986,0.02447802945971489,0.9987203478813171,0.47954875230789185,0.334026962518692,-0.10517555475234985,0.9996522068977356,0.5309363603591919,0.329464852809906,-0.01667374186217785,0.9975816607475281,0.49148526787757874,0.4779408276081085,-0.025843244045972824,0.9996803402900696,0.5231949090957642,0.47892019152641296,0.025633880868554115,0.9992066621780396,0.4895452857017517,0.5814538598060608,0.0689535140991211,0.9881294369697571,0.5117985010147095,0.5781188011169434,0.12130294740200043,0.9403203725814819,0.48649758100509644,0.6736122369766235,0.15598100423812866,0.9841532111167908,0.5077431797981262,0.6716417074203491,0.21514029800891876,0.9405538439750671,0.46390122175216675,0.4867763817310333,-0.05347179248929024,0.6560754179954529,0.5138667821884155,0.4361599087715149,0.12180934101343155,0.050338588654994965,-179.18074870973643,0.5073400884866714,0.47843050956726074,178.78360361907122,176.76218526043547,0.43639463128613754,-0.009341543628857323,0.0038018498944864085,-0.11444671944341807,0.3448864957700643,-5.07332697416184,0.5904361725750572,68,1762115319.4926124
0.5021432042121887,0.2672654390335083,0.031588926911354065,0.9985958337783813,0.47937241196632385,0.33406463265419006,-0.09744060039520264,0.9996497631072998,0.5311269164085388,0.3295634984970093,-0.019903969019651413,0.9975665807723999,0.48987236618995667,0.47825735807418823,-0.022914934903383255,0.9996968507766724,0.5226778984069824,0.4793325662612915,0.0227289367467165,0.9992313981056213,0.4894322454929352,0.5823837518692017,0.07243666797876358,0.9886730313301086,0.5112849473953247,0.5798689126968384,0.12446765601634979,0.9440925717353821,0.4864799380302429,0.674018383026123,0.16326561570167542,0.9849110245704651,0.5077357888221741,0.6718109250068665,0.22435340285301208,0.9430394172668457,0.4615587294101715,0.48427101969718933,-0.05360634997487068,0.6613100171089172,0.5123521685600281,0.44602665305137634,0.11643189191818237,0.046990495175123215,-179.60026069481364,0.5062751322984695,0.47879496216773987,177.3971953806765,176.28641544528747,0.4369120708063637,-0.015010249344714026,0.005136853955238927,-0.0798987669159239,0.018816495974294415,-4.970556519838694,0.31536048789568255,69,1762115319.563561
0.5021088123321533,0.2674151062965393,0.026946887373924255,0.9984951019287109,0.4792992174625397,0.3340948820114136,-0.10184911638498306,0.9996521472930908,0.5312283039093018,0.3296110928058624,-0.022042248398065567,0.9975462555885315,0.48904505372047424,0.47812533378601074,-0.02289697900414467,0.9997096061706543,0.5225319266319275,0.47960832715034485,0.02272150292992592,0.9992473125457764,0.48935049772262573,0.5824081897735596,0.07260321825742722,0.9891750812530518,0.5107582807540894,0.5803287029266357,0.12491247802972794,0.9474029541015625,0.48633140325546265,0.6744275093078613,0.16363605856895447,0.9856215715408325,0.5077285766601562,0.6718364953994751,0.22440782189369202,0.9454070925712585,0.46073564887046814,0.48348891735076904,-0.05735902860760689,0.6709980964660645,0.5120591521263123,0.45010796189308167,0.10315276682376862,0.0442424938082695,-179.79549777841552,0.5057884901762009,0.4788668304681778,177.28598827868515,176.01872174712415,0.43880071498374285,-0.007597116919950422,0.0011219577103595104,0.11572864574783168,-0.06267775598960333,-4.934933822424181,0.1734414011578296,70,1762115319.6276171
0.5022054314613342,0.26757103204727173,0.036793213337659836,0.9984365701675415,0.47897523641586304,0.3345254361629486,-0.09310442954301834,0.9996529817581177,0.5312360525131226,0.32963523268699646,-0.01985459215939045,0.997559666633606,0.48865899443626404,0.4783170521259308,-0.021639369428157806,0.9997277855873108,0.521891176700592,0.4797983467578888,0.02146301604807377,0.9992855191230774,0.4892981946468353,0.5825247168540955,0.08019565045833588,0.989783763885498,0.5105274319648743,0.5807816982269287,0.12673638761043549,0.9511767625808716,0.4861685633659363,0.6747312545776367,0.1790076494216919,0.9864463806152344,0.5076120495796204,0.6722795367240906,0.2338113784790039,0.9484988451004028,0.4588618278503418,0.48131951689720154,-0.048646844923496246,0.672096312046051,0.5105546712875366,0.4506899118423462,0.12100895494222641,0.04119470342993736,-179.9339472725645,0.505275085568428,0.4790576994419098,176.87068124366343,175.32868426552997,0.43997800802020876,-0.008060365479345402,0.0029966105945589843,-0.007272924005691805,0.029431733110277854,-5.345774197369232,0.056041250537817396,71,1762115319.691312
0.5022065043449402,0.26774147152900696,0.04088376462459564,0.9984305500984192,0.4784911572933197,0.334646075963974,-0.08825816959142685,0.999657154083252,0.5311753153800964,0.32993313670158386,-0.021022681146860123,0.9976249933242798,0.4876787066459656,0.47874683141708374,-0.019812775775790215,0.9997462034225464,0.5208784341812134,0.4806511700153351,0.019641928374767303,0.9993264079093933,0.48897624015808105,0.5826821327209473,0.08506837487220764,0.9904385805130005,0.5100650787353516,0.5814172029495239,0.127020925283432,0.9549527168273926,0.486107736825943,0.6748008131980896,0.1851312220096588,0.9873056411743164,0.5075610876083374,0.673016369342804,0.23981650173664093,0.9518324732780457,0.45760512351989746,0.4785277843475342,-0.04729748144745827,0.672398567199707,0.5110248923301697,0.45565757155418396,0.11694817245006561,0.038902293890714645,179.78441084718906,0.5042785704135895,0.4796990007162094,177.22551681716268,174.7651082967862,0.440957764424956,-0.01499116782037947,0.009647474982963308,-0.1042641654969641,0.10005289303734374,-5.111871800871479,0.20640673363205397,72,1762115319.7577856
0.502200722694397,0.2685354948043823,0.03669071942567825,0.9984729886054993,0.4777655005455017,0.33534348011016846,-0.09048052132129669,0.9996606707572937,0.5308920741081238,0.33078357577323914,-0.024585744366049767,0.9977115988731384,0.4866218566894531,0.4796282947063446,-0.018589617684483528,0.9997631311416626,0.5197502970695496,0.4820844531059265,0.018420618027448654,0.999364972114563,0.4887060523033142,0.5826959609985352,0.08895163983106613,0.9911825060844421,0.5098223090171814,0.5821237564086914,0.1302971988916397,0.9588992595672607,0.48608946800231934,0.6749662756919861,0.19072672724723816,0.988254189491272,0.5074233412742615,0.6737112998962402,0.24452880024909973,0.9555721282958984,0.4572831094264984,0.4782039523124695,-0.04850611835718155,0.674613893032074,0.5111875534057617,0.458700954914093,0.10420223325490952,0.03704950958490372,179.5570071015374,0.5031860768795013,0.48085637390613556,177.4656730670626,175.77233804589332,0.44434689962749185,-0.016765269759035265,0.017760904880029856,-0.02722514747551113,0.12450768508106239,-4.905728069472527,0.455485239539174,73,1762115319.8229496
0.5022004246711731,0.26908424496650696,0.046278730034828186,0.9985337257385254,0.47740134596824646,0.33545586466789246,-0.08169937878847122,0.9996629953384399,0.5306171178817749,0.33133047819137573,-0.022131185978651047,0.9977682828903198,0.4857112467288971,0.47973641753196716,-0.01718100532889366,0.9997760057449341,0.5186541080474854,0.4821580648422241,0.017004333436489105,0.9993957877159119,0.4883924126625061,0.5827286839485168,0.0867418646812439,0.9919183850288391,0.5095280408859253,0.5829320549964905,0.12550093233585358,0.9626721143722534,0.4860962927341461,0.675118625164032,0.18607361614704132,0.9891573190689087,0.5066293478012085,0.67588210105896,0.22901813685894012,0.9592386484146118,0.4570462107658386,0.4776676297187805,-0.03487785905599594,0.6774002313613892,0.5114265084266663,0.4588403105735779,0.10455312579870224,0.03517855331301689,179.2907784850127,0.5021826773881912,0.48094724118709564,177.2239887013214,177.4132402339454,0.43728163835587375,-0.015267388457394516,0.0013826059196755387,0.022791257015047677,-0.24920667656765455,-4.43281063884906,0.7029518022770048,74,1762115319.8886714
0.502268373966217,0.26900455355644226,0.026458045467734337,0.9985934495925903,0.477313369512558,0.33501774072647095,-0.08877185732126236,0.999667227268219,0.530438244342804,0.33141615986824036,-0.04738084226846695,0.9978870749473572,0.4853383004665375,0.47978803515434265,-0.013693282380700111,0.9997894167900085,0.5183966159820557,0.48176655173301697,0.013501708395779133,0.9994257092475891,0.48830169439315796,0.583009660243988,0.0902683362364769,0.9923717379570007,0.5093770027160645,0.5834457278251648,0.12677201628684998,0.965592622756958,0.4865744113922119,0.6752434968948364,0.19095255434513092,0.989711344242096,0.506607711315155,0.6758889555931091,0.23061048984527588,0.961963415145874,0.4573044776916504,0.47738319635391235,-0.037009529769420624,0.6813874244689941,0.5242290496826172,0.46004101634025574,0.05577095225453377,0.038667596876621246,179.2202322278487,0.5018674582242966,0.4807772934436798,176.96997335817773,177.67024756363452,0.44643002767849327,-0.003986242432282496,-0.0021491488579078125,0.142660688564942,-0.04466235675799272,-3.8784111643257564,0.8928822884672272,75,1762115319.9677482
0.5023497343063354,0.268825501203537,0.0236397422850132,0.9986485838890076,0.4771638810634613,0.3348388373851776,-0.09136699140071869,0.99966961145401,0.5302914381027222,0.3314324915409088,-0.048481497913599014,0.9979777336120605,0.48522764444351196,0.4797826409339905,-0.013581635430455208,0.9998011589050293,0.5183160305023193,0.4814823269844055,0.013387687504291534,0.9994508624076843,0.4881993234157562,0.5830273032188416,0.09157209098339081,0.9928066730499268,0.5093811750411987,0.5834561586380005,0.12729063630104065,0.9682908058166504,0.48680049180984497,0.6753072738647461,0.19378028810024261,0.9902655482292175,0.5064854621887207,0.6757931113243103,0.23615865409374237,0.9645532369613647,0.4574736952781677,0.4772906005382538,-0.04206216707825661,0.684289276599884,0.5260313153266907,0.4604303538799286,0.052721649408340454,0.040876589715480804,179.2402969392594,0.5017718374729156,0.480632483959198,176.98531667003283,177.27725348304938,0.44951596945305977,-0.0013257387941293137,-0.0020077184979505488,0.03688668865371032,0.0019608684532929762,-3.668575558073187,0.9104163260115773,76,1762115320.0398746
