nose_x,nose_y,nose_z,nose_visibility,left_shoulder_x,left_shoulder_y,left_shoulder_z,left_shoulder_visibility,right_shoulder_x,right_shoulder_y,right_shoulder_z,right_shoulder_visibility,left_hip_x,left_hip_y,left_hip_z,left_hip_visibility,right_hip_x,right_hip_y,right_hip_z,right_hip_visibility,left_knee_x,left_knee_y,left_knee_z,left_knee_visibility,right_knee_x,right_knee_y,right_knee_z,right_knee_visibility,left_ankle_x,left_ankle_y,left_ankle_z,left_ankle_visibility,right_ankle_x,right_ankle_y,right_ankle_z,right_ankle_visibility,left_wrist_x,left_wrist_y,left_wrist_z,left_wrist_visibility,right_wrist_x,right_wrist_y,right_wrist_z,right_wrist_visibility,trunk_lateral_inclination,center_mass_x,center_mass_y,left_knee_angle,right_knee_angle,person_height,center_mass_velocity_x,center_mass_velocity_y,center_mass_acceleration_x,center_mass_acceleration_y,body_orientation,torso_leg_ratio,frame,timestamp
0.5093041062355042,0.43183815479278564,-0.2908955514431,0.9999768733978271,0.5398812294006348,0.490602970123291,-0.1487385630607605,0.9999685287475586,0.48173993825912476,0.4840124845504761,-0.138875350356102,0.9999184608459473,0.5229026079177856,0.6260083913803101,-0.003302584635093808,0.9992606043815613,0.4901382029056549,0.6232645511627197,0.003257381496950984,0.9990193843841553,0.5175185203552246,0.7245322465896606,0.005957649089396,0.9722959995269775,0.49266427755355835,0.7356663346290588,0.01657283306121826,0.9612250328063965,0.5196139216423035,0.7967905402183533,0.17882293462753296,0.9640987515449524,0.48728951811790466,0.8146057724952698,0.17095236480236053,0.959747314453125,0.5498184561729431,0.6261034607887268,-0.15925653278827667,0.9145156741142273,0.4661257266998291,0.6261610984802246,-0.14737437665462494,0.8304850459098816,178.21064992933094,0.5065204054117203,0.6246364712715149,117.96649099124363,123.76052858866906,0.5972935138410125,0.0,0.0,0.0,0.0,-173.53295946461773,2.6148797076739765,0,1762115382.6448772
0.5093151330947876,0.4317055940628052,-0.31403133273124695,0.9999769330024719,0.5399747490882874,0.49087873101234436,-0.16449633240699768,0.9999696016311646,0.4816057085990906,0.4849473237991333,-0.15112543106079102,0.9999158382415771,0.5230181813240051,0.6265704035758972,-0.0033506485633552074,0.9992969036102295,0.49017149209976196,0.6243658065795898,0.0033057823311537504,0.9990491271018982,0.5176428556442261,0.7254104614257812,0.005584101192653179,0.9721246361732483,0.49268245697021484,0.7380318641662598,0.016599204391241074,0.960517942905426,0.51952064037323,0.7977744936943054,0.1971386969089508,0.9635235667228699,0.48721861839294434,0.8145135045051575,0.19803893566131592,0.9577961564064026,0.5499305129051208,0.6273468732833862,-0.17622864246368408,0.9155140519142151,0.4659629762172699,0.6277768015861511,-0.1575438678264618,0.826657772064209,178.25303600387844,0.5065948367118835,0.6254681050777435,115.78572283574009,119.46545940616942,0.6340304764445683,0.0011429787467735735,0.012770699470957585,0.017551761325012856,0.1961088687785721,-174.19757464535988,2.3385335389167725,1,1762115382.7099977
0.5094749927520752,0.43190905451774597,-0.30569711327552795,0.999975860118866,0.5403010845184326,0.4916531443595886,-0.15699590742588043,0.9999693036079407,0.4815956950187683,0.4862107038497925,-0.14528116583824158,0.9999150633811951,0.5231705904006958,0.628304123878479,-0.0028242014814168215,0.9992756843566895,0.49014681577682495,0.6266494989395142,0.0028067149687558413,0.9990997314453125,0.5176523923873901,0.7260909080505371,0.01930643431842327,0.9713473916053772,0.4928418695926666,0.7415027022361755,-0.01959802582859993,0.9606884121894836,0.5195189714431763,0.7966395020484924,0.22754378616809845,0.9569551944732666,0.4874168336391449,0.829990565776825,0.1047704815864563,0.957394003868103,0.5509985685348511,0.6277638077735901,-0.1716860830783844,0.9170912504196167,0.46595558524131775,0.6295742988586426,-0.15511098504066467,0.8169112205505371,178.22654988577557,0.5066587030887604,0.6274768114089966,121.38078076328881,114.31736221341625,0.606756159265924,0.0010027813964631719,0.03153918287588159,-0.002201272431593066,0.29468848741149084,-174.70338084926536,2.4096270804841216,2,1762115382.773687
0.5094425678253174,0.43232396245002747,-0.32018882036209106,0.9999766945838928,0.5406786203384399,0.4940226674079895,-0.15679992735385895,0.9999699592590332,0.4814233183860779,0.4879193902015686,-0.1485060751438141,0.9999216198921204,0.523171603679657,0.6310127973556519,-0.0012653308222070336,0.9992992281913757,0.48997291922569275,0.6300569176673889,0.001238820026628673,0.9991834759712219,0.5173093676567078,0.7268457412719727,0.055978137999773026,0.9697059988975525,0.4928211569786072,0.7503089904785156,-0.056644242256879807,0.962889552116394,0.5211384892463684,0.7771015763282776,0.3012301027774811,0.9362441897392273,0.4892379641532898,0.8492029905319214,0.0404830276966095,0.959574818611145,0.5514759421348572,0.6285571455955505,-0.1825256049633026,0.9117646813392639,0.4641321301460266,0.6298966407775879,-0.16869601607322693,0.8074972629547119,178.16196624694823,0.5065722614526749,0.6305348575115204,132.28925318380016,109.76638104857025,0.621428901964752,-0.0013632065362475232,0.04822616303771577,-0.03731223008508777,0.2631579115918446,-174.11929049203167,36.12898988503969,3,1762115382.8370974
0.5090792179107666,0.43503570556640625,-0.31204766035079956,0.9999783039093018,0.5406879186630249,0.4975903332233429,-0.13987256586551666,0.9999715089797974,0.48051175475120544,0.4907528758049011,-0.14410796761512756,0.9999291896820068,0.5231653451919556,0.6384320259094238,0.0016992802266031504,0.9993390440940857,0.48972734808921814,0.6382495164871216,-0.0017861385131254792,0.9992635250091553,0.5165323615074158,0.7344575524330139,0.08288748562335968,0.9653038382530212,0.49282383918762207,0.7614981532096863,-0.061969757080078125,0.9650143384933472,0.5210528373718262,0.7525807023048401,0.34546855092048645,0.87867671251297,0.49125152826309204,0.8741990923881531,0.010270738042891026,0.9611139893531799,0.5514804124832153,0.6333736777305603,-0.1581082046031952,0.9085237979888916,0.46234408020973206,0.6337271332740784,-0.16293200850486755,0.8180685639381409,178.34977444659722,0.5064463466405869,0.6383407711982727,134.00314139198906,121.28272004876818,0.6190148847534541,-0.001983940646130729,0.12299164162283997,-0.009780419083469454,1.1780208335518436,-173.5176247494348,2.8157680341064215,4,1762115382.9005644
0.5086560845375061,0.43741369247436523,-0.3139319121837616,0.999980092048645,0.5405461192131042,0.5007426142692566,-0.1397954374551773,0.9999734163284302,0.47894158959388733,0.4946431517601013,-0.1447162628173828,0.9999361038208008,0.5231510996818542,0.6440558433532715,0.0040695820935070515,0.9993847012519836,0.4894246459007263,0.6455603241920471,-0.0041755144484341145,0.9993360638618469,0.5160717964172363,0.7338102459907532,0.09612402319908142,0.9606031775474548,0.493025541305542,0.7687982320785522,-0.059137772768735886,0.967350959777832,0.5210801362991333,0.7474194169044495,0.36836546659469604,0.8286045789718628,0.4923796057701111,0.8812265396118164,0.019473938271403313,0.9630514979362488,0.5523127317428589,0.6406522393226624,-0.14747942984104156,0.9084190726280212,0.46034401655197144,0.6380162835121155,-0.16299793124198914,0.8294090628623962,178.654274021941,0.5062878727912903,0.6448080837726593,138.38846317691872,120.97908559066948,0.6324378091776225,-0.002203403455500159,0.08992082250450832,-0.003051387434992038,-0.4598131328607156,-174.34557537257436,1.5837128450318196,5,1762115382.9724867
0.5080941915512085,0.4390754699707031,-0.32742783427238464,0.9999812841415405,0.5404887795448303,0.5035272240638733,-0.15265965461730957,0.9999747276306152,0.47853630781173706,0.4957995116710663,-0.14468708634376526,0.9999423027038574,0.5230799317359924,0.6449772119522095,0.003157906699925661,0.999422013759613,0.48910731077194214,0.6466166973114014,-0.0032502792309969664,0.9994015693664551,0.5149403214454651,0.7365794777870178,0.10020405054092407,0.951505184173584,0.49307185411453247,0.7700865864753723,-0.06439389288425446,0.9693487882614136,0.5211130380630493,0.7431775331497192,0.3730529248714447,0.7768853902816772,0.4928566515445709,0.8842103481292725,0.014154255390167236,0.9649567604064941,0.5522499084472656,0.6428180932998657,-0.1520703285932541,0.900391161441803,0.4597216248512268,0.6381577253341675,-0.13249871134757996,0.83616703748703,178.65975987947553,0.5060936212539673,0.6457969546318054,137.78467414443568,119.09851935188333,0.6417273365161007,-0.0030614737158531544,0.015584958478938864,-0.01352349425198065,-1.171559808461662,-172.88986942594659,1.1473829567295857,6,1762115383.035937
0.5071780681610107,0.43996119499206543,-0.331671804189682,0.9999824166297913,0.5400165319442749,0.5059420466423035,-0.15522202849388123,0.9999752044677734,0.47684186697006226,0.4990856647491455,-0.1573859006166458,0.9999478459358215,0.5230789184570312,0.6474972367286682,0.006371787749230862,0.9994445443153381,0.4887448847293854,0.6503563523292542,-0.006501446012407541,0.999459981918335,0.5149955749511719,0.7355293035507202,0.10591062158346176,0.9364550113677979,0.49317479133605957,0.775672972202301,-0.06920535117387772,0.970548689365387,0.5205721259117126,0.7446480393409729,0.3771331012248993,0.7201145887374878,0.4937189519405365,0.8879787921905518,0.011480329558253288,0.9653375744819641,0.5522658228874207,0.6508641242980957,-0.15311750769615173,0.8962807059288025,0.4579002857208252,0.6437922120094299,-0.161265030503273,0.8453434109687805,179.01500280410113,0.5059119015932083,0.6489267945289612,140.18009124723864,117.714292326089,0.6467568308107281,-0.0020516763348093514,0.03533694935328874,0.011400953430063789,0.22300664701341652,-173.80590078444004,0.8222820354115403,7,1762115383.1245084
0.5055401921272278,0.4408460855484009,-0.332638680934906,0.9999836087226868,0.5388878583908081,0.5077890753746033,-0.15439069271087646,0.9999755024909973,0.4749756455421448,0.5011597275733948,-0.1605634242296219,0.9999527931213379,0.5223422050476074,0.6519225239753723,0.011772533878684044,0.9994643926620483,0.48718756437301636,0.6549083590507507,-0.011947041377425194,0.9995125532150269,0.5150644779205322,0.7469618320465088,0.12262358516454697,0.9206038117408752,0.49279117584228516,0.7814626693725586,-0.06119965761899948,0.9721083045005798,0.5197552442550659,0.7394728064537048,0.3999498188495636,0.664630115032196,0.49371346831321716,0.8938598036766052,0.012403138913214207,0.9659472703933716,0.5522445440292358,0.6587366461753845,-0.15285098552703857,0.8828310966491699,0.4564146101474762,0.646571934223175,-0.1627531498670578,0.843859851360321,179.16649171833168,0.5047648847103119,0.6534154415130615,137.6840061108873,125.49826089217133,0.6569353391875904,-0.01471396698107437,0.05758049815881871,-0.16243224424337832,0.28534091132121453,-174.07812461174925,0.7718057214486594,8,1762115383.2024627
0.5032021403312683,0.4409201443195343,-0.32931867241859436,0.9999845623970032,0.5376425981521606,0.5083408355712891,-0.1510036438703537,0.9999746084213257,0.4727531969547272,0.5017567873001099,-0.15907682478427887,0.999957263469696,0.5213858485221863,0.6552004814147949,0.012954747304320335,0.9994724988937378,0.48545217514038086,0.6578723788261414,-0.01313529908657074,0.9995596408843994,0.5151970982551575,0.7539640665054321,0.1136791929602623,0.906302273273468,0.4917762279510498,0.7840229272842407,-0.07192431390285492,0.9731119275093079,0.5200444459915161,0.7482017278671265,0.38890784978866577,0.6135061383247375,0.4938231110572815,0.8924018740653992,0.009522266685962677,0.9652002453804016,0.5519559979438782,0.6645129323005676,-0.14958296716213226,0.856010377407074,0.45239710807800293,0.6496669054031372,-0.16342446208000183,0.8435256481170654,179.3272192104793,0.5034190118312836,0.6565364301204681,134.23809700835358,118.09650420072353,0.6506091537664322,-0.016946608426772338,0.03929804416024977,-0.02811238782443005,-0.2302041996848252,-174.20627224395417,0.5159008631712688,9,1762115383.281881
0.5015057325363159,0.4400859475135803,-0.30534738302230835,0.999984860420227,0.536436140537262,0.5075588822364807,-0.13595722615718842,0.9999719262123108,0.4705316126346588,0.5014908909797668,-0.1364670991897583,0.9999611377716064,0.520159125328064,0.6567535996437073,0.010701179504394531,0.9994792938232422,0.4831351339817047,0.6594973802566528,-0.010851985774934292,0.9996019601821899,0.5154520273208618,0.7556830644607544,0.10019522905349731,0.8952243328094482,0.4902019500732422,0.7857537865638733,-0.06310690939426422,0.9739314913749695,0.5226656198501587,0.7465635538101196,0.3730603754520416,0.5673289895057678,0.49382686614990234,0.8926863074302673,0.025102239102125168,0.9637640714645386,0.5465430021286011,0.6589828729629517,-0.12506158649921417,0.8166446089744568,0.45088666677474976,0.6490669250488281,-0.10947607457637787,0.8366295695304871,179.3148931107307,0.5016471296548843,0.65812548995018,130.1009519689853,118.03191796648035,0.6313030791751876,-0.01856843660912605,0.016652550101314466,-0.01699594600366006,-0.23731342101436537,-174.73946892688525,0.33886729817579375,10,1762115383.3773055
0.5006853342056274,0.43915656208992004,-0.30996090173721313,0.9999839067459106,0.5356321930885315,0.507483184337616,-0.14247779548168182,0.9999648928642273,0.4699113368988037,0.5010702610015869,-0.13878917694091797,0.9999644160270691,0.5192839503288269,0.6566614508628845,0.01010001078248024,0.9994738101959229,0.4822157025337219,0.6587523818016052,-0.010317831300199032,0.9996393322944641,0.5159429311752319,0.7609350681304932,0.08767971396446228,0.8781593441963196,0.48988017439842224,0.7875263690948486,-0.057787567377090454,0.9728049635887146,0.5255122184753418,0.7425476312637329,0.34961941838264465,0.519844114780426,0.49392014741897583,0.8948147892951965,0.03753296285867691,0.958355724811554,0.5453767776489258,0.6609826683998108,-0.13680602610111237,0.7752507328987122,0.4506392478942871,0.6508601307868958,-0.1258505880832672,0.8252077102661133,179.24498667645537,0.5007498264312744,0.6577069163322449,122.53274077763469,118.1857582199538,0.6306109087167872,-0.009177070506333743,-0.004280915863010692,0.09604916889676102,-0.21409473190532394,-174.42682419734717,0.29709791962815585,11,1762115383.4750822
0.49935874342918396,0.43844351172447205,-0.31092801690101624,0.9999831914901733,0.5345327854156494,0.5069528818130493,-0.14358574151992798,0.9999606609344482,0.4680343568325043,0.5007455348968506,-0.14013391733169556,0.9999667406082153,0.5181690454483032,0.6583209037780762,0.0076837847009301186,0.9994687438011169,0.4802682399749756,0.6598079204559326,-0.00784282200038433,0.9996712803840637,0.5159583687782288,0.7735914587974548,0.042599938809871674,0.8672196269035339,0.48915019631385803,0.7890913486480713,-0.05572718381881714,0.970346987247467,0.5268075466156006,0.7449935674667358,0.30697059631347656,0.4767686128616333,0.4937970042228699,0.89579176902771,0.04182486608624458,0.951069176197052,0.5441335439682007,0.6644929647445679,-0.13876985013484955,0.7513510584831238,0.4477423131465912,0.6553490161895752,-0.13375893235206604,0.8100191354751587,179.23780209010098,0.4992186427116394,0.6590644121170044,100.62325613310327,117.2961862187745,0.6176940997213215,-0.019841294360805856,0.01759062163055601,-0.138188515142093,0.28341446422686783,-174.66713479286486,0.2664770049771498,12,1762115383.5522537
0.4984751343727112,0.4375046491622925,-0.3398703932762146,0.9999815225601196,0.5339042544364929,0.506595253944397,-0.16605153679847717,0.999951183795929,0.46697798371315,0.5005756616592407,-0.15910829603672028,0.9999628067016602,0.5176491737365723,0.6623715162277222,0.0033484511077404022,0.9994117021560669,0.4793925881385803,0.6614198684692383,-0.0034109458792954683,0.9996832013130188,0.5167924165725708,0.7909875512123108,-0.006287173833698034,0.8742472529411316,0.4881700575351715,0.7908355593681335,-0.05451517552137375,0.9696600437164307,0.5233600735664368,0.8009631633758545,0.2685946822166443,0.47552910447120667,0.4937223792076111,0.8953531980514526,0.0775335431098938,0.9504533410072327,0.5419125556945801,0.6677863001823425,-0.1796492040157318,0.7410901784896851,0.443765252828598,0.6623191237449646,-0.17860454320907593,0.790960967540741,179.3050598023261,0.4985208809375763,0.6618956923484802,87.78556386174644,106.89333429275152,0.6571449281303383,-0.007429132429132429,0.030144895529510916,0.1321534055746336,0.13366648448486226,-174.86043880002737,0.31681925700508035,13,1762115383.646176
0.49782735109329224,0.43709903955459595,-0.34115734696388245,0.9999806880950928,0.5333263278007507,0.5064096450805664,-0.1644153892993927,0.9999465346336365,0.4662152826786041,0.5006408095359802,-0.16135647892951965,0.9999555945396423,0.5172415971755981,0.6645703315734863,0.00118260330054909,0.9994053244590759,0.47891750931739807,0.6637201905250549,-0.0012228398118168116,0.9996878504753113,0.5186077952384949,0.8026895523071289,-0.028812259435653687,0.88397616147995,0.4872249662876129,0.7958754897117615,-0.013504089787602425,0.9692228436470032,0.5231218934059143,0.8074444532394409,0.2532113194465637,0.4803409278392792,0.49366456270217896,0.8956279158592224,0.1413751244544983,0.9486672878265381,0.5392583608627319,0.6679500341415405,-0.17109175026416779,0.7422089576721191,0.4397697448730469,0.6728540062904358,-0.18775948882102966,0.7771666049957275,179.396725189895,0.4980795532464981,0.6641452610492706,78.72476092169104,117.53832263582018,0.6795577974474231,-0.005585701870588697,0.02847185969528626,0.023331537375328417,-0.021174921895247653,-175.08695746062722,0.30874391039711147,14,1762115383.7251863
0.4973829686641693,0.4369785785675049,-0.34070640802383423,0.9999792575836182,0.5326385498046875,0.5062478184700012,-0.1667139232158661,0.9999402761459351,0.46486225724220276,0.5021292567253113,-0.1591852605342865,0.9999491572380066,0.5170592069625854,0.6680351495742798,-0.002228665165603161,0.9994035959243774,0.47849950194358826,0.6680883765220642,0.0021870688069611788,0.9996947050094604,0.5197311639785767,0.8145667314529419,-0.04618984833359718,0.8919653296470642,0.48697343468666077,0.8027188777923584,0.0030392054468393326,0.9661058783531189,0.5195280909538269,0.7994489669799805,0.2466288059949875,0.45992839336395264,0.4936053156852722,0.8976892828941345,0.17788797616958618,0.9380916953086853,0.5386133193969727,0.6722232699394226,-0.17288708686828613,0.7361173033714294,0.4360034465789795,0.6802952885627747,-0.18030354380607605,0.7579522132873535,179.66049144330552,0.49777935445308685,0.668061763048172,70.34752206394072,118.92742755526919,0.6893918971771282,-0.0051459229046443575,0.06713557077700218,0.0075385667880867,0.6627624121106627,-176.52258361850204,0.3019990876123649,15,1762115383.7835236
0.49750638008117676,0.43675845861434937,-0.3402218818664551,0.9999768733978271,0.532306969165802,0.5061760544776917,-0.16404499113559723,0.9999319911003113,0.46447721123695374,0.5031331181526184,-0.16054508090019226,0.9999432563781738,0.5170817971229553,0.6691567301750183,-0.001421743188984692,0.9993944764137268,0.4783116281032562,0.6698146462440491,0.0013648935128003359,0.9997026920318604,0.5207763910293579,0.8149685263633728,-0.03453837335109711,0.8975741863250732,0.48707646131515503,0.8016901016235352,-0.00646151602268219,0.9630314707756042,0.5211018323898315,0.7997460961341858,0.25764206051826477,0.4358052909374237,0.4934529662132263,0.8962490558624268,0.15841078758239746,0.9291365742683411,0.5384902358055115,0.6712921857833862,-0.16570022702217102,0.7266390919685364,0.435028612613678,0.6840505003929138,-0.1762983500957489,0.7436063885688782,179.75828612346493,0.4976967126131058,0.6694856882095337,74.2286843869341,116.50158534663335,0.6854117663302596,-0.0011282410993861197,0.019439679584410174,0.05485010665282837,-0.6511527904951189,-177.43135469527746,0.20745321082661095,16,1762115383.856772
0.49750226736068726,0.4369906187057495,-0.34568077325820923,0.9999743103981018,0.532497763633728,0.5067358613014221,-0.16298913955688477,0.9999236464500427,0.46411675214767456,0.5040122866630554,-0.15890516340732574,0.9999337196350098,0.5171684622764587,0.6740880608558655,-0.0019203064730390906,0.9993811845779419,0.47792282700538635,0.6738622188568115,0.001874722889624536,0.999692976474762,0.5219323039054871,0.8272167444229126,-0.053389500826597214,0.9035851359367371,0.48688608407974243,0.8056470155715942,-0.005167809315025806,0.9590598940849304,0.5223655104637146,0.8254052996635437,0.23942288756370544,0.4218122065067291,0.4932338297367096,0.8957487344741821,0.1849556267261505,0.915345311164856,0.5391587615013123,0.6715291142463684,-0.16401386260986328,0.718174934387207,0.43556588888168335,0.6841517686843872,-0.17160557210445404,0.7333868145942688,179.74118237155218,0.49754564464092255,0.6739751398563385,71.07878357645419,112.35891026440018,0.7005358264952702,-0.002030354785372794,0.06033826696061216,-0.01212441533981675,0.549677349832584,-177.71914908643186,0.22456689229584545,17,1762115383.9311767
0.4977266192436218,0.43817952275276184,-0.3737538754940033,0.9999712705612183,0.5326510071754456,0.5087558627128601,-0.17857959866523743,0.9999181628227234,0.4628036916255951,0.5062382221221924,-0.18418186902999878,0.9999180436134338,0.5172157287597656,0.681216835975647,-0.0015008533373475075,0.9993933439254761,0.4775269627571106,0.6789084672927856,0.001444657682441175,0.9996282458305359,0.5218244791030884,0.8397876024246216,-0.03502235561609268,0.9093788266181946,0.48654064536094666,0.8137228488922119,-0.00804409570991993,0.9539973139762878,0.5220847725868225,0.8941763043403625,0.2114013433456421,0.4580792486667633,0.4931553900241852,0.8946187496185303,0.2390984743833542,0.8859116435050964,0.5396339893341064,0.6747710108757019,-0.1738477647304535,0.7066388130187988,0.4335876405239105,0.6963686347007751,-0.19904765486717224,0.7347750663757324,179.88179871216474,0.4973713457584381,0.6800626516342163,90.51133297244151,104.16152370627478,0.7530194430743173,-0.002993679412945021,0.10455637136468988,-0.016545631643986133,0.7594703244627022,-177.93567217261756,0.10353400242193825,18,1762115383.989399
0.49792051315307617,0.44052112102508545,-0.36468204855918884,0.9999710917472839,0.5327440500259399,0.5115227699279785,-0.17761050164699554,0.9999233484268188,0.46148791909217834,0.5095227360725403,-0.184086412191391,0.9999157190322876,0.517124354839325,0.6879076361656189,-0.0023063381668180227,0.9994350075721741,0.47685179114341736,0.6860628128051758,0.0022478257305920124,0.999591052532196,0.5190455317497253,0.837063193321228,-0.044154535979032516,0.9178404211997986,0.4864749312400818,0.8204111456871033,0.0258864164352417,0.955072283744812,0.5226377844810486,0.928291380405426,0.13961352407932281,0.5102251768112183,0.4927503168582916,0.8939261436462402,0.29508161544799805,0.8753579258918762,0.540925145149231,0.6811467409133911,-0.18475690484046936,0.7077617049217224,0.4353399872779846,0.7032649517059326,-0.20274922251701355,0.7394729256629944,179.9584682701418,0.49698807299137115,0.6869852244853973,100.73866069283955,115.27931224946991,0.7485363895651823,-0.005341537771427622,0.09647746340815072,-0.03272127628521542,-0.11259289913024884,-178.3922306996488,0.02592021372171952,19,1762115384.0611522
0.4979867935180664,0.4426502287387848,-0.35894179344177246,0.9999716281890869,0.5328295230865479,0.5159992575645447,-0.1783045381307602,0.9999274611473083,0.4605969488620758,0.5141388177871704,-0.18101975321769714,0.9999186992645264,0.5171730518341064,0.6961913108825684,-0.006659583188593388,0.9994775652885437,0.4769119620323181,0.6950654983520508,0.006624126341193914,0.9995791912078857,0.5183120369911194,0.8454312682151794,-0.05565572902560234,0.9258329272270203,0.4861893057823181,0.8261373043060303,0.06102229282259941,0.9567124247550964,0.5231121182441711,0.959950864315033,0.09330186992883682,0.5584011673927307,0.4923781454563141,0.8935679793357849,0.3425629734992981,0.8685694932937622,0.5423798561096191,0.6868002414703369,-0.19185829162597656,0.7076617479324341,0.43596920371055603,0.7112866044044495,-0.19710673391819,0.752331018447876,-179.89551461290776,0.4970425069332123,0.6956284046173096,109.38154524079808,126.00822424215293,0.7531538993523527,0.0007912763354439812,0.12564116560441121,0.08914935256035791,0.4239367317764591,-178.52460213989755,0.05991690070122215,20,1762115384.1299448
0.4980944097042084,0.44402945041656494,-0.3561905324459076,0.9999722838401794,0.5328949689865112,0.5181499123573303,-0.17435242235660553,0.9999324083328247,0.4602317214012146,0.5154959559440613,-0.1805887669324875,0.999918520450592,0.5171008706092834,0.7008031606674194,-0.010807940736413002,0.9995155334472656,0.4767944812774658,0.7006545066833496,0.01078337337821722,0.9995578527450562,0.5176816582679749,0.846401035785675,-0.048978544771671295,0.932991623878479,0.48602619767189026,0.8336724042892456,0.08653733879327774,0.9568089842796326,0.5235729217529297,0.9616626501083374,0.08555115759372711,0.6014214754104614,0.49218377470970154,0.8955286741256714,0.3596334457397461,0.8597057461738586,0.5457127690315247,0.6888375878334045,-0.18248915672302246,0.7260134816169739,0.4367137849330902,0.7118068933486938,-0.19006754457950592,0.7669427394866943,-179.88026214556507,0.49694767594337463,0.7007288336753845,115.89035128240644,132.41767250752946,0.754910397357383,-0.0012428366986007736,0.06684524144309667,-0.026658693873607336,-0.7705680643103491,-177.90825563068836,0.06378488683600977,21,1762115384.2062469
0.4981164038181305,0.44852033257484436,-0.3524933457374573,0.9999728202819824,0.5330138206481934,0.5225876569747925,-0.17498233914375305,0.9999375343322754,0.459712415933609,0.5185530185699463,-0.17553430795669556,0.9999211430549622,0.5171362161636353,0.7092611789703369,-0.014644722454249859,0.9995548725128174,0.4767635762691498,0.7098652124404907,0.014629204757511616,0.9995473623275757,0.517019510269165,0.8587799072265625,-0.05579892545938492,0.939481794834137,0.4860824942588806,0.8448959589004517,0.1091480404138565,0.9564034938812256,0.5236278772354126,0.9879284501075745,0.06411547213792801,0.6406028270721436,0.4924928545951843,0.8956940770149231,0.40213441848754883,0.8503869771957397,0.5497387647628784,0.6999412775039673,-0.18047215044498444,0.7458116412162781,0.43565481901168823,0.7237932682037354,-0.1971391886472702,0.7843717336654663,-179.82211078776461,0.4969498962163925,0.7095631957054138,121.7059426024855,134.82055081693096,0.7657568855636724,3.960608689734953e-05,0.15759075907590758,0.022876709302958046,1.6187535622697822,-176.84951838867968,0.09012982329740678,22,1762115384.2623057
0.4986335337162018,0.4555179178714752,-0.28969207406044006,0.9999727010726929,0.5339661240577698,0.530487596988678,-0.1461305469274521,0.9999405741691589,0.45938974618911743,0.5251421332359314,-0.1502007097005844,0.9999252557754517,0.5173810720443726,0.720104992389679,-0.013852600939571857,0.9995889067649841,0.4769107699394226,0.7203778028488159,0.013860339298844337,0.9995534420013428,0.5165162682533264,0.8705801367759705,-0.04863797500729561,0.9454429149627686,0.4873585104942322,0.8587261438369751,0.10118699073791504,0.9565248489379883,0.523771345615387,1.004928469657898,0.02915370836853981,0.6756928563117981,0.49276646971702576,0.8953465819358826,0.3572433292865753,0.8403953909873962,0.5514585375785828,0.7121835350990295,-0.12378565967082977,0.7662219405174255,0.4360247552394867,0.7313762903213501,-0.16449026763439178,0.8018124103546143,-179.86065558673297,0.4971459209918976,0.7202413976192474,136.81932363872107,130.38887454717866,0.691320997565653,0.002537889895513404,0.13824834472859723,0.03234473406575881,-0.2504220081384754,-175.90018152102274,0.07390201604528088,23,1762115384.339545
0.49940577149391174,0.461675763130188,-0.2976168692111969,0.9999719858169556,0.5356860160827637,0.5379098057746887,-0.14799414575099945,0.9999406933784485,0.45904192328453064,0.5341301560401917,-0.15333274006843567,0.9999275803565979,0.5182257890701294,0.7318322062492371,-0.012350537814199924,0.9996064305305481,0.47701016068458557,0.7305256128311157,0.012362873181700706,0.9995233416557312,0.5164594650268555,0.8847266435623169,-0.04617743939161301,0.9508417844772339,0.48900341987609863,0.8686286807060242,0.09439849108457565,0.9550146460533142,0.523338794708252,1.013623595237732,0.06176338344812393,0.7067223191261292,0.49364224076271057,0.8973920345306396,0.3431624472141266,0.8209829330444336,0.5528354644775391,0.7236048579216003,-0.1362183839082718,0.783867359161377,0.4359428286552429,0.7426565289497375,-0.16372153162956238,0.815535843372345,-179.92542786815736,0.4976179748773575,0.7311789095401764,127.50653554624354,127.27619618399376,0.7028743976428024,0.008400849870376734,0.19464810783976783,0.10433945797706735,1.0037115617852592,-177.1767858877696,0.044097547546939564,24,1762115384.3957362
0.49985021352767944,0.4658612608909607,-0.291157603263855,0.9999702572822571,0.5379284620285034,0.5436366200447083,-0.1448832005262375,0.9999393820762634,0.45902079343795776,0.5384620428085327,-0.15299944579601288,0.9999292492866516,0.5195380449295044,0.7403331995010376,-0.011306785978376865,0.99961918592453,0.47689610719680786,0.7387166619300842,0.011306502856314182,0.9994795918464661,0.5164521932601929,0.8926732540130615,-0.022741854190826416,0.9556161165237427,0.48896723985671997,0.8660997152328491,0.09742816537618637,0.9456842541694641,0.5235193967819214,1.0353327989578247,0.06878460943698883,0.73285311460495,0.49340397119522095,0.8973511457443237,0.3319922983646393,0.7799643874168396,0.5536035299301147,0.7317008972167969,-0.11536885797977448,0.8011967539787292,0.4361747205257416,0.7530665993690491,-0.14773394167423248,0.8297045826911926,179.9256502286839,0.49821707606315613,0.7395249307155609,142.85981687105524,131.59682427350506,0.7015501594905758,0.007476138835087218,0.1041493732725201,-0.01153939976424145,-1.1293269318479473,-176.24805121911106,0.044768490905453616,25,1762115384.4758713
0.5000119209289551,0.46697700023651123,-0.3061456084251404,0.9999685287475586,0.5389508008956909,0.547214150428772,-0.14803113043308258,0.9999366998672485,0.45897191762924194,0.5399100184440613,-0.15776905417442322,0.9999316930770874,0.5202410221099854,0.7452155947685242,-0.010698669590055943,0.9996095895767212,0.47686514258384705,0.743806004524231,0.010686652734875679,0.999404788017273,0.5164846181869507,0.8993853330612183,-0.02301878109574318,0.9598557949066162,0.48937350511550903,0.8754525780677795,0.08893288671970367,0.9364224672317505,0.5235519409179688,1.0402554273605347,0.07364070415496826,0.7536529898643494,0.49381107091903687,0.9091164469718933,0.3384687006473541,0.7399270534515381,0.5532650351524353,0.7372554540634155,-0.13255664706230164,0.8164073824882507,0.4362807869911194,0.7563763856887817,-0.151497021317482,0.8424612283706665,179.88358964165965,0.4985530823469162,0.7445107996463776,140.79979304386413,128.35489628018175,0.7212438455562306,0.006010040811452794,0.08918070048999331,-0.02622364337068467,-0.2677400354229901,-174.78189450896292,0.07096217440961662,26,1762115384.5317788
0.500905454158783,0.46681591868400574,-0.3099405765533447,0.9999677538871765,0.5401610732078552,0.548369288444519,-0.1508653163909912,0.9999368786811829,0.459042489528656,0.5409860610961914,-0.1574806123971939,0.999933660030365,0.5212460160255432,0.7476199865341187,-0.010612362995743752,0.9996054768562317,0.47688785195350647,0.7464448809623718,0.010634193196892738,0.9993374347686768,0.516749918460846,0.9063423871994019,-0.02526121214032173,0.9636997580528259,0.4891315996646881,0.8787040114402771,0.09151138365268707,0.9299429655075073,0.5239946842193604,1.0465511083602905,0.07313575595617294,0.7729772329330444,0.4925020635128021,0.9102596044540405,0.3517681360244751,0.7038235068321228,0.5550752878189087,0.7424975037574768,-0.15120233595371246,0.8312590718269348,0.43663114309310913,0.7605343461036682,-0.1585840880870819,0.8538116216659546,179.8485608824894,0.49906693398952484,0.7470324337482452,139.47159011903668,128.2876470035778,0.7312124307403862,0.006375347571437023,0.031285866414245994,0.0045323540336889585,-0.7183001069136936,-174.79939901266934,0.1007508358671766,27,1762115384.6123786
0.5018160939216614,0.46487706899642944,-0.31137901544570923,0.9999668002128601,0.5424879789352417,0.5479282736778259,-0.14774169027805328,0.9999373555183411,0.45918554067611694,0.5397404432296753,-0.1532943695783615,0.9999327063560486,0.5232259035110474,0.7500401735305786,-0.01055993977934122,0.9995636940002441,0.4769265055656433,0.7489136457443237,0.010520615614950657,0.9991345405578613,0.5168768167495728,0.9167366027832031,-0.02878311648964882,0.9656265377998352,0.48807182908058167,0.8892127871513367,0.08882713317871094,0.9053882956504822,0.5231362581253052,1.0575695037841797,0.09261644631624222,0.7640015482902527,0.4926374554634094,0.9623119831085205,0.3449400067329407,0.6412084102630615,0.5581539869308472,0.7479451298713684,-0.14493176341056824,0.8442692160606384,0.4367653727531433,0.7624543905258179,-0.1602732241153717,0.8623988032341003,179.7880963449964,0.5000762045383453,0.7494769096374512,132.82983138828337,135.04602404428948,0.7603932959858744,0.01253134176810496,0.030351190617155306,0.0764342794814247,-0.011605155693295188,-174.3864059023385,0.14049145794486567,28,1762115384.6929183
0.5032116174697876,0.4638438820838928,-0.30855149030685425,0.9999591708183289,0.5445003509521484,0.5460485816001892,-0.13399353623390198,0.9999324679374695,0.4592573642730713,0.538680911064148,-0.14033769071102142,0.9999209642410278,0.5245802402496338,0.7554996013641357,-0.009702997282147408,0.9994736909866333,0.47681599855422974,0.7521878480911255,0.009718148037791252,0.9987585544586182,0.5169078707695007,0.9219541549682617,-0.028703028336167336,0.9619333744049072,0.48507142066955566,0.8995608687400818,0.05527173727750778,0.8731328248977661,0.5227432250976562,1.05995774269104,0.1154617890715599,0.7371954321861267,0.4886326789855957,0.9798808693885803,0.3297785818576813,0.5815417766571045,0.5608193874359131,0.7505422234535217,-0.12060824781656265,0.851204514503479,0.43683990836143494,0.7622196674346924,-0.1443447470664978,0.8661925196647644,179.68010714940735,0.5006981194019318,0.7538437247276306,127.07573320766713,123.47368269577021,0.7690054346378455,0.008732257632565613,0.061314106855918586,-0.053342641222647376,0.4347478690141597,-175.06012218166515,0.2512579793161934,29,1762115384.7641387
0.505810022354126,0.46281030774116516,-0.3252750337123871,0.9999516606330872,0.5467337369918823,0.5468009114265442,-0.1387849748134613,0.999922513961792,0.45932236313819885,0.5383855104446411,-0.14196932315826416,0.9999071359634399,0.5254713296890259,0.7577046155929565,-0.009239071980118752,0.9993347525596619,0.4762331545352936,0.7559328675270081,0.009286145679652691,0.9982750415802002,0.5170039534568787,0.9274687170982361,-0.028648754581809044,0.9557758569717407,0.48079028725624084,0.9196249842643738,0.04515593498945236,0.8490029573440552,0.5225380659103394,1.0717132091522217,0.10977160930633545,0.7163274884223938,0.4816009998321533,0.9939450621604919,0.3229580521583557,0.5275765657424927,0.5631464719772339,0.7617536187171936,-0.12802526354789734,0.851589024066925,0.43514537811279297,0.7664788961410522,-0.15003642439842224,0.8680798411369324,179.41808837649933,0.5008522421121597,0.7568187415599823,129.4784319912203,117.33063369760197,0.7863263941869743,0.002396440765304042,0.0462582808462682,-0.09851507152806006,-0.2341017436786815,-174.50088131208875,0.6856366585847881,30,1762115384.8284519
0.5072046518325806,0.4627396762371063,-0.32468536496162415,0.9999497532844543,0.5470563173294067,0.5466246008872986,-0.13905219733715057,0.9999209046363831,0.45940250158309937,0.5383116602897644,-0.14618846774101257,0.9999009966850281,0.5258537530899048,0.7606335282325745,-0.007677928544580936,0.9992808103561401,0.475912481546402,0.7580496668815613,0.00776311382651329,0.9980010986328125,0.5171909928321838,0.9303639531135559,-0.02959451638162136,0.950413703918457,0.4792605936527252,0.9220655560493469,0.03710412606596947,0.825656533241272,0.5221100449562073,1.0730791091918945,0.10725066810846329,0.6942756175994873,0.47842827439308167,0.9893664717674255,0.32140833139419556,0.47838911414146423,0.5643720626831055,0.7624711990356445,-0.12234506756067276,0.8569324612617493,0.43434563279151917,0.768566906452179,-0.15198618173599243,0.873863160610199,179.3801574973904,0.5008831173181534,0.7593415975570679,128.67830898434158,113.4512134643076,0.7834271993056591,0.0004923224312744498,0.040228350168606174,-0.03036223200701666,-0.09615061782108565,-174.5823683857541,1.14768668725709,31,1762115384.8911653
0.5091452598571777,0.46177732944488525,-0.34362539649009705,0.9999516010284424,0.5485669374465942,0.5481719374656677,-0.1584022492170334,0.9999260306358337,0.45947250723838806,0.5394379496574402,-0.1558818519115448,0.999889612197876,0.5265291929244995,0.7618749141693115,-0.007674028165638447,0.9992902278900146,0.47546061873435974,0.7593695521354675,0.007758871652185917,0.9978747367858887,0.5174152851104736,0.9396291971206665,-0.02511029876768589,0.9494352340698242,0.47649288177490234,0.9383547306060791,0.014948325231671333,0.813488245010376,0.5218517780303955,1.0719234943389893,0.13063578307628632,0.6863454580307007,0.47418951988220215,0.9817392826080322,0.3225175142288208,0.4329563081264496,0.5674886703491211,0.7679266333580017,-0.15558013319969177,0.8661203384399414,0.43017110228538513,0.7677100300788879,-0.1541355550289154,0.8738669753074646,179.2007188268831,0.5009949058294296,0.7606222331523895,124.60392696370224,100.32603244732998,0.8028326219563344,0.0015595272940143422,0.017865755092266143,0.014888248289083,-0.3119737170518516,-174.40114491979887,2.8333778812605606,32,1762115384.9628463
0.509477972984314,0.46118372678756714,-0.3374793231487274,0.9999526739120483,0.550298273563385,0.5528033375740051,-0.1549864262342453,0.9999291300773621,0.4595062732696533,0.5410658121109009,-0.15023499727249146,0.9998766779899597,0.5271174907684326,0.7732893824577332,-0.006288403179496527,0.999312698841095,0.4747779369354248,0.7710235714912415,0.006368213798850775,0.9979059100151062,0.5177948474884033,0.9568663835525513,-0.021371450275182724,0.940744161605835,0.47452306747436523,0.967647135257721,-0.03867333009839058,0.8090919256210327,0.5195052623748779,1.095516562461853,0.1678207814693451,0.6511271595954895,0.46871131658554077,0.9838491678237915,0.28533998131752014,0.3912454843521118,0.5720741152763367,0.7817310690879822,-0.15452441573143005,0.8755491971969604,0.4250721037387848,0.7749226093292236,-0.15167495608329773,0.8736593127250671,178.99407522030805,0.5009477138519287,0.7721564769744873,121.46752027535302,79.96333470824293,0.8081217918958613,-0.0006511851693451548,0.1591568930633461,-0.03050482827930384,1.949625730451376,-172.6336989038987,1.9274851303065603,33,1762115385.0353172
0.5093538761138916,0.4607261121273041,-0.35112687945365906,0.9999510049819946,0.5521365404129028,0.5573254823684692,-0.154597207903862,0.9999226927757263,0.4594566226005554,0.5446156859397888,-0.1670616716146469,0.9998714327812195,0.528324544429779,0.7818295955657959,0.0009944241028279066,0.9990687966346741,0.47457876801490784,0.7817530035972595,-0.0008908882737159729,0.997592568397522,0.5187955498695374,0.9616093039512634,-0.04272058233618736,0.9234363436698914,0.47312673926353455,0.9832584857940674,-0.023776184767484665,0.7923970818519592,0.5201106071472168,1.1145190000534058,0.15915149450302124,0.6003006100654602,0.46738776564598083,1.087293028831482,0.24633948504924774,0.3558405637741089,0.5764336585998535,0.795488715171814,-0.14882470667362213,0.8836281895637512,0.4201732277870178,0.7814791202545166,-0.1724838763475418,0.8803927302360535,178.92160249394172,0.5014516562223434,0.7817912995815277,113.42520172046319,104.58952433530793,0.8466690115184443,0.007935275147729064,0.15171371346192833,0.13520578772720865,-0.1172032390580816,-172.19136694675052,1.9634014521427274,34,1762115385.0988238
0.508956253528595,0.4632304608821869,-0.31201744079589844,0.9999521970748901,0.5542184710502625,0.5641418099403381,-0.13716475665569305,0.9999116659164429,0.4588375687599182,0.5503638982772827,-0.1645570546388626,0.9998759031295776,0.5298485159873962,0.7966009974479675,0.004295945633202791,0.9988622665405273,0.4741252362728119,0.7938206791877747,-0.004265517462044954,0.9975196123123169,0.5185787677764893,0.974936842918396,-0.03868110477924347,0.9116759300231934,0.4730391502380371,0.9957765936851501,-0.007968511432409286,0.7891678214073181,0.520182728767395,1.1326820850372314,0.15489211678504944,0.5598263144493103,0.4671211838722229,1.1251473426818848,0.1855187714099884,0.33361953496932983,0.5806456804275513,0.8152656555175781,-0.08496865630149841,0.8919496536254883,0.41578465700149536,0.7947304844856262,-0.16575975716114044,0.8895129561424255,178.9067112242833,0.5019868761301041,0.7952108383178711,115.54980950038633,122.71340438116103,0.8221366412525509,0.008410890180254102,0.21088577787269436,0.007474209663432882,0.9298789680305941,-171.7803963747101,2.104327210242455,35,1762115385.162458
0.5086876153945923,0.463640034198761,-0.27767327427864075,0.9999520182609558,0.5545918941497803,0.5645438432693481,-0.1213989108800888,0.9999021291732788,0.4586389660835266,0.5518423318862915,-0.14560334384441376,0.9998764991760254,0.529798150062561,0.7972581386566162,0.006557477172464132,0.9987045526504517,0.47350844740867615,0.7944377660751343,-0.006528427358716726,0.9974988102912903,0.5184959769248962,0.9748023152351379,-0.038152482360601425,0.8929377198219299,0.47280874848365784,0.9929208755493164,-0.00428838049992919,0.7820850610733032,0.5200921297073364,1.1319115161895752,0.15045537054538727,0.5136294960975647,0.467364639043808,1.1298549175262451,0.17333753407001495,0.3095168173313141,0.5818580985069275,0.8170284032821655,-0.0827961415052414,0.9012482166290283,0.4147659242153168,0.7961777448654175,-0.140258327126503,0.8983981609344482,178.80386256302305,0.5016532987356186,0.7958479523658752,115.58058438350233,128.26731718424628,0.7991613028225169,-0.005004829103396469,0.00955894188978913,-0.20128277102642675,-3.020607585163719,-172.45946383885433,2.5777596074930766,36,1762115385.229109
0.5078741312026978,0.46858227252960205,-0.3223482370376587,0.9999526739120483,0.5557626485824585,0.5722034573554993,-0.1499209702014923,0.9998899102210999,0.4575859606266022,0.558152437210083,-0.17290246486663818,0.9998791217803955,0.5304672718048096,0.8102922439575195,0.006841906346380711,0.9984880685806274,0.47291889786720276,0.8066847324371338,-0.006792007479816675,0.9974463582038879,0.5185242891311646,0.9825398921966553,-0.022237343713641167,0.8733755946159363,0.4724961221218109,1.0034770965576172,0.003684399649500847,0.7758423089981079,0.5197000503540039,1.1579197645187378,0.1674700677394867,0.4718654751777649,0.4657064974308014,1.1570097208023071,0.18135221302509308,0.2884335517883301,0.5861340761184692,0.8339634537696838,-0.10326238721609116,0.9096279144287109,0.4114711284637451,0.8075934648513794,-0.1615953892469406,0.9069510698318481,178.82716546185767,0.5016930848360062,0.8084884881973267,123.06056306415267,133.86002745748934,0.8494463441676953,0.0005856064514091402,0.18605440744522936,0.08228489586035768,2.597813866322217,-171.85515448604633,1.7739817916717322,37,1762115385.297049
0.5069195032119751,0.47684386372566223,-0.34836873412132263,0.9999539256095886,0.5571187734603882,0.5825072526931763,-0.18332767486572266,0.9998802542686462,0.45545220375061035,0.5689770579338074,-0.19392850995063782,0.9998805522918701,0.5312342643737793,0.8228815793991089,0.005527521949261427,0.998214840888977,0.4719691872596741,0.820025622844696,-0.005477566737681627,0.997327446937561,0.5184200406074524,0.9869520664215088,-0.021112196147441864,0.8535689115524292,0.4714246392250061,1.0007200241088867,0.013683749362826347,0.7682909369468689,0.5188396573066711,1.1660288572311401,0.18617478013038635,0.435423344373703,0.46506938338279724,1.1668964624404907,0.19698944687843323,0.27475354075431824,0.5903762578964233,0.8522816896438599,-0.10558682680130005,0.9170409440994263,0.4079030454158783,0.8210774660110474,-0.1807207316160202,0.9141289591789246,178.90795749317502,0.5016017258167267,0.8214536011219025,121.48854290022278,138.23091169577071,0.8759822786520175,-0.0014439472444653793,0.20491615638247762,-0.03207749480855876,0.29811364678095575,-172.41939275299413,1.5776515466764809,38,1762115385.3603194
0.5058982372283936,0.4872351884841919,-0.341006338596344,0.9999538064002991,0.5586057901382446,0.5938871502876282,-0.20277532935142517,0.999876081943512,0.45315632224082947,0.580191433429718,-0.1898139864206314,0.9998776316642761,0.5313766002655029,0.833659291267395,0.00345488335005939,0.9975756406784058,0.4707961678504944,0.8332176804542542,-0.0034093435388058424,0.9967377185821533,0.5191465020179749,1.0222313404083252,-0.05812675878405571,0.8328356146812439,0.46945229172706604,1.0005578994750977,0.013413622975349426,0.7577775716781616,0.5187712907791138,1.1632707118988037,0.17313255369663239,0.4041430950164795,0.46415671706199646,1.1662286520004272,0.19236759841442108,0.26609253883361816,0.5932716727256775,0.873228132724762,-0.13074682652950287,0.923753559589386,0.4062231183052063,0.8348832726478577,-0.1779712289571762,0.9184480309486389,178.88522439115792,0.5010863840579987,0.8334384858608246,103.2716977700648,138.52950540643334,0.856478264660509,-0.006499715834769194,0.15115861231142103,-0.06376556645522864,-0.6780136763986762,-172.59988128147447,1.6904118056759978,39,1762115385.4396062
0.504014790058136,0.5003717541694641,-0.3391045928001404,0.999955952167511,0.5587172508239746,0.6069176197052002,-0.18915817141532898,0.9998837113380432,0.45027250051498413,0.5958369970321655,-0.17986445128917694,0.999872624874115,0.5329526662826538,0.8518431186676025,0.0004196114023216069,0.9973519444465637,0.46977996826171875,0.8534170985221863,-0.0002543260343372822,0.9961249232292175,0.5241231918334961,1.019633173942566,-0.19112291932106018,0.8135910034179688,0.46663016080856323,1.0048564672470093,-0.028671439737081528,0.7450697422027588,0.5223334431648254,1.1585023403167725,0.007753337267786264,0.3760899007320404,0.4631323218345642,1.1621195077896118,0.1540793627500534,0.2505985498428345,0.5951161980628967,0.8961948156356812,-0.14502397179603577,0.9297398924827576,0.40499553084373474,0.8575519919395447,-0.13688842952251434,0.9212585091590881,179.28659927956647,0.5013663172721863,0.8526301085948944,76.16775604458606,120.09360401772675,0.7823455641742932,0.003474400478197055,0.2381974693433076,0.12379407919824936,1.0802856937534622,-174.16590257299498,1.1829120183417903,40,1762115385.5201764
0.5034827589988708,0.5006260275840759,-0.3271125853061676,0.9999380111694336,0.5583009123802185,0.6088826656341553,-0.18093141913414001,0.9998701810836792,0.448834091424942,0.6001458764076233,-0.16055485606193542,0.9998429417610168,0.5330337285995483,0.8602813482284546,4.08652049372904e-05,0.9965032935142517,0.4683900475502014,0.863047182559967,0.00015047196939121932,0.9950671195983887,0.5237390398979187,1.0544068813323975,-0.1063789576292038,0.7872283458709717,0.4620142877101898,1.0462416410446167,-0.02021212689578533,0.7227537035942078,0.5205316543579102,1.2005488872528076,0.020949114114046097,0.3454398214817047,0.45744600892066956,1.2036960124969482,0.18728964030742645,0.23537248373031616,0.5950427055358887,0.8985776901245117,-0.1407167613506317,0.9343408346176147,0.4039033353328705,0.8629885315895081,-0.11374948918819427,0.9211497902870178,179.36376473346195,0.5007118880748749,0.8616642653942108,110.22441902554927,120.86305575240704,0.8235704644493271,-0.008258044815095612,0.11399930202053023,-0.14804819134095878,-1.567219243759084,-175.43676988191166,0.7343114093684173,41,1762115385.599424
0.5026581883430481,0.5123717188835144,-0.3691874146461487,0.9999370574951172,0.5580118894577026,0.6250343918800354,-0.17858365178108215,0.9998764991760254,0.4447151720523834,0.6142153143882751,-0.15753062069416046,0.9998358488082886,0.5338627099990845,0.894253134727478,-0.007385089062154293,0.9962558150291443,0.4666076600551605,0.8968126773834229,0.007609951309859753,0.9941315650939941,0.5267396569252014,1.0424131155014038,-0.22636111080646515,0.7458274364471436,0.46234947443008423,1.026897668838501,-0.05780608579516411,0.6762564778327942,0.5275232791900635,1.173869013786316,0.05554352328181267,0.31564369797706604,0.463411420583725,1.1720223426818848,0.2369353324174881,0.21391473710536957,0.5948221683502197,0.9270655512809753,-0.19530479609966278,0.934502124786377,0.4024931788444519,0.8835565447807312,-0.16525226831436157,0.9199007749557495,179.7656861155424,0.5002351850271225,0.8955329060554504,59.091135647904544,89.5129800902433,0.8378988566020372,-0.007514252910713078,0.5338701585201777,0.011724364903524723,6.618409134264477,-174.54517756381176,1.2214386396958403,42,1762115385.6628637
0.5004404187202454,0.5253305435180664,-0.4243146777153015,0.9999251961708069,0.5576795339584351,0.6439172029495239,-0.1887553632259369,0.9998601078987122,0.44094666838645935,0.6284433603286743,-0.1704862117767334,0.9998308420181274,0.5341030955314636,0.9299768209457397,-0.009876941330730915,0.9944676756858826,0.4650968015193939,0.9323318600654602,0.01020862441509962,0.9923242926597595,0.5302469730377197,1.1465650796890259,-0.0395757220685482,0.6962550282478333,0.4634782373905182,1.1418401002883911,0.05813261866569519,0.6227720975875854,0.5291778445243835,1.3110467195510864,0.27936458587646484,0.2856849431991577,0.46388688683509827,1.3184069395065308,0.32908862829208374,0.19483141601085663,0.59373939037323,0.9583009481430054,-0.19706007838249207,0.9292190670967102,0.4003641605377197,0.9083115458488464,-0.1955307275056839,0.9195583462715149,-179.94428276990584,0.49959994852542877,0.9311543405056,109.47267856224776,135.97112760948966,1.0742132809193607,-0.009433987316896994,0.529018971542686,-0.028510247744676694,-0.07204566534751633,-172.44902414313592,0.8659816332617516,43,1762115385.7301986
0.4979046881198883,0.5306774377822876,-0.42956748604774475,0.9999236464500427,0.5575488805770874,0.6469771265983582,-0.19724680483341217,0.9998664855957031,0.4378291070461273,0.6348728537559509,-0.1629139631986618,0.999841570854187,0.5338889956474304,0.9491806030273438,-0.016291949898004532,0.9883245229721069,0.4617672562599182,0.9486193060874939,0.016769930720329285,0.9862381815910339,0.5337870121002197,1.1792597770690918,-0.028824184089899063,0.6363794803619385,0.46245747804641724,1.1719696521759033,0.035393137484788895,0.5679088234901428,0.530565083026886,1.3634034395217896,0.24966254830360413,0.257976233959198,0.46090835332870483,1.3687306642532349,0.2766186594963074,0.17697657644748688,0.5945715308189392,0.98149174451828,-0.21881119906902313,0.9232492446899414,0.3992385268211365,0.9290192723274231,-0.181496724486351,0.9163670539855957,-179.9741158051312,0.4978281259536743,0.9488999545574188,120.35436240459188,133.9665808700653,1.0852303927404252,-0.021438477582317407,0.214716165771421,-0.14525043282834332,-3.802961855776901,-174.2267263235518,0.058299004435255285,44,1762115385.8128455
0.49484628438949585,0.5327954292297363,-0.5101942420005798,0.9999183416366577,0.5574616193771362,0.6506629586219788,-0.2473572939634323,0.9998592734336853,0.43373075127601624,0.6395005583763123,-0.20352676510810852,0.9998441934585571,0.5321595668792725,0.9623869061470032,-0.025408517569303513,0.9784718751907349,0.4567839503288269,0.9577078819274902,0.02578248642385006,0.97652667760849,0.5317975878715515,1.2074774503707886,-0.0033897117245942354,0.603448212146759,0.4517787992954254,1.1986676454544067,0.07202289998531342,0.5313469171524048,0.5228903889656067,1.4046738147735596,0.2883499264717102,0.23858250677585602,0.446211040019989,1.4071377515792847,0.3043951988220215,0.16714365780353546,0.5942196249961853,0.9977662563323975,-0.28439563512802124,0.9085907340049744,0.3951070010662079,0.9547483921051025,-0.26634952425956726,0.8957637548446655,179.79545504458451,0.4944717586040497,0.9600473940372467,129.17691288820276,142.76534151061608,1.1886873850123907,-0.05230032061641571,0.17370406696164864,-0.48090215323937985,-0.6390676864208858,-174.84500688575523,0.1553401907277279,45,1762115385.8770204
0.49323588609695435,0.5316087603569031,-0.48381295800209045,0.9999157190322876,0.5572875142097473,0.6523904204368591,-0.2378678321838379,0.9998647570610046,0.4324171543121338,0.6421148180961609,-0.19674599170684814,0.9998462796211243,0.5316760540008545,0.9671922326087952,-0.03019174002110958,0.976619303226471,0.4555639326572418,0.9625024795532227,0.030548840761184692,0.9735516309738159,0.5313462615013123,1.2088521718978882,-0.022373205050826073,0.5677151679992676,0.44890445470809937,1.2031267881393433,0.08243309706449509,0.49422210454940796,0.519914984703064,1.4102703332901,0.2483668029308319,0.22110819816589355,0.44437384605407715,1.4141291379928589,0.3073582053184509,0.15692490339279175,0.5936168432235718,0.9899778366088867,-0.2725815773010254,0.9092988967895508,0.3966357111930847,0.9411255121231079,-0.2194623053073883,0.8884442448616028,179.777680257967,0.49361999332904816,0.9648473560810089,128.47728363458546,145.33840055442434,1.1643508904455344,-0.012543361175772514,0.07068573856195381,0.585473388209719,-1.5170800439585896,-175.29572043619532,0.15439110178745638,46,1762115385.944926
0.49088913202285767,0.5340744256973267,-0.4996033310890198,0.9999077320098877,0.5568512678146362,0.6524061560630798,-0.2390143871307373,0.9998434782028198,0.42947977781295776,0.644698977470398,-0.1974542886018753,0.9998423457145691,0.5291270017623901,0.9773848652839661,-0.034678004682064056,0.9641570448875427,0.4512968063354492,0.9673880934715271,0.035005323588848114,0.960198700428009,0.5212373733520508,1.2219321727752686,-0.02857847884297371,0.5458075404167175,0.4394621253013611,1.216038703918457,0.06893518567085266,0.46957486867904663,0.5111788511276245,1.4328726530075073,0.24161997437477112,0.2084311991930008,0.4355486333370209,1.4328553676605225,0.30169478058815,0.15097567439079285,0.5870386362075806,0.9871520400047302,-0.27907079458236694,0.899146318435669,0.39373859763145447,0.9660722613334656,-0.2717004716396332,0.8792178630828857,179.47743213267063,0.4902119040489197,0.9723864793777466,129.43233230001837,140.70786228559749,1.1844715856969048,-0.056499577080113675,0.12498418991079158,-0.7287096682349291,0.9001640758656444,-176.5372859911219,0.4227301797434403,47,1762115386.0052466
0.4898834824562073,0.5364104509353638,-0.5123364329338074,0.9998908042907715,0.5562617182731628,0.6558424830436707,-0.24266326427459717,0.999790370464325,0.4252324104309082,0.6535239815711975,-0.21170563995838165,0.9998153448104858,0.5256165266036987,0.9830747842788696,-0.032418958842754364,0.9491825699806213,0.4460204541683197,0.9785336852073669,0.03266308456659317,0.9427928328514099,0.5129296779632568,1.231834888458252,-0.03493068367242813,0.539374053478241,0.43095359206199646,1.2273211479187012,0.0607142448425293,0.4559037685394287,0.5073357224464417,1.4416934251785278,0.22153277695178986,0.2031145840883255,0.43037381768226624,1.442728042602539,0.29153451323509216,0.15223826467990875,0.5828153491020203,0.9851497411727905,-0.2821213901042938,0.8774809241294861,0.3877447247505188,0.984744668006897,-0.2990911304950714,0.8579789400100708,179.13417109100007,0.4858184903860092,0.9808042347431183,128.71065898950684,139.34265735455764,1.1883086956814513,-0.051117969907291824,0.09794173698839899,0.0626157367869914,-0.31464264482449505,-178.98628413733815,1.5961105969946192,48,1762115386.0911932
0.4898827075958252,0.5387595891952515,-0.5203015208244324,0.9998356103897095,0.5557470321655273,0.6582154631614685,-0.23628735542297363,0.9997241497039795,0.4216810166835785,0.6602223515510559,-0.2288282811641693,0.9997793436050415,0.5244460105895996,0.9949812889099121,-0.02958853915333748,0.9240620136260986,0.4432334303855896,0.991070568561554,0.02975897490978241,0.9190176129341125,0.5132682919502258,1.2505240440368652,0.017409013584256172,0.5081586837768555,0.4308839738368988,1.245787262916565,0.08097102493047714,0.42339327931404114,0.5089908242225647,1.4646087884902954,0.27925369143486023,0.18769033253192902,0.4310639500617981,1.4638166427612305,0.30240529775619507,0.14111672341823578,0.5792413949966431,0.9744886755943298,-0.2610379457473755,0.8522475361824036,0.3784322142601013,1.015915036201477,-0.29946795105934143,0.8287510275840759,179.16341724749648,0.4838397204875946,0.993025928735733,139.67004215233666,145.82486290086166,1.2307685595377145,-0.02021138447976076,0.12483379521622451,0.3156834362261536,0.2746785913461528,179.1423803668978,2.378004166455512,49,1762115386.189097
0.48915719985961914,0.5450116395950317,-0.597082257270813,0.9998437166213989,0.5556660294532776,0.6686381697654724,-0.2859067916870117,0.9997174739837646,0.41797322034835815,0.6676079630851746,-0.28623098134994507,0.9997847080230713,0.5247215628623962,1.001347303390503,-0.028102535754442215,0.8489193916320801,0.44120651483535767,0.9962069392204285,0.028470346704125404,0.8466076850891113,0.5139089226722717,1.2884774208068848,-0.0013163171242922544,0.462205708026886,0.4277466833591461,1.2818150520324707,0.06773614883422852,0.3835023045539856,0.508262038230896,1.5183846950531006,0.25199976563453674,0.16987012326717377,0.4246343672275543,1.5162489414215088,0.265487402677536,0.12766149640083313,0.579666018486023,1.0222089290618896,-0.34772104024887085,0.8303292393684387,0.3692508041858673,1.0471975803375244,-0.3834395706653595,0.8044835925102234,179.3319338027488,0.48296403884887695,0.9987771213054657,137.55560149964126,147.62603816935558,1.2955041218843055,-0.0129237392503765,0.08487892158932568,0.10755464375356205,-0.5896736276119167,-179.57132551938975,0.8801501620308145,50,1762115386.2568545
0.487937867641449,0.5462790131568909,-0.5866388082504272,0.9998506307601929,0.555622935295105,0.6754456162452698,-0.2816389203071594,0.9997010231018066,0.4169226288795471,0.6690349578857422,-0.2767676115036011,0.9997721910476685,0.5246659517288208,1.0068891048431396,-0.026820387691259384,0.801483154296875,0.44143372774124146,1.0019416809082031,0.02716371789574623,0.7993271946907043,0.5128132104873657,1.2925589084625244,-0.01407928578555584,0.44029444456100464,0.42537921667099,1.2851780652999878,0.04983653500676155,0.3579411804676056,0.5072063207626343,1.5245213508605957,0.24767978489398956,0.15775711834430695,0.42242446541786194,1.5220719575881958,0.21764779090881348,0.11878284811973572,0.5799554586410522,1.0253686904907227,-0.35084211826324463,0.8140044808387756,0.37072399258613586,1.026533603668213,-0.37916573882102966,0.7753070592880249,179.44410283347642,0.48304983973503113,1.0044153928756714,134.09771827000247,149.168571433268,1.275286188997438,0.0010933896827157081,0.07185039968159156,0.17862501011002832,-0.1660268567547765,-177.35370121169598,0.752703753141343,51,1762115386.335327
0.48740705847740173,0.5519587397575378,-0.6206165552139282,0.999859631061554,0.5555846691131592,0.6798684597015381,-0.293199747800827,0.999690055847168,0.41346868872642517,0.6764729022979736,-0.3068128526210785,0.9997788667678833,0.5255194306373596,1.0162571668624878,-0.02674596570432186,0.7265568971633911,0.43859559297561646,1.012961506843567,0.026815375313162804,0.7264360189437866,0.5182064771652222,1.3162899017333984,0.01984298788011074,0.39723238348960876,0.4289161264896393,1.3121479749679565,0.051404695957899094,0.3226340115070343,0.5123926401138306,1.553379774093628,0.27302244305610657,0.14218811690807343,0.42674675583839417,1.5531949996948242,0.23117844760417938,0.10704827308654785,0.5811229348182678,1.0286617279052734,-0.3621179461479187,0.7700328230857849,0.3661082088947296,1.0522984266281128,-0.39371463656425476,0.741605818271637,179.57950636146367,0.48205751180648804,1.0146093368530273,141.95204241059994,147.95685506516827,1.32838706484401,-0.013863998987378877,0.14242149688052735,-0.2089724731223453,0.9859619909526474,-178.63130029845487,0.6184352881613382,52,1762115386.4069028
0.48710042238235474,0.5587486624717712,-0.6404772996902466,0.9998693466186523,0.555545449256897,0.689152181148529,-0.30302879214286804,0.9996823072433472,0.40969711542129517,0.6862252354621887,-0.32442140579223633,0.9997891783714294,0.5255900621414185,1.0278732776641846,-0.0263393372297287,0.6589637398719788,0.43369483947753906,1.0219886302947998,0.026753876358270645,0.6607975959777832,0.518218457698822,1.334137201309204,0.018717436119914055,0.35855332016944885,0.42620667815208435,1.3297085762023926,0.051316000521183014,0.2908400297164917,0.5115206241607666,1.5759912729263306,0.2743019461631775,0.12817920744419098,0.4225738048553467,1.5751010179519653,0.23748190701007843,0.0964566096663475,0.5812309980392456,1.0380122661590576,-0.37435704469680786,0.730455219745636,0.36186960339546204,1.0670522451400757,-0.4147144854068756,0.7178866863250732,179.49392450610793,0.47964245080947876,1.0249309539794922,141.79557706831005,147.3749515052632,1.3556389793492385,-0.027423795716478645,0.11720528793699525,-0.15397586061648397,-0.2863381768277589,-178.85031853123706,0.5765829955780333,53,1762115386.4949672
0.4863424301147461,0.5713006854057312,-0.6837561726570129,0.9998795986175537,0.5560872554779053,0.7029311060905457,-0.31496676802635193,0.9996764659881592,0.40500301122665405,0.6988072991371155,-0.3533068597316742,0.999799370765686,0.5275149941444397,1.068861484527588,-0.023780252784490585,0.5955842733383179,0.43155035376548767,1.0697559118270874,0.024583546444773674,0.5981676578521729,0.5188531279563904,1.3632457256317139,0.048303600400686264,0.32308152318000793,0.42418941855430603,1.3642544746398926,0.06406766176223755,0.26195648312568665,0.511510968208313,1.6096713542938232,0.34081050753593445,0.11545232683420181,0.42119282484054565,1.613128662109375,0.2877410352230072,0.08685671538114548,0.5834888219833374,1.067375659942627,-0.39469823241233826,0.6834648251533508,0.3634366989135742,1.087419867515564,-0.45211678743362427,0.6870579719543457,179.84255351264656,0.4795326739549637,1.0693086981773376,143.8778497008858,145.68149929003667,1.4416219976231257,-0.0014763479716297502,0.5968197296361374,0.3489575468006858,6.4501557390644955,-178.43651410721046,0.19581927004689342,54,1762115386.5693243
0.48611730337142944,0.5843662023544312,-0.637189507484436,0.9998893141746521,0.5569465160369873,0.715449333190918,-0.2991738021373749,0.9996437430381775,0.4030636250972748,0.7127713561058044,-0.3124014735221863,0.9998107552528381,0.5304872393608093,1.0888429880142212,-0.023420928046107292,0.5361998081207275,0.42860275506973267,1.090608835220337,0.024523507803678513,0.5386106967926025,0.5238341689109802,1.3906028270721436,0.02357996441423893,0.2908098101615906,0.4257845878601074,1.3935328722000122,0.04856453090906143,0.2357843667268753,0.5152544975280762,1.6455175876617432,0.29876431822776794,0.10391400754451752,0.42236757278442383,1.6500036716461182,0.2646154761314392,0.07817363739013672,0.5861152410507202,1.058806300163269,-0.2985135316848755,0.6211735606193542,0.3657401204109192,1.0920188426971436,-0.383888304233551,0.6530381441116333,179.9298212042746,0.479544997215271,1.089725911617279,141.67249735661235,144.42780382128345,1.405505807617637,0.00017219466367279765,0.28529261849158305,0.02303532000113275,-4.353012497566533,-179.0029996392146,0.07668728630387116,55,1762115386.6408901
0.4855397343635559,0.5872054696083069,-0.6528216004371643,0.9998965263366699,0.5585242509841919,0.7224032282829285,-0.286442369222641,0.9996145367622375,0.4022752642631531,0.7142456769943237,-0.3147980570793152,0.9998148083686829,0.5311300754547119,1.0931732654571533,-0.022131193429231644,0.48313307762145996,0.42774033546447754,1.0926588773727417,0.023450609296560287,0.48549380898475647,0.5241023302078247,1.3957600593566895,0.010024028830230236,0.2618720531463623,0.42419376969337463,1.3935167789459229,0.014470118097960949,0.2122945785522461,0.5153621435165405,1.6573842763900757,0.2771754264831543,0.09354493767023087,0.4199506342411041,1.658121943473816,0.20245519280433655,0.07036940008401871,0.5892201066017151,1.0970326662063599,-0.34297606348991394,0.5721920132637024,0.3642342984676361,1.0865079164505005,-0.39390724897384644,0.6205913424491882,179.85246694477144,0.4794352054595947,1.0929160714149475,140.47754784933443,142.90101111943926,1.3939844753393174,-0.0013154925312590163,0.03822355660045878,-0.017825030501861933,-2.960308846697814,-177.01137717411441,0.14856037507802883,56,1762115386.7243507
0.4852888584136963,0.6030200719833374,-0.6556862592697144,0.9999039769172668,0.5624309182167053,0.7364485859870911,-0.28538599610328674,0.9995754361152649,0.4014734625816345,0.7295809984207153,-0.3072395324707031,0.9998239874839783,0.5326889157295227,1.1213469505310059,-0.020469630137085915,0.4351803958415985,0.42631787061691284,1.116229772567749,0.021996762603521347,0.4374883770942688,0.5244771838188171,1.429763913154602,0.007330963853746653,0.23583079874515533,0.4225029945373535,1.4202685356140137,0.004382421728223562,0.19117337465286255,0.5154829621315002,1.6922482252120972,0.2783360779285431,0.08420459926128387,0.4173765778541565,1.6877717971801758,0.20186170935630798,0.06334111839532852,0.5890067219734192,1.0933537483215332,-0.29240983724594116,0.5216691493988037,0.3616945147514343,1.094325304031372,-0.3791102468967438,0.5921599268913269,179.63630514729317,0.4795033931732178,1.1187883615493774,139.24830432924085,140.25142895237596,1.4086638468221355,0.0010123642953979901,0.38411880059609144,0.03456105229065046,5.135411885269597,-177.55683720711335,0.3467903321896131,57,1762115386.7917056
0.4852806627750397,0.6155067086219788,-0.7062495350837708,0.9999111294746399,0.567884624004364,0.750813901424408,-0.31104955077171326,0.9995441436767578,0.4006892740726471,0.7486082911491394,-0.3419042229652405,0.9998295307159424,0.5378419756889343,1.1447558403015137,-0.020472463220357895,0.3918967843055725,0.42779436707496643,1.1409194469451904,0.02197427675127983,0.3940630853176117,0.5270767211914062,1.4634952545166016,0.0059431688860058784,0.21235109865665436,0.42229676246643066,1.4558453559875488,0.012879585847258568,0.1721307337284088,0.5163182020187378,1.7338088750839233,0.2811996340751648,0.07579419016838074,0.41725459694862366,1.7287293672561646,0.2154451608657837,0.057012759149074554,0.5926839113235474,1.1273655891418457,-0.31912961602211,0.4765883684158325,0.36343422532081604,1.128471851348877,-0.3879091143608093,0.5609084367752075,179.7859356744761,0.4828181713819504,1.142837643623352,139.23682904885757,141.76302944186153,1.4684942538022117,0.03931185390653275,0.2852142146217879,0.4542155901475439,-1.1729661502736075,-179.2442084648648,0.18588963651732318,58,1762115386.8760257
0.4854256510734558,0.6291639804840088,-0.7329946756362915,0.9999174475669861,0.5751042366027832,0.7662258744239807,-0.3274926543235779,0.9995306134223938,0.39965370297431946,0.7671850323677063,-0.34843939542770386,0.9998378157615662,0.5425290465354919,1.1800512075424194,-0.02057977020740509,0.35294151306152344,0.42838254570961,1.1754108667373657,0.022131003439426422,0.35503438115119934,0.5316857099533081,1.5088036060333252,0.0027697007171809673,0.19131126999855042,0.42299336194992065,1.4936295747756958,-0.03835616633296013,0.15506480634212494,0.5228110551834106,1.784616470336914,0.27653294801712036,0.0682314857840538,0.4196372926235199,1.7769806385040283,0.16749733686447144,0.051321081817150116,0.5981895327568054,1.1791362762451172,-0.36083924770355225,0.43460696935653687,0.3644397556781769,1.165495753288269,-0.4067276418209076,0.5329355597496033,179.73191710057927,0.48545579612255096,1.1777310371398926,139.28834359774422,133.2414478729614,1.4961643046347746,0.0409601172933667,0.5418653643943545,0.025596158777198834,3.9855787809178915,179.68677693100935,0.31443097234283957,59,1762115386.9404206
0.4855264723300934,0.6430835127830505,-0.8108172416687012,0.9999226927757263,0.5815589427947998,0.7748790979385376,-0.3978552222251892,0.9994979500770569,0.4003979563713074,0.7736432552337646,-0.3875943124294281,0.999842643737793,0.5468376874923706,1.190983772277832,-0.026623617857694626,0.3177655339241028,0.42886751890182495,1.1841555833816528,0.028375599533319473,0.31969568133354187,0.535731852054596,1.53043794631958,0.0035845201928168535,0.17223498225212097,0.42361241579055786,1.5174195766448975,0.019398164004087448,0.13960841298103333,0.5256984829902649,1.8147060871124268,0.32504168152809143,0.06141301989555359,0.42055410146713257,1.8051272630691528,0.27566036581993103,0.046191323548555374,0.6000424027442932,1.1915000677108765,-0.4122786521911621,0.396503210067749,0.36269450187683105,1.1757177114486694,-0.4194789528846741,0.5081010460853577,179.56668108646232,0.4878526031970978,1.1875696778297424,136.58645947490112,136.7658835262634,1.6113188098673579,0.02883869251158948,0.11837979643824299,-0.14584654968532648,-5.095433089745578,-179.60914612935537,0.4774586788739263,60,1762115387.0235314
0.48555320501327515,0.6434913873672485,-0.8208918571472168,0.999924898147583,0.5840797424316406,0.7798600196838379,-0.3972477316856384,0.9994482398033142,0.39885246753692627,0.7824081182479858,-0.3809032440185547,0.9998332262039185,0.5494991540908813,1.198517084121704,-0.030526766553521156,0.28611576557159424,0.42900314927101135,1.1930614709854126,0.03239065781235695,0.28788742423057556,0.5381872653961182,1.5426045656204224,-0.01083310879766941,0.155064657330513,0.42420679330825806,1.5273205041885376,0.011860676109790802,0.12570197880268097,0.5271707773208618,1.8334354162216187,0.3152924180030823,0.055276479572057724,0.4209116995334625,1.8234525918960571,0.2649599313735962,0.04157460480928421,0.5991336703300476,1.186871886253357,-0.4429764747619629,0.36334457993507385,0.36353281140327454,1.1793816089630127,-0.43302854895591736,0.4800766408443451,179.6939474858764,0.48925115168094635,1.1957892775535583,135.01911225798472,135.96670767287756,1.6243787416248332,0.02097097244715194,0.12325135762216811,-0.1179749880670486,0.07304814709145985,179.21185427443012,0.30948973171646327,61,1762115387.0902212
0.4859928488731384,0.6515160202980042,-0.8842727541923523,0.9999237060546875,0.5893334150314331,0.7887009382247925,-0.4452199339866638,0.9992817044258118,0.39904290437698364,0.7858922481536865,-0.4208027422428131,0.9998152852058411,0.5513755679130554,1.2103431224822998,-0.03173231706023216,0.2575914263725281,0.42709049582481384,1.2012261152267456,0.03360898420214653,0.25920477509498596,0.5393213033676147,1.5635664463043213,-0.017442375421524048,0.1395888775587082,0.423257052898407,1.5416905879974365,-0.0007584852864965796,0.1131640076637268,0.5283302068710327,1.8577673435211182,0.3392038941383362,0.0497514009475708,0.41933321952819824,1.843059778213501,0.2780986428260803,0.037418536841869354,0.5997298955917358,1.2067394256591797,-0.4264216423034668,0.3330603539943695,0.3640816807746887,1.1854501962661743,-0.4225480556488037,0.4571095407009125,179.32161823568615,0.48923303186893463,1.2057846188545227,131.8539305114673,131.46015047139858,1.691322243062526,-0.0002695303079738414,0.14867965613607026,-0.3159502562943664,0.3782432800776454,-179.15437505702658,0.6643629593386013,62,1762115387.1574485
0.4893949031829834,0.6547379493713379,-0.9409092664718628,0.9999262094497681,0.5978822112083435,0.7960662245750427,-0.4888460040092468,0.9992389678955078,0.39889246225357056,0.7931787967681885,-0.44932985305786133,0.9997985363006592,0.5559014081954956,1.215425729751587,-0.03594654053449631,0.2318958193063736,0.4265149235725403,1.2067599296569824,0.037964560091495514,0.23334378004074097,0.5411759614944458,1.5734810829162598,-0.0331408753991127,0.1256437599658966,0.42141446471214294,1.556242823600769,0.002641491824761033,0.10186249762773514,0.5294628739356995,1.87556791305542,0.3239552974700928,0.0447777584195137,0.4171088635921478,1.8620917797088623,0.2897457182407379,0.033677197992801666,0.6084429621696472,1.2090160846710205,-0.4081840515136719,0.3075605630874634,0.3689020276069641,1.1828564405441284,-0.33176320791244507,0.42934519052505493,179.01242553165025,0.49120816588401794,1.2110928297042847,130.69904107800664,131.04233562997985,1.7410293190542385,0.025662009330161325,0.0689671461849181,0.33691658746062525,-1.0356680399789275,-179.16867166164684,0.8962374827825523,63,1762115387.2344158
0.49278920888900757,0.6585472226142883,-0.8832253217697144,0.9999257922172546,0.6027429699897766,0.8031985759735107,-0.46180468797683716,0.9992380738258362,0.39926615357398987,0.7981986403465271,-0.410546213388443,0.9997796416282654,0.5588887929916382,1.2328897714614868,-0.040695399045944214,0.20887993276119232,0.42643195390701294,1.220729947090149,0.04276815056800842,0.21015048027038574,0.541808009147644,1.5950535535812378,0.006933917757123709,0.11310634762048721,0.4193083345890045,1.5779821872711182,0.10395084321498871,0.09170091897249222,0.5287689566612244,1.898503303527832,0.3986044228076935,0.040303152054548264,0.4136838912963867,1.8813308477401733,0.4187127947807312,0.030310161411762238,0.6105345487594604,1.2309329509735107,-0.36209288239479065,0.2831455171108246,0.37977659702301025,1.1697707176208496,-0.1295679807662964,0.3943837285041809,178.8781669613942,0.49266037344932556,1.2268098592758179,135.2757766628493,143.66277898846508,1.784853147647777,0.01286984155156494,0.139288408268308,-0.1133675215200357,0.6232053339617403,-178.59238228461925,0.8940762604257988,64,1762115387.3472538
0.49667230248451233,0.6654528975486755,-0.8968530893325806,0.9999211430549622,0.6067089438438416,0.8127222061157227,-0.4556090831756592,0.9990896582603455,0.3992841839790344,0.8051047325134277,-0.42852431535720825,0.999742329120636,0.5629144906997681,1.2435914278030396,-0.03880905359983444,0.18817350268363953,0.42642802000045776,1.230947494506836,0.04073008522391319,0.1893194019794464,0.5450944304466248,1.6094393730163574,0.007529899477958679,0.10183088481426239,0.41986480355262756,1.589933156967163,0.07749350368976593,0.08256049454212189,0.5317133665084839,1.9179859161376953,0.4002250134944916,0.036275714635849,0.4137391448020935,1.9034613370895386,0.35802003741264343,0.02728012390434742,0.6153708100318909,1.2234140634536743,-0.3029191792011261,0.25926849246025085,0.3839797079563141,1.1914550065994263,-0.21592338383197784,0.3634788691997528,178.88656863594244,0.4946712553501129,1.2372694611549377,135.39267645815139,144.03081023994523,1.7830833887829158,0.027719532916380463,0.14418314594555512,0.20469949449737637,0.06747280489638627,-177.89681308772484,0.8534960175694154,65,1762115387.4197977
0.49728235602378845,0.6684499979019165,-0.8713432550430298,0.9999209046363831,0.609153151512146,0.8157321214675903,-0.43525561690330505,0.9990733861923218,0.3984074890613556,0.8146509528160095,-0.4079930782318115,0.9997211694717407,0.5641254782676697,1.2612700462341309,-0.03974946588277817,0.16949023306369781,0.42595839500427246,1.2510104179382324,0.04173576831817627,0.17050263285636902,0.5485401153564453,1.6303216218948364,0.008525350131094456,0.09166741371154785,0.42044854164123535,1.6152400970458984,0.08426739275455475,0.07432226836681366,0.5367135405540466,1.9391494989395142,0.4225621223449707,0.032650355249643326,0.4153881072998047,1.9251315593719482,0.4101862907409668,0.024552658200263977,0.6139090061187744,1.2492525577545166,-0.27937573194503784,0.23859061300754547,0.3825529217720032,1.222909688949585,-0.1652977466583252,0.33669033646583557,178.86470470986174,0.49504193663597107,1.2561402320861816,134.1843912961432,140.21894545094344,1.804322808593079,0.005862423927060474,0.29844630211986156,-0.34567603923870793,2.4397131776600762,-179.706063429683,1.0348012220684273,66,1762115387.4830277
0.5003339052200317,0.6749718189239502,-0.824280858039856,0.9999217391014099,0.6095456480979919,0.8203074932098389,-0.3761137127876282,0.9990773797035217,0.39821428060531616,0.8161845803260803,-0.3279964327812195,0.9997202754020691,0.5621167421340942,1.2666189670562744,-0.044521264731884,0.1525999903678894,0.422604501247406,1.2542576789855957,0.04660319909453392,0.15351197123527527,0.5478787422180176,1.6377626657485962,0.013446355238556862,0.08251800388097763,0.4167444705963135,1.621730923652649,0.10420074313879013,0.06690652668476105,0.5313637852668762,1.9488279819488525,0.4178586006164551,0.02938813529908657,0.4111379086971283,1.9337668418884277,0.42835965752601624,0.022098027169704437,0.6121298670768738,1.277189016342163,-0.3362918198108673,0.21943581104278564,0.3700964152812958,1.2353177070617676,-0.23404419422149658,0.318406879901886,178.5077521754497,0.4923606216907501,1.260438323020935,136.4706478969861,142.8192864272803,1.777753670139606,-0.028083749943813772,0.04501765496161856,-0.35554788527846726,-2.654379250776387,-178.88234507143721,1.0413662255843092,67,1762115387.5785034
0.5020964741706848,0.6794280409812927,-0.8201605677604675,0.9999083280563354,0.6096982359886169,0.8255759477615356,-0.3707454800605774,0.9989705681800842,0.39723649621009827,0.8172286748886108,-0.321638822555542,0.9996972680091858,0.5606135129928589,1.2769938707351685,-0.04497180134057999,0.13744905591011047,0.4207642674446106,1.26246976852417,0.04704795777797699,0.1382768452167511,0.5470679402351379,1.6507656574249268,0.012073921039700508,0.07430244237184525,0.4134827256202698,1.628876805305481,0.08860169351100922,0.060259245336055756,0.5285931825637817,1.970163106918335,0.3947189748287201,0.026452980935573578,0.40667811036109924,1.9515036344528198,0.38181668519973755,0.01989009603857994,0.6042972803115845,1.2711056470870972,-0.3797765374183655,0.2029356062412262,0.36806875467300415,1.2322078943252563,-0.24194176495075226,0.30344003438949585,178.36737364911707,0.49068889021873474,1.2697318196296692,138.55807245474,144.20901870284692,1.7616714677229701,-0.02104032071729287,0.11696743915283583,0.08864821435520019,0.9055560419031768,-177.75010006190618,1.0109004693485708,68,1762115387.657957
0.5077692866325378,0.6944674849510193,-1.0613429546356201,0.9999073147773743,0.6100748777389526,0.8276541233062744,-0.5544634461402893,0.9988996386528015,0.39603570103645325,0.826206386089325,-0.5252958536148071,0.9996735453605652,0.5597572922706604,1.27535080909729,-0.04398953542113304,0.12381601333618164,0.41865915060043335,1.2620176076889038,0.04600388929247856,0.12453453242778778,0.5459507703781128,1.654247760772705,-0.04225270822644234,0.06691966950893402,0.41427144408226013,1.6364725828170776,0.03652850538492203,0.05427985638380051,0.5306564569473267,1.9799565076828003,0.34280431270599365,0.023814251646399498,0.40887370705604553,1.960023045539856,0.3338714838027954,0.017903055995702744,0.5994029641151428,1.2551870346069336,-0.31032314896583557,0.1894373893737793,0.36971479654312134,1.2332991361618042,-0.18421252071857452,0.28657829761505127,178.20461400746473,0.4892082214355469,1.268684208393097,130.5175648740162,135.9704143213194,1.8940717848167499,-0.01857302856664354,-0.01314089527956552,0.030948911813757817,-1.6320367117949814,-179.61246362134867,1.338265602563238,69,1762115387.7376785
