nose_x,nose_y,nose_z,nose_visibility,left_shoulder_x,left_shoulder_y,left_shoulder_z,left_shoulder_visibility,right_shoulder_x,right_shoulder_y,right_shoulder_z,right_shoulder_visibility,left_hip_x,left_hip_y,left_hip_z,left_hip_visibility,right_hip_x,right_hip_y,right_hip_z,right_hip_visibility,left_knee_x,left_knee_y,left_knee_z,left_knee_visibility,right_knee_x,right_knee_y,right_knee_z,right_knee_visibility,left_ankle_x,left_ankle_y,left_ankle_z,left_ankle_visibility,right_ankle_x,right_ankle_y,right_ankle_z,right_ankle_visibility,left_wrist_x,left_wrist_y,left_wrist_z,left_wrist_visibility,right_wrist_x,right_wrist_y,right_wrist_z,right_wrist_visibility,trunk_lateral_inclination,center_mass_x,center_mass_y,left_knee_angle,right_knee_angle,person_height,center_mass_velocity_x,center_mass_velocity_y,center_mass_acceleration_x,center_mass_acceleration_y,body_orientation,torso_leg_ratio,frame,timestamp
0.4721863865852356,0.7069216370582581,-0.26143550872802734,0.9024432301521301,0.4310067594051361,0.37658268213272095,-0.22363147139549255,0.8795743584632874,0.6147090196609497,0.3792876899242401,0.015218849293887615,0.7496247887611389,0.4983135163784027,-0.7047939300537109,-0.11980780214071274,0.09061494469642639,0.6713186502456665,-0.6855698823928833,0.12162431329488754,0.09595884382724762,0.5168341398239136,-1.2658002376556396,-0.17570088803768158,0.028147345408797264,0.6650130152702332,-1.1522505283355713,0.08468348532915115,0.015902182087302208,0.4819123148918152,-1.8340834379196167,0.20530620217323303,0.004426686093211174,0.6461589336395264,-1.7702186107635498,0.31130850315093994,0.006730897352099419,0.5087546110153198,0.4145551323890686,-0.8037616610527039,0.6923992037773132,0.5370303392410278,0.46097272634506226,-0.3274115324020386,0.3578947186470032,-3.3043982827367615,0.5848160833120346,-0.6951819062232971,140.19272595448587,155.32487221775276,2.563984115514865,0.0,0.0,0.0,0.0,0.8436168923560796,2.3042248290804355,0,1761939711.4899108
0.4671277105808258,0.06305992603302002,-0.06502336263656616,0.911685049533844,0.4706908166408539,0.21764600276947021,-0.16622325778007507,0.8915145397186279,0.4959337115287781,0.2252712845802307,-0.19082096219062805,0.7746403813362122,0.5259118676185608,0.8039536476135254,0.014373065903782845,0.1809844821691513,0.5420745015144348,0.8164225816726685,-0.014312705025076866,0.1858944296836853,0.5353643894195557,0.6344183087348938,0.2830372750759125,0.04414819926023483,0.5322563052177429,0.6975253224372864,0.26431214809417725,0.049583666026592255,0.5204506516456604,0.6984266638755798,0.6261245608329773,0.018003473058342934,0.5251834392547607,0.7487626075744629,0.5790831446647644,0.017871685326099396,0.5232220888137817,0.7500247359275818,-0.1361590176820755,0.6404227018356323,0.4454602599143982,0.8189267516136169,-0.21726639568805695,0.38375988602638245,-175.07980885322314,0.5339931845664978,0.8101881146430969,136.98793830795032,147.65162149511113,0.9408153397183763,-0.17929846293989452,5.310805514037008,-0.6325483120033942,18.736028230250728,16.80832550889748,4.609744310111337,1,1761939711.773365
0.5227074027061462,0.755929708480835,0.16908907890319824,0.9197137951850891,0.47046002745628357,0.6446821689605713,0.19282077252864838,0.9020046591758728,0.5663638114929199,0.6459886431694031,0.1420087218284607,0.7970920205116272,0.4838937819004059,0.32865145802497864,0.01150531880557537,0.2628796696662903,0.5535781979560852,0.328503280878067,-0.012077529914677143,0.2672994136810303,0.4271964430809021,0.427945077419281,-0.08003945648670197,0.12727287411689758,0.520285964012146,0.3634336590766907,-0.18585236370563507,0.11429879814386368,0.47466427087783813,0.296449214220047,-0.07641277462244034,0.04921026900410652,0.5440607666969299,0.27533504366874695,-0.07100319862365723,0.029089070856571198,0.3930613398551941,0.8975436687469482,-0.0539742037653923,0.6121196150779724,0.5102304816246033,0.8892788290977478,-0.15358808636665344,0.4085002839565277,-0.05861844257796023,0.5187359899282455,0.3285773694515228,38.28236978677075,25.76044211087372,0.5292105697465189,-0.03984441154861526,-1.2577342816049013,0.36418651970427884,-17.15384833820236,0.7804783609732244,0.009097400083419598,2,1761939712.1562843
0.5162687301635742,0.7460799217224121,0.36501073837280273,0.9230008125305176,0.5619644522666931,0.644260048866272,0.17221412062644958,0.9111605882644653,0.4582674503326416,0.6460215449333191,0.18418416380882263,0.8172640800476074,0.5420931577682495,0.30828651785850525,-0.008467827923595905,0.33659037947654724,0.4861748218536377,0.32346683740615845,0.007284021936357021,0.3405683934688568,0.5336870551109314,0.29082316160202026,0.2226981818675995,0.14241348206996918,0.4714692533016205,0.3514902889728546,0.22673292458057404,0.126081645488739,0.5271543264389038,0.14685000479221344,-0.12926149368286133,0.09515482187271118,0.4982391893863678,0.1319858431816101,-0.1481097787618637,0.09249893575906754,0.568799614906311,0.8105549216270447,-0.02860591933131218,0.6069733500480652,0.3900018036365509,0.8874624371528625,0.05969429016113281,0.45455044507980347,-0.6991506470703176,0.5141339898109436,0.31587667763233185,26.74042166554213,23.030809044989095,0.7885185960156569,-0.11488713469436343,-0.3170678084637819,-1.8734122603482182,23.48337093602577,179.0268129027735,0.3970549270374126,3,1761939712.196341
0.5171909928321838,0.7424948811531067,0.2705368399620056,0.9292882680892944,0.58109450340271,0.6500232815742493,0.058407288044691086,0.9194993376731873,0.4351250231266022,0.6421144008636475,0.12683361768722534,0.8354872465133667,0.5533192157745361,0.29464566707611084,-0.014050940051674843,0.40293088555336,0.4602256715297699,0.312425434589386,0.012761624529957771,0.40651124715805054,0.5841036438941956,0.2662094235420227,0.19513103365898132,0.16064153611660004,0.41594967246055603,0.32511627674102783,0.24808378517627716,0.13736498355865479,0.5439484119415283,0.15437887609004974,-0.1859746128320694,0.14923448860645294,0.4752902388572693,0.13813090324401855,-0.1704506278038025,0.15868474543094635,0.6189389228820801,0.8665315508842468,-0.17159420251846313,0.6179063320159912,0.39582276344299316,0.7799752354621887,-0.13600260019302368,0.4796582758426666,0.2236932365271374,0.506772443652153,0.3035355508327484,24.043200727375453,20.978522903475554,0.7462811371705461,-0.20575458967780627,-0.344933445506947,-2.5397376463990553,-0.7788421878032551,-176.89864732853422,0.13939608093067168,4,1761939712.2321193
0.5168905258178711,0.7775288224220276,0.336823433637619,0.9350131154060364,0.575619101524353,0.6826433539390564,0.08109983801841736,0.9274477362632751,0.43807634711265564,0.6660914421081543,0.1389533430337906,0.8519341349601746,0.5549658536911011,0.299191951751709,-0.010515262372791767,0.46263769268989563,0.45798149704933167,0.32351037859916687,0.009229735471308231,0.4658600091934204,0.5689490437507629,0.24821771681308746,0.22971126437187195,0.19124963879585266,0.40532630681991577,0.3045080900192261,0.24382178485393524,0.16991658508777618,0.544247567653656,0.13906916975975037,-0.25619399547576904,0.21421466767787933,0.45425310730934143,0.15698035061359406,-0.24371030926704407,0.22878848016262054,0.603560745716095,0.8371293544769287,-0.1869610846042633,0.6391409635543823,0.41941148042678833,0.4329911470413208,-0.05391760915517807,0.4924865961074829,0.0590370802854499,0.5064736753702164,0.3113511651754379,24.609304042190733,22.34881497720444,0.8607509099336417,-0.006056435710557349,0.15843303545537146,4.048150704552013,10.203916931999613,-173.1380164493608,0.030878271346096817,5,1761939712.28145
0.49743229150772095,0.7420200705528259,0.29823189973831177,0.9383048415184021,0.5594077706336975,0.6490631699562073,0.048604369163513184,0.9346007108688354,0.45361819863319397,0.665160596370697,0.09869571030139923,0.8667313456535339,0.5452873110771179,0.2922705411911011,-0.016900014132261276,0.5163734555244446,0.47306522727012634,0.3248630166053772,0.015516027808189392,0.519273579120636,0.5286189913749695,0.2196490615606308,0.23108883202075958,0.24470208585262299,0.4287593364715576,0.30441996455192566,0.2355613261461258,0.21807971596717834,0.5316750407218933,0.13020950555801392,-0.2841375470161438,0.284685343503952,0.4612971246242523,0.15424855053424835,-0.27926671504974365,0.3043544888496399,0.53984135389328,0.514742374420166,-0.07817963510751724,0.6287243366241455,0.41888102889060974,0.5238821506500244,-0.14824917912483215,0.5030744075775146,-0.4377969799902227,0.5091762691736221,0.30856677889823914,26.365337166311967,22.772026944753996,0.8343102960104364,0.06303768747810322,-0.0649454874569711,1.6116124216120018,-5.21027817755062,171.34798052126263,0.14964022353484072,6,1761939712.3243227
0.49700576066970825,0.7323962450027466,0.26461321115493774,0.9431268572807312,0.550545334815979,0.6489084959030151,0.013269245624542236,0.9410908818244934,0.4656189978122711,0.6642990708351135,0.040170080959796906,0.8800495862960815,0.5416479706764221,0.30607086420059204,-0.013728651218116283,0.5647358298301697,0.47981563210487366,0.3440423011779785,0.012479254975914955,0.567345917224884,0.5169308185577393,0.2133830189704895,0.18240198493003845,0.2711353003978729,0.42866283655166626,0.2778598666191101,0.14566710591316223,0.2258140742778778,0.5249785780906677,0.12072820961475372,-0.23147132992744446,0.3452035188674927,0.46031856536865234,0.1419830620288849,-0.23378756642341614,0.358371764421463,0.5208031535148621,0.4734615683555603,-0.0828796774148941,0.5890344977378845,0.42544594407081604,0.4634720981121063,-0.170609250664711,0.4906734526157379,-0.45788254271446605,0.5107318013906479,0.3250565826892853,38.19914907881403,47.24622166406574,0.780076317572823,0.0388783779757471,0.41213985638947653,-0.6038285521733473,11.924088824220306,169.72818716027717,0.13346442452349433,7,1761939712.364333
0.49591049551963806,0.6839748024940491,0.2600160241127014,0.9481334686279297,0.549516499042511,0.648338258266449,0.047116003930568695,0.9469107985496521,0.475385844707489,0.631878674030304,0.07513661682605743,0.8920167088508606,0.5366705656051636,0.31499218940734863,-0.012055369094014168,0.6082620620727539,0.4867403507232666,0.34311994910240173,0.010937152430415154,0.610611081123352,0.49781304597854614,0.21067513525485992,0.15293800830841064,0.319970965385437,0.4403393864631653,0.2743094861507416,0.11409306526184082,0.24544137716293335,0.5249904990196228,0.13202518224716187,-0.21089401841163635,0.3947356939315796,0.46566224098205566,0.13419584929943085,-0.21268856525421143,0.40986719727516174,0.5015753507614136,0.8019449710845947,-0.03946880251169205,0.6084896922111511,0.43325504660606384,0.6929141283035278,-0.07435984909534454,0.5200189352035522,0.13736002976983802,0.5117054581642151,0.3290560692548752,44.61339177152298,57.664580377235836,0.7252957651653568,0.02391466978204092,0.09823420645796002,-0.367534176192536,-7.710057758162393,-167.48142642732256,0.02840689278021441,8,1761939712.4050467
0.49271464347839355,0.6640281081199646,0.24355487525463104,0.9527060985565186,0.5237140655517578,0.6308708786964417,0.07515044510364532,0.9521841406822205,0.47992849349975586,0.5956436395645142,0.10553489625453949,0.9028029441833496,0.5174793004989624,0.31097590923309326,-0.011530084535479546,0.6474356055259705,0.4896555542945862,0.3274388313293457,0.010512189008295536,0.649549663066864,0.4791232645511627,0.22168771922588348,0.11769956350326538,0.37703564763069153,0.443899929523468,0.2968049943447113,0.126858189702034,0.30181923508644104,0.49332767724990845,0.14727701246738434,-0.2326861321926117,0.4493597745895386,0.47133928537368774,0.14793021976947784,-0.22397387027740479,0.4662512540817261,0.5051432251930237,0.7990529537200928,-0.06200338155031204,0.6423343420028687,0.4486803412437439,0.5813390612602234,-0.0896437019109726,0.5496872663497925,-0.34023385570658543,0.5035674273967743,0.3192073702812195,47.47172702515753,40.29709758367539,0.6996265869209183,-0.21803497285212392,-0.2638673746406899,-6.482340171824006,-9.701463494144948,-141.18193512866273,0.08385715677041254,9,1761939712.4423711
0.4885684549808502,0.6820007562637329,0.22574491798877716,0.9571638703346252,0.5232491493225098,0.615443229675293,0.10390637814998627,0.9568856358528137,0.4745498597621918,0.6069439053535461,0.06873179972171783,0.9124820232391357,0.5122359991073608,0.3013182580471039,0.001400467474013567,0.6826910376548767,0.48661142587661743,0.31857892870903015,-0.0019911762792617083,0.6845933198928833,0.46322473883628845,0.3041158616542816,0.03946593031287193,0.4197785258293152,0.43749818205833435,0.3749806582927704,-0.006482917815446854,0.3470834195613861,0.48304182291030884,0.15527433156967163,-0.22758527100086212,0.4956936240196228,0.46972161531448364,0.14809390902519226,-0.27651554346084595,0.5148181319236755,0.4332432746887207,0.8023362755775452,0.0013108737766742706,0.6588714718818665,0.4098026752471924,0.7813813090324402,0.04148371145129204,0.5782508254051208,-0.09970248589740328,0.49942371249198914,0.309948593378067,52.62636148198769,60.25295467633958,0.7139135968137004,-0.12757836012625706,-0.2850629450194524,2.785014553200868,-0.6525777407467162,-170.1000711430591,0.020145372535024433,10,1761939712.474851
0.47684526443481445,0.7070914506912231,0.004485054407268763,0.9509808421134949,0.4803770184516907,0.6532748937606812,-0.020784929394721985,0.9607272148132324,0.5035284161567688,0.6455322504043579,-0.0750993862748146,0.920449435710907,0.4841306209564209,0.33800166845321655,0.009418553672730923,0.7143879532814026,0.4977290630340576,0.33695322275161743,-0.009337794966995716,0.7160917520523071,0.4363943636417389,0.32992711663246155,-0.16414383053779602,0.4535003900527954,0.4624861776828766,0.3640194833278656,-0.226799875497818,0.3701716661453247,0.46617335081100464,0.1526099443435669,-0.1450704038143158,0.51188725233078,0.471651166677475,0.13900727033615112,-0.2212374210357666,0.5276710987091064,0.4054902493953705,0.8007296919822693,-0.21072892844676971,0.6350574493408203,0.46910104155540466,0.7733523845672607,-0.14275619387626648,0.5590534806251526,0.18788496098436797,0.49092984199523926,0.337477445602417,84.18634700236203,81.23072157400352,0.5918697024631142,-0.2389570994506637,0.7744660907243325,-3.133405495129192,29.807610707270822,-18.491751409802088,0.0525279071032529,11,1761939712.5103965
0.46498966217041016,0.015989035367965698,-0.3756467401981354,0.9558812379837036,0.556323230266571,0.20397360622882843,-0.28904759883880615,0.9646505117416382,0.3885030150413513,0.2211112529039383,-0.2724660336971283,0.9283682107925415,0.5174936056137085,0.4710298776626587,-0.011972721666097641,0.742928683757782,0.436038076877594,0.4690595269203186,0.011691321618855,0.7444292306900024,0.5160598754882812,0.6928017735481262,-0.2103862464427948,0.4666455090045929,0.43989649415016174,0.6826814413070679,-0.09969768673181534,0.3769109547138214,0.5102335810661316,0.8845416307449341,-0.012292512692511082,0.5252018570899963,0.42091959714889526,0.8713109493255615,0.07109267264604568,0.5283942818641663,0.5802469849586487,0.6638243198394775,-0.32715386152267456,0.6710829734802246,0.3822387456893921,0.7101162672042847,-0.2997904121875763,0.6027694344520569,-179.03158658366385,0.47676584124565125,0.47004470229148865,92.25333670047338,110.16807280387884,0.9523650046071624,-0.14203024065334538,1.329324934612865,0.9719390251484119,5.563875385167395,174.1692198034864,0.35095222749066074,12,1761939712.6101217
0.4641175866127014,0.014750226400792599,-0.5216216444969177,0.9601777791976929,0.5576635599136353,0.2034476101398468,-0.30668190121650696,0.9681103229522705,0.38844889402389526,0.22106628119945526,-0.3103804886341095,0.9354453086853027,0.5176782011985779,0.5336028933525085,0.003358955727890134,0.7685354351997375,0.4358876645565033,0.5511718988418579,-0.0035598587710410357,0.769845724105835,0.5199787020683289,0.8039216995239258,-0.060290317982435226,0.4454694092273712,0.44153913855552673,0.8104835748672485,-0.061713866889476776,0.3716026842594147,0.515289843082428,0.9528428912162781,0.3687461018562317,0.489094078540802,0.44655054807662964,0.9761571288108826,0.35642439126968384,0.49840590357780457,0.5807812809944153,0.6631441712379456,-0.2590116560459137,0.6695358157157898,0.3821609616279602,0.7050743699073792,-0.2805935740470886,0.6219272613525391,-179.35323914982104,0.4767829328775406,0.5423873960971832,95.88718611803323,98.98519536505867,1.2977398835430773,0.0004531590758241411,1.918058408925693,3.77773440006103,15.609388199653536,174.05576864612422,22.965335160858867,13,1761939712.6478384
0.4604053497314453,0.012441257946193218,-0.5881330966949463,0.9641398191452026,0.5576905608177185,0.19979777932167053,-0.3364049792289734,0.9712666273117065,0.3868124485015869,0.21183928847312927,-0.30628740787506104,0.941860020160675,0.5184949636459351,0.554086446762085,0.0014892758335918188,0.7915908694267273,0.4357011318206787,0.5643998980522156,-0.001432101591490209,0.7927433252334595,0.5294885039329529,0.8300490379333496,-0.06014484167098999,0.4758913516998291,0.4443301260471344,0.8468649983406067,-0.007340435869991779,0.41214239597320557,0.5244966745376587,0.9664316773414612,0.42227181792259216,0.4823663532733917,0.4606815278530121,1.0037764310836792,0.4519382119178772,0.4978416860103607,0.5806066989898682,0.6605725884437561,-0.286278635263443,0.6744673252105713,0.3815155625343323,0.7016793489456177,-0.28474393486976624,0.6364008188247681,-179.21434719355315,0.4770980477333069,0.5592431724071503,93.17123508330205,107.70715984622701,1.4135847673936217,0.009648339976347948,0.5160983604163929,0.2815425228256216,-42.92589490387887,175.9691207900883,0.8531465361501438,14,1761939712.6804984
0.4571429193019867,-0.00733898626640439,-0.3764123022556305,0.9675452709197998,0.5562402606010437,0.1949041336774826,-0.2525020241737366,0.9741140007972717,0.3868527114391327,0.21086090803146362,-0.2228400707244873,0.9475971460342407,0.5172466039657593,0.5589599013328552,0.0021364802960306406,0.8124110698699951,0.44193539023399353,0.5711617469787598,-0.002169117797166109,0.813435435295105,0.5413399934768677,0.8517898321151733,-0.0011227073846384883,0.5081517100334167,0.4547327160835266,0.8407787084579468,0.046234339475631714,0.45418792963027954,0.5237740874290466,1.000569224357605,0.4787503778934479,0.4814904034137726,0.47713080048561096,0.9959864020347595,0.48376527428627014,0.5083009600639343,0.5801056623458862,0.6433466672897339,-0.16144132614135742,0.6816741824150085,0.37974560260772705,0.6703858375549316,-0.14431586861610413,0.6471123695373535,-178.72758596044594,0.4795909970998764,0.5650608241558075,106.34869247749535,119.78366517334615,1.3223989229213007,0.06866782796574551,0.16024613848901964,1.6256808510552312,-9.801883457489685,174.61846091253926,3.3281813331085233,15,1761939712.7168028
0.4566670060157776,-0.039610810577869415,-0.29633545875549316,0.9702670574188232,0.5543848872184753,0.18473902344703674,-0.20684771239757538,0.9765803813934326,0.38684889674186707,0.21045756340026855,-0.19827768206596375,0.9520835876464844,0.5157214999198914,0.5607233047485352,0.004148540087044239,0.8310716152191162,0.45317497849464417,0.5711413621902466,-0.004221124108880758,0.8318763971328735,0.5370875000953674,0.8444998264312744,0.025605961680412292,0.5209304690361023,0.45708075165748596,0.827506959438324,0.0688963383436203,0.46587055921554565,0.525392472743988,1.0038729906082153,0.48567184805870056,0.46879932284355164,0.4745759963989258,1.0152407884597778,0.45109328627586365,0.5101567506790161,0.5814226865768433,0.6278008222579956,-0.07811325788497925,0.6780291199684143,0.3797701299190521,0.6556768417358398,-0.04729549214243889,0.6284957528114319,-177.84949105213587,0.48444823920726776,0.5659323334693909,113.24178343101862,132.0754868326705,1.2990084312347605,0.15991169544740974,0.028692111459968604,3.0039601126673015,-4.331064221224936,171.27262347254774,4.767607380857723,16,1761939712.7471774
0.4533237814903259,-0.05226144939661026,-0.30923759937286377,0.9731367230415344,0.5521293878555298,0.1761482208967209,-0.21238060295581818,0.9788805842399597,0.3877573609352112,0.1999596655368805,-0.16874858736991882,0.9567937254905701,0.5157386064529419,0.569559633731842,0.0003353243228048086,0.8476993441581726,0.45092931389808655,0.5814186334609985,-0.0003933600091841072,0.8483474850654602,0.534237802028656,0.8704167604446411,-0.06002259999513626,0.5182890892028809,0.4550151824951172,0.8560552000999451,0.007135809399187565,0.46439048647880554,0.5331583023071289,1.0658605098724365,0.39463913440704346,0.4463581442832947,0.4721217751502991,1.0605390071868896,0.3976753354072571,0.48860877752304077,0.5817689895629883,0.620830774307251,-0.16099096834659576,0.6772012710571289,0.3797244131565094,0.6431242823600769,-0.12327997386455536,0.6294739246368408,-178.02052370378274,0.4833339601755142,0.5754891335964203,101.88745132849071,119.21657416816578,1.3207072619794562,-0.028801534479571084,0.2470211684229987,-4.8778003028018455,5.643300899342238,171.7572940773937,1.6707852197960347,17,1761939712.7858655
0.4540884494781494,-0.05237181484699249,-0.3917529881000519,0.9756069779396057,0.5496905446052551,0.166932612657547,-0.22390425205230713,0.9809145331382751,0.3886279761791229,0.19295336306095123,-0.1808728575706482,0.9608764052391052,0.5135050415992737,0.5646405220031738,-0.0004859886539634317,0.8625896573066711,0.4505573809146881,0.577739953994751,0.0003996666055172682,0.8630544543266296,0.5331283807754517,0.8700284957885742,-0.06300059705972672,0.5275220274925232,0.4580717980861664,0.8583754897117615,-4.041456486447714e-05,0.47234031558036804,0.5332995653152466,1.0725679397583008,0.39523619413375854,0.435293048620224,0.47194576263427734,1.080174207687378,0.3811815083026886,0.4797861874103546,0.581756591796875,0.6011645197868347,-0.1908722221851349,0.6752399206161499,0.3797905147075653,0.6406526565551758,-0.13690049946308136,0.6102629899978638,-178.1156607771311,0.4820312112569809,0.5711902379989624,102.25291565953944,120.12857744300237,1.3728643593838825,-0.04216178365573808,-0.13912819543360674,-0.4323871832390215,-12.497224680909696,170.82277362080575,1.832678045095169,18,1761939712.8167644
0.45354729890823364,-0.06020834296941757,-0.4012242257595062,0.9778535962104797,0.5473014712333679,0.15885215997695923,-0.22256219387054443,0.9827643036842346,0.3895474970340729,0.18461723625659943,-0.18697671592235565,0.96463543176651,0.5131765007972717,0.5639346837997437,-0.0009316625073552132,0.8760187029838562,0.44951051473617554,0.5795764327049255,0.0008231749525293708,0.8762287497520447,0.5327456593513489,0.8795828819274902,-0.07430939376354218,0.5190852284431458,0.45765915513038635,0.8467981815338135,0.00046172761358320713,0.458769828081131,0.5373491048812866,1.0988941192626953,0.36475512385368347,0.4166114032268524,0.4665035605430603,1.0920287370681763,0.3799360990524292,0.4550084173679352,0.5817487239837646,0.5902844667434692,-0.16846972703933716,0.6694961190223694,0.3792751431465149,0.6389769315719604,-0.1232791393995285,0.5992279052734375,-178.15022561651259,0.48134350776672363,0.5717555582523346,103.4627372482339,122.81069469937017,1.3915183950892485,-0.022952109459545483,0.018867567954675663,0.6411230291535697,5.273109860291286,170.7240992367541,1.9210656962856447,19,1761939712.846727
0.4525456428527832,-0.06589826941490173,-0.4851585030555725,0.9800271987915039,0.5454823970794678,0.15454404056072235,-0.23156952857971191,0.984463632106781,0.38989153504371643,0.17871907353401184,-0.1964467614889145,0.9681259989738464,0.5185202956199646,0.5673843622207642,-0.007238386664539576,0.8881426453590393,0.4468728005886078,0.5819805860519409,0.007215964607894421,0.888307511806488,0.5327181220054626,0.8599205017089844,-0.08108840882778168,0.5148058533668518,0.45702338218688965,0.836279571056366,-0.049728211015462875,0.4591171145439148,0.5378096699714661,1.0687389373779297,0.35479551553726196,0.40021947026252747,0.4637114107608795,1.0819404125213623,0.34341591596603394,0.4413522183895111,0.5813921689987183,0.5831060409545898,-0.20840653777122498,0.6853317022323608,0.37810832262039185,0.6323696374893188,-0.13665923476219177,0.6132184267044067,-177.89340467383238,0.4826965481042862,0.5746824741363525,101.44490034193063,109.3944642485227,1.4144771149727615,0.04689901740409567,0.10145261391997092,2.421176311990129,2.8625587874355136,171.16824941915974,2.547975135881542,20,1761939712.875577
0.45079144835472107,-0.05914270132780075,-0.4621945321559906,0.9819809198379517,0.5451121926307678,0.152588352560997,-0.22881701588630676,0.9859898686408997,0.3905542492866516,0.17663614451885223,-0.2023155391216278,0.9712646007537842,0.5244356989860535,0.565663754940033,-0.0044088782742619514,0.8992955088615417,0.44468894600868225,0.5790224075317383,0.004359573125839233,0.8994215130805969,0.5374777913093567,0.8481699824333191,-0.08514491468667984,0.5264149904251099,0.4535585939884186,0.827124297618866,-0.08728198707103729,0.4876843988895416,0.5350414514541626,0.9264051914215088,0.47157230973243713,0.37337931990623474,0.46579670906066895,0.8869688510894775,0.46093058586120605,0.4069151282310486,0.5800368189811707,0.560497522354126,-0.21156594157218933,0.6939064860343933,0.3780609667301178,0.6248488426208496,-0.1387963443994522,0.6269331574440002,-177.65048528230508,0.48456232249736786,0.5723430812358856,82.04710088680518,76.01274916158776,1.340634884136665,0.0507179335955981,-0.06359245481117586,0.10381080291699392,-4.486472141126035,171.15621455918,3.412787659503539,21,1761939712.9123642
0.44921812415122986,-0.05712229013442993,-0.47772663831710815,0.9837632775306702,0.5448657274246216,0.15049709379673004,-0.22810077667236328,0.987369954586029,0.39070141315460205,0.17475217580795288,-0.20056979358196259,0.9741081595420837,0.5268732309341431,0.5630216598510742,-0.006058798171579838,0.9092873334884644,0.44331708550453186,0.5778286457061768,0.005989978089928627,0.9093877673149109,0.5370764136314392,0.8416471481323242,-0.08510954678058624,0.5478591918945312,0.45195871591567993,0.8223392963409424,-0.1007196456193924,0.5209459662437439,0.5342230200767517,0.9298945665359497,0.4567985534667969,0.361474871635437,0.47438907623291016,0.8992602229118347,0.4203053116798401,0.38528937101364136,0.5799458026885986,0.5503530502319336,-0.2506929039955139,0.7153672575950623,0.37781938910484314,0.6109272241592407,-0.19608467817306519,0.6528962254524231,-177.5691895847711,0.48509515821933746,0.5704251527786255,83.4033325967399,74.92474441635156,1.336712899764864,0.012109664974289228,-0.043588427172682104,-0.8774434201092925,0.4546280642430353,171.05879724368694,1.7683862626341564,22,1761939712.956365
0.44919243454933167,-0.04157068580389023,-0.4828348755836487,0.9853696823120117,0.5450951457023621,0.15117701888084412,-0.2314906120300293,0.9886078834533691,0.39271849393844604,0.17586858570575714,-0.20130722224712372,0.9766668677330017,0.5289320945739746,0.5609205961227417,-0.007358429487794638,0.9182729721069336,0.4429057538509369,0.5746057629585266,0.007266834378242493,0.9183378219604492,0.5364055633544922,0.8412919044494629,-0.09147342294454575,0.5588337182998657,0.44961994886398315,0.8253434300422668,-0.09084448218345642,0.5441997051239014,0.5300385355949402,0.9033483862876892,0.44373375177383423,0.33939212560653687,0.47298383712768555,0.866913914680481,0.42131370306015015,0.35832497477531433,0.5801786184310913,0.551604151725769,-0.2625059485435486,0.7299793362617493,0.37776845693588257,0.593845784664154,-0.20901262760162354,0.6728135347366333,-177.59017898000204,0.48591892421245575,0.5677631795406342,79.90045301729302,73.36139393097612,1.3036084217501642,0.021142349255302225,-0.06832081971827539,0.2318281737501067,-0.6347687152497956,170.79562721754027,2.0015582089044233,23,1761939712.995328
0.44839566946029663,-0.03423546254634857,-0.48230940103530884,0.9868259429931641,0.5453354120254517,0.150628462433815,-0.23303715884685516,0.9897235035896301,0.39515167474746704,0.17604997754096985,-0.2029399871826172,0.9789734482765198,0.529488742351532,0.5594632625579834,-0.009298767894506454,0.9264053702354431,0.4426138401031494,0.5735344886779785,0.009100230410695076,0.9264624118804932,0.5359151363372803,0.7936090230941772,-0.13731229305267334,0.5959765911102295,0.4484483301639557,0.7958149313926697,-0.13465753197669983,0.5841265320777893,0.5291146039962769,0.820033609867096,0.466555118560791,0.35371023416519165,0.47319716215133667,0.8272567987442017,0.4334931969642639,0.3636147081851959,0.5801796913146973,0.549360454082489,-0.2782747745513916,0.7400373816490173,0.3776234984397888,0.5858846306800842,-0.21532706916332245,0.6958853602409363,-177.7546029194361,0.4860512912273407,0.566498875617981,63.83186089349714,60.37734464414959,1.2680649603074794,0.0044038034425319264,-0.04206294122313001,-0.5568854577352719,0.8735902657547573,170.39264261626553,1.7612795499011529,24,1761939713.0253854
0.44866687059402466,-0.0275059062987566,-0.493267297744751,0.9881322979927063,0.5454939603805542,0.1503647118806839,-0.24450859427452087,0.9907190203666687,0.39830440282821655,0.1768030971288681,-0.21937230229377747,0.9810468554496765,0.5294323563575745,0.558628499507904,-0.009272419847548008,0.9336497187614441,0.44305628538131714,0.5731233358383179,0.009075181558728218,0.9337263703346252,0.5354586839675903,0.771088719367981,-0.09612437337636948,0.6202397346496582,0.44821619987487793,0.7730728387832642,-0.11061286926269531,0.6149318218231201,0.5213415622711182,0.8543406128883362,0.4871022701263428,0.36810556054115295,0.47310543060302734,0.8464928269386292,0.40751489996910095,0.3972915709018707,0.5804235339164734,0.5443092584609985,-0.28140193223953247,0.7569273114204407,0.37971991300582886,0.5853196978569031,-0.23839011788368225,0.7173060774803162,-177.9577823785216,0.4862443208694458,0.565875917673111,75.86145084151048,67.2595794530678,1.2875515037541203,0.006256375185459941,-0.020190985101384767,0.060044580486909166,0.7089023325394145,169.8170425252009,2.6628910516654134,25,1761939713.0562387
0.44887346029281616,-0.027164410799741745,-0.4313288629055023,0.9893117547035217,0.5453099608421326,0.14898476004600525,-0.23875808715820312,0.9916194081306458,0.40273720026016235,0.17689001560211182,-0.2090774029493332,0.9829210042953491,0.5292764902114868,0.5541347861289978,-0.011101829819381237,0.9402220249176025,0.44472259283065796,0.5676254630088806,0.010805637575685978,0.9402928352355957,0.5318921804428101,0.7579941749572754,-0.018716659396886826,0.6519419550895691,0.4480602741241455,0.7608957886695862,0.06048106029629707,0.6463308334350586,0.520550012588501,0.8011605739593506,0.5221464037895203,0.4017069637775421,0.474825382232666,0.8150078058242798,0.49191102385520935,0.4339640140533447,0.5803908705711365,0.5427774786949158,-0.2719650864601135,0.7696437239646912,0.38364699482917786,0.5766754746437073,-0.22010588645935059,0.7376914024353027,-178.13238338295562,0.4869995415210724,0.5608801245689392,92.40780540784114,111.58055583800228,1.2571944943027664,0.023002977379180133,-0.1521649540684797,0.5100783600270824,-4.019744714676753,168.9257005087742,1.6824649893061516,26,1761939713.08907
0.4532009959220886,-0.026313243433833122,-0.3730328679084778,0.9903560280799866,0.5443769693374634,0.1498730629682541,-0.2292538583278656,0.992414653301239,0.4093877673149109,0.17728957533836365,-0.1999102383852005,0.9845828413963318,0.5220725536346436,0.5524330735206604,-0.01153932698071003,0.946140468120575,0.4545608162879944,0.5651715993881226,0.011236038990318775,0.9461767673492432,0.5157347917556763,0.7523982524871826,0.07721030712127686,0.6680548787117004,0.45017677545547485,0.7507559061050415,0.16974472999572754,0.6526081562042236,0.5145519375801086,0.7801290154457092,0.5072880983352661,0.40185755491256714,0.473834753036499,0.7882559299468994,0.5701956152915955,0.424193799495697,0.5798658132553101,0.542082667350769,-0.23815138638019562,0.7623080015182495,0.38869792222976685,0.5729326605796814,-0.19346341490745544,0.733208179473877,-178.34281235540726,0.48831668496131897,0.5588023364543915,117.61424033197,135.65233464795406,1.220628132245665,0.03565826927173092,-0.05625076648012961,0.3426094624382352,2.5966298153255183,168.5193005443142,1.0174181481208617,27,1761939713.126008
0.45509639382362366,-0.010215803980827332,-0.39745908975601196,0.9913120269775391,0.5462266802787781,0.15118864178657532,-0.2307019978761673,0.9931489825248718,0.4085147976875305,0.17742954194545746,-0.19589075446128845,0.9860941171646118,0.5243653059005737,0.5516018271446228,-0.014848778955638409,0.9514644742012024,0.4533556401729584,0.5602380633354187,0.014493873342871666,0.951492428779602,0.5160349607467651,0.7412785291671753,0.0027683726511895657,0.6838249564170837,0.44724732637405396,0.750906229019165,0.138182133436203,0.6653492450714111,0.504685640335083,0.7893280982971191,0.5190050005912781,0.40125802159309387,0.4646387994289398,0.8570472002029419,0.5009317994117737,0.4506513476371765,0.5798832178115845,0.5393275618553162,-0.2214200794696808,0.7811375260353088,0.39143961668014526,0.5738570690155029,-0.15084415674209595,0.7529594302177429,-178.31944271916635,0.48886047303676605,0.5559199452400208,100.66677752452313,139.07821150723632,1.23242042465033,0.016823625084825777,-0.08917494025314962,-0.5827030909901233,-1.0186026152367222,169.21166104795938,3.801933780256602,28,1761939713.158331
0.45917826890945435,-0.007826635614037514,-0.4601971507072449,0.9921679496765137,0.5462772250175476,0.1539730578660965,-0.2437112033367157,0.9938094615936279,0.41328173875808716,0.1797330230474472,-0.23766610026359558,0.9874571561813354,0.5229393243789673,0.549559473991394,-0.012268858030438423,0.9562898874282837,0.45417723059654236,0.558552622795105,0.011830227449536324,0.9563004374504089,0.5175178647041321,0.7519814968109131,0.11855825036764145,0.6961474418640137,0.44726866483688354,0.7460433840751648,0.19655902683734894,0.6712203621864319,0.5064407587051392,0.7914636135101318,0.5979230403900146,0.4067617356777191,0.46471571922302246,0.8165906071662903,0.6208545565605164,0.45086249709129333,0.5793773531913757,0.5366092920303345,-0.2240440398454666,0.7864559292793274,0.3937447667121887,0.5735795497894287,-0.20450064539909363,0.7630802989006042,-178.7011935110744,0.4885582774877548,0.5540560483932495,127.59760160987487,143.81910390885173,1.3430627557654315,-0.007043153554639313,-0.04344111534657317,-0.5562536819696546,1.0659003830861695,169.03808788115595,2.755450944218797,29,1761939713.2012372
0.4627602696418762,-0.004464749712496996,-0.4853387475013733,0.9929316639900208,0.546790599822998,0.15917769074440002,-0.26041179895401,0.9943984150886536,0.4183230996131897,0.18275724351406097,-0.24143700301647186,0.988682746887207,0.5220357179641724,0.5495849847793579,-0.014261183328926563,0.9606219530105591,0.45652714371681213,0.5589654445648193,0.013855923898518085,0.9606130719184875,0.5174707174301147,0.7539389133453369,0.09994865953922272,0.6992443799972534,0.4493069052696228,0.7411503195762634,0.2167496383190155,0.6660503149032593,0.49961334466934204,0.757047712802887,0.5933906435966492,0.4006715714931488,0.4689195156097412,0.7780163884162903,0.6591407060623169,0.44252780079841614,0.579617440700531,0.5362353324890137,-0.25704890489578247,0.7863988280296326,0.39767104387283325,0.5707714557647705,-0.23465366661548615,0.7666195631027222,-178.99493135909097,0.48928143084049225,0.5542752146720886,119.57976754800447,142.63089723194753,1.3535530896098633,0.01804808458984398,0.005469837794094896,0.626214048211682,1.2206940841954363,169.599415666206,7.6535821922295035,30,1761939713.2413054
0.4665774703025818,0.0017972897039726377,-0.4935053288936615,0.9936256408691406,0.5488415956497192,0.16167335212230682,-0.2637174725532532,0.9949338436126709,0.4227274954319,0.1843947470188141,-0.25204625725746155,0.9897806644439697,0.5220702886581421,0.5469064712524414,-0.012559778988361359,0.9645270705223083,0.45653247833251953,0.5512533187866211,0.012123693712055683,0.9644973278045654,0.5133809447288513,0.7155207991600037,0.16360341012477875,0.7046574950218201,0.4508301615715027,0.7243853807449341,0.2213793694972992,0.6709833741188049,0.4985118508338928,0.7655332088470459,0.6277567148208618,0.4271625280380249,0.47029614448547363,0.7781344056129456,0.645157516002655,0.4618340730667114,0.5795629024505615,0.5345486402511597,-0.2886545658111572,0.7906836271286011,0.40202611684799194,0.5721622705459595,-0.2684195637702942,0.7689368724822998,-179.46417677474233,0.4893013834953308,0.5490798950195312,142.425093569228,147.4090705200831,1.3675120288106786,0.0005034773401356043,-0.1310966255361902,-0.4427136269974001,-3.4460637075909983,169.78684829346034,1.5294293643452053,31,1761939713.280935
0.4719114303588867,0.005789071321487427,-0.47982293367385864,0.9942483305931091,0.5515648722648621,0.1638232171535492,-0.2632971704006195,0.9954087138175964,0.4278808534145355,0.1844112128019333,-0.228485107421875,0.9907454252243042,0.5233825445175171,0.5390672087669373,-0.017033889889717102,0.9680153727531433,0.45823463797569275,0.537315309047699,0.01664115861058235,0.9679422974586487,0.5101755261421204,0.7066942453384399,0.09670236706733704,0.7199611067771912,0.452647864818573,0.7160259485244751,0.1604321002960205,0.6829035878181458,0.4948452413082123,0.7655386328697205,0.5834197402000427,0.4526984691619873,0.4705210328102112,0.7702575922012329,0.5830352306365967,0.4791245460510254,0.579566478729248,0.5266728401184082,-0.27611273527145386,0.7897452712059021,0.4061187207698822,0.5509526133537292,-0.24710726737976074,0.7633012533187866,-179.82913511127492,0.4908085912466049,0.5381912589073181,131.07479022597744,135.97808760811654,1.308052909441128,0.03858169262505188,-0.278728669775163,0.9747309198690616,-3.779103542707446,170.54940036966494,0.8532638550482913,32,1761939713.3200004
0.4752812385559082,0.018744545057415962,-0.47461551427841187,0.9948208332061768,0.5548571348190308,0.1662699580192566,-0.22868914902210236,0.9958502650260925,0.4278394281864166,0.1843472570180893,-0.2314469814300537,0.9916595816612244,0.5262013077735901,0.5347510576248169,-0.006451624445617199,0.9711532592773438,0.4592054486274719,0.5321363806724548,0.006204601842910051,0.9710949063301086,0.510855495929718,0.702799379825592,0.11413571983575821,0.7351172566413879,0.45468443632125854,0.7115021347999573,0.14558878540992737,0.7029286026954651,0.4968283176422119,0.7765637040138245,0.5550011396408081,0.4814392030239105,0.47283029556274414,0.7847306728363037,0.5019353628158569,0.5132337212562561,0.579804539680481,0.52248215675354,-0.2539879083633423,0.8049047589302063,0.4114522337913513,0.5532193779945374,-0.2636258006095886,0.7825683951377869,-179.78320765383626,0.492703378200531,0.5334437191486359,135.16262192308105,139.2788135469569,1.259668148441176,0.04494577819251216,-0.11261523017758172,0.1509609181763427,3.9403362976919656,171.89999895765393,0.6577052253941891,33,1761939713.3621576
0.4751681685447693,0.019871719181537628,-0.4521157145500183,0.9953357577323914,0.5571992993354797,0.16744647920131683,-0.22109127044677734,0.9962378740310669,0.42953699827194214,0.18435147404670715,-0.2309117615222931,0.9924839735031128,0.5273677706718445,0.5292392373085022,-0.0002828662400133908,0.9739629626274109,0.4599885940551758,0.5303075313568115,4.144378544879146e-05,0.97393798828125,0.5135274529457092,0.6976948380470276,0.10253074020147324,0.7413719296455383,0.4574039578437805,0.7073388695716858,0.1365245282649994,0.7220621109008789,0.49828997254371643,0.7727659344673157,0.5356124639511108,0.49470505118370056,0.47641968727111816,0.7963281273841858,0.4506949782371521,0.5449641346931458,0.5808501839637756,0.5138368010520935,-0.23986145853996277,0.8172000050544739,0.4163355827331543,0.5550267100334167,-0.25284963846206665,0.7994475364685059,-179.9498025018142,0.49367818236351013,0.5297733843326569,131.26200692172478,143.24433457656727,1.2158993186400289,0.027038309438154693,-0.10180470320600994,-0.49670251710319363,0.2998534316406426,172.4567996094597,0.16402811440228435,34,1761939713.3982103
0.4786148965358734,0.01797383651137352,-0.449079692363739,0.995800793170929,0.5595974922180176,0.16775040328502655,-0.2083297222852707,0.9965966939926147,0.4315492510795593,0.1841074675321579,-0.21708261966705322,0.9932309985160828,0.5292438864707947,0.5209808945655823,0.00044755853014066815,0.9765084981918335,0.4616144597530365,0.5281070470809937,-0.0006201924988999963,0.9765206575393677,0.5180500745773315,0.6911932826042175,0.08418448269367218,0.751603364944458,0.4594098925590515,0.7070452570915222,0.07622683793306351,0.7447734475135803,0.5001043081283569,0.7681629657745361,0.5218902230262756,0.5061039924621582,0.47591084241867065,0.8669226169586182,0.3624195158481598,0.5814313292503357,0.5815675258636475,0.5078786015510559,-0.2245045155286789,0.8289535045623779,0.42052993178367615,0.5478971600532532,-0.2472786009311676,0.8155516386032104,179.9763006001914,0.4954291731119156,0.524543970823288,126.22994580434319,142.2776055814802,1.1973711956326052,0.0447775355912569,-0.13373014663292992,0.45363965009823,-0.8164193218138841,172.720380841479,0.19933215852480882,35,1761939713.4373145
0.48234766721725464,0.017970485612750053,-0.44405397772789,0.9962197542190552,0.5614543557167053,0.16829413175582886,-0.19660863280296326,0.9969218373298645,0.43490052223205566,0.18062523007392883,-0.19680087268352509,0.9939044117927551,0.5308728218078613,0.5170502662658691,0.00044407526729628444,0.9787822961807251,0.4637018144130707,0.5257285833358765,-0.0005430870223790407,0.9788447618484497,0.5192309617996216,0.6924858093261719,0.08111606538295746,0.7625530958175659,0.4604843258857727,0.7120361328125,0.03664236143231392,0.7666497230529785,0.5006357431411743,0.7867825031280518,0.4655911326408386,0.5230945944786072,0.4756430685520172,0.9255003929138184,0.28931924700737,0.6159586310386658,0.5818787217140198,0.5059502720832825,-0.20850594341754913,0.840078592300415,0.4225911498069763,0.5391887426376343,-0.22872504591941833,0.8300113081932068,179.8529960092814,0.497287318110466,0.5213894248008728,128.54869621661967,141.32098015384506,1.1736445027488454,0.04663853100109511,-0.07917756287887401,0.046710074930828994,1.3692431810155874,174.43480609682098,0.5177415028826535,36,1761939713.477156
0.48453444242477417,0.016338065266609192,-0.43590617179870605,0.9965962171554565,0.5639991760253906,0.16823019087314606,-0.19751884043216705,0.9972052574157715,0.43681129813194275,0.17814920842647552,-0.1758171021938324,0.9945074319839478,0.532265841960907,0.5123091340065002,-0.00977101270109415,0.9807723164558411,0.4650197923183441,0.5149012207984924,0.009840572252869606,0.9809100031852722,0.5205905437469482,0.689887523651123,0.03898083418607712,0.7709974646568298,0.460486501455307,0.7019909620285034,0.04346536472439766,0.7842515110969543,0.5028566122055054,0.8098820447921753,0.4127045273780823,0.5359268188476562,0.473425954580307,0.9194179177284241,0.293557733297348,0.643341600894928,0.5824704766273499,0.5079947710037231,-0.21863266825675964,0.8476372957229614,0.42310935258865356,0.5327610969543457,-0.20999355614185333,0.8427005410194397,179.70336741824735,0.49864281713962555,0.5136051774024963,123.23418508713203,141.03162677637187,1.1585447683544117,0.03316711975544873,-0.19046938442152425,-0.3296261380108016,-2.7231514693122234,175.54069247674067,0.7348807962939486,37,1761939713.5180247
0.4846467971801758,0.01569543033838272,-0.4530510902404785,0.9969344139099121,0.5648113489151001,0.16647526621818542,-0.20477016270160675,0.9974669814109802,0.4378742277622223,0.17546367645263672,-0.18869218230247498,0.995053768157959,0.5328633785247803,0.5019105076789856,-0.003181246342137456,0.9826554656028748,0.4655820429325104,0.5052098035812378,0.0031457755248993635,0.98281329870224,0.5218459367752075,0.6792605519294739,0.1646014004945755,0.7808451652526855,0.46095457673072815,0.6940491795539856,-0.030644480139017105,0.8039079308509827,0.5030102729797363,0.7901691794395447,0.6158231496810913,0.5544698238372803,0.4690137505531311,0.9250144362449646,0.15063343942165375,0.6741902232170105,0.5824950933456421,0.49928873777389526,-0.22317412495613098,0.8568500280380249,0.42458242177963257,0.5258458852767944,-0.2225484549999237,0.851913332939148,179.63477673969015,0.4992227107286453,0.5035601556301117,147.25051203550694,131.64198380221632,1.1866568938378292,0.01690142313144509,-0.2927695124662979,-0.4740756345223683,-2.9816121150923247,175.94964967668224,0.39339046848180376,38,1761939713.552335
0.4866579473018646,0.01539518404752016,-0.45562943816185,0.9972397089004517,0.5663182139396667,0.16578872501850128,-0.21020741760730743,0.9977027177810669,0.43992429971694946,0.171237051486969,-0.20770220458507538,0.9955461621284485,0.5330480337142944,0.49962255358695984,-0.00032940448727458715,0.9843576550483704,0.46621185541152954,0.5019760131835938,0.00021624988585244864,0.9845273494720459,0.5223871469497681,0.670415461063385,0.18313752114772797,0.7919320464134216,0.46186548471450806,0.6865020990371704,-0.005620692390948534,0.8222046494483948,0.5035803318023682,0.7703068256378174,0.6232706904411316,0.5761904716491699,0.4684895873069763,0.910308301448822,0.17105942964553833,0.7036508917808533,0.5825791358947754,0.4988306760787964,-0.25235170125961304,0.8647754788398743,0.4247051775455475,0.5181923508644104,-0.2657574415206909,0.8611197471618652,179.3980189977877,0.499629944562912,0.5007992833852768,149.8624340280388,139.8124454512708,1.1864818911926927,0.013749195041455366,-0.09321369636963696,-0.10642681225755662,6.7374849688278955,177.531740497111,0.5730643623567541,39,1761939713.5819538
0.4868156909942627,0.01518937386572361,-0.4180641174316406,0.9975127577781677,0.5669444799423218,0.16382133960723877,-0.21120662987232208,0.9979042410850525,0.44121670722961426,0.16785429418087006,-0.18032613396644592,0.9959836602210999,0.5329588055610657,0.4969288408756256,-0.0058814301155507565,0.9858731627464294,0.46601471304893494,0.49530142545700073,0.00572881568223238,0.9860626459121704,0.5212119817733765,0.6719589829444885,0.13610266149044037,0.803190290927887,0.4618363380432129,0.6855278611183167,0.019833924248814583,0.8380157351493835,0.5036699175834656,0.7665774822235107,0.5992096662521362,0.598518967628479,0.46846169233322144,0.9023985266685486,0.23379798233509064,0.7299045920372009,0.5827699899673462,0.48851656913757324,-0.24991795420646667,0.867346465587616,0.42402949929237366,0.5041152238845825,-0.22319452464580536,0.8616167902946472,179.2031231584931,0.4994867593050003,0.49611513316631317,140.62734515586735,139.55190124302547,1.1695103495717165,-0.00457606293812862,-0.1497009295946358,-0.5856575955867191,-1.805277569830429,178.16276015885606,0.8414610009940459,40,1761939713.6132438
0.4919329583644867,0.014459216967225075,-0.42003101110458374,0.9977522492408752,0.5677915811538696,0.1609334796667099,-0.21216261386871338,0.998043954372406,0.4438970983028412,0.16094650328159332,-0.18790331482887268,0.9963670372962952,0.5329270362854004,0.48491978645324707,-0.0058595542795956135,0.987144947052002,0.4658131003379822,0.4811896085739136,0.005701418966054916,0.9873899817466736,0.5190653800964355,0.6696634292602539,0.12019775807857513,0.8160330653190613,0.461637020111084,0.6684731841087341,0.09079106152057648,0.8505957722663879,0.5021078586578369,0.7833773493766785,0.4529711604118347,0.6285002827644348,0.4662700295448303,0.876359224319458,0.3763667345046997,0.7519378662109375,0.5826013684272766,0.474173903465271,-0.24843838810920715,0.8683054447174072,0.42320799827575684,0.4894968271255493,-0.22219614684581757,0.8656907677650452,178.84855152299446,0.4993700683116913,0.4830546975135803,143.22193998527092,150.4250601985956,1.1669087118646748,-0.003961196361223069,-0.4433499854319429,0.020872281381871336,-9.968220669601648,179.99397714775588,1.0504628420619793,41,1761939713.6427023
0.49420490860939026,0.014308826997876167,-0.4117404818534851,0.9979696869850159,0.5676261186599731,0.15596868097782135,-0.21179695427417755,0.9981746673583984,0.4468419551849365,0.15471409261226654,-0.1907976120710373,0.9967086911201477,0.5326058864593506,0.4653278887271881,-0.006189160980284214,0.9882513284683228,0.46563905477523804,0.462459534406662,0.006006945855915546,0.9885615706443787,0.5189016461372375,0.6548073291778564,0.0983767881989479,0.8305895924568176,0.46154943108558655,0.6556742191314697,0.09450773894786835,0.8629574775695801,0.5019639134407043,0.7930000424385071,0.3853789269924164,0.6602131724357605,0.4656289517879486,0.8560522198677063,0.3567253351211548,0.7731913924217224,0.5825384259223938,0.46462884545326233,-0.23570172488689423,0.8698259592056274,0.4225621223449707,0.4745800793170929,-0.21325473487377167,0.8692768216133118,178.49409175028222,0.4991224706172943,0.46389371156692505,144.65961465002707,151.93704858169588,1.126643107266892,-0.007021351398861439,-0.5433653807147784,-0.08677957969917897,-2.8362268771813044,-179.40488859362569,1.2614980699909253,42,1761939713.6779659
0.4959804117679596,0.013723178766667843,-0.3904791474342346,0.9981656670570374,0.567603349685669,0.15493202209472656,-0.20073024928569794,0.9983075857162476,0.4480753540992737,0.1494409739971161,-0.1788579523563385,0.9970207214355469,0.5325666666030884,0.4636619985103607,-0.008119548670947552,0.9892861247062683,0.4655150771141052,0.46010076999664307,0.007912390865385532,0.989621639251709,0.5170596241950989,0.6552918553352356,0.055039286613464355,0.8452627062797546,0.46127623319625854,0.648624062538147,0.08437404036521912,0.8746792674064636,0.5010122656822205,0.7970613241195679,0.36547738313674927,0.6904444694519043,0.4656727910041809,0.8311951756477356,0.3497546315193176,0.79311603307724,0.5813275575637817,0.4586641192436218,-0.22210466861724854,0.8733029961585999,0.4221413731575012,0.46982866525650024,-0.2051784247159958,0.8748908638954163,178.37265570080902,0.4990408718585968,0.4618813842535019,132.85257618451882,146.54516283975894,1.0956524789120061,-0.002255919109892428,-0.055633783089010756,0.13174746698581444,13.484065801308715,-177.36971380032688,1.5101056401200492,43,1761939713.7141368
0.5004380941390991,0.013647445477545261,-0.38836491107940674,0.9983437657356262,0.5679963231086731,0.15464593470096588,-0.1885453164577484,0.9984490871429443,0.44958049058914185,0.14778198301792145,-0.1740070879459381,0.9973040223121643,0.5324431657791138,0.4640914499759674,-0.0080644516274333,0.9902817010879517,0.4657110571861267,0.4587838053703308,0.007853535003960133,0.9905951619148254,0.5147193670272827,0.6528432369232178,0.04944493994116783,0.8590594530105591,0.461250364780426,0.6462791562080383,0.08614207804203033,0.8853998184204102,0.500937819480896,0.7985717058181763,0.39105167984962463,0.7184396386146545,0.4644520878791809,0.8041166663169861,0.3767950236797333,0.8111197352409363,0.5813380479812622,0.45102208852767944,-0.20172031223773956,0.8784247636795044,0.4218501150608063,0.46363547444343567,-0.19540418684482574,0.8807147145271301,178.20698854662842,0.49907711148262024,0.4614376276731491,130.0695800781794,141.12593860742803,1.1032724663908966,0.0010437194866548104,-0.012780413779843854,0.09503125915178887,1.2341986933381581,-176.6825729153324,1.8354671095418853,44,1761939713.7488585
0.5013914704322815,0.013054370880126953,-0.36763569712638855,0.9985008239746094,0.5683214068412781,0.15481899678707123,-0.17933501303195953,0.9985609650611877,0.448957622051239,0.14713576436042786,-0.17412731051445007,0.9975572228431702,0.5315299034118652,0.4654735028743744,-0.0074156769551336765,0.9911715388298035,0.46574530005455017,0.45884019136428833,0.007181241177022457,0.9914676547050476,0.5149194002151489,0.6470423936843872,0.05346859246492386,0.8702911138534546,0.46120086312294006,0.6410298943519592,0.08314772695302963,0.8942757844924927,0.5023300647735596,0.7978694438934326,0.3622695207595825,0.7427366971969604,0.46279722452163696,0.7715950012207031,0.3646097779273987,0.8259959816932678,0.5808961391448975,0.44697242975234985,-0.18211369216442108,0.8766342997550964,0.4222218096256256,0.4646022915840149,-0.19396047294139862,0.8804667592048645,178.15903610882006,0.4986376017332077,0.46215684711933136,134.57443580289873,137.49162391447715,1.0631614910297358,-0.011638524284839417,0.019045431874285788,-0.33583464830548027,0.8427705597571742,-176.3170544531778,1.819360859613204,45,1761939713.7866218
0.5046552419662476,0.010189419612288475,-0.3746427893638611,0.9986453056335449,0.5682961344718933,0.15482546389102936,-0.17994588613510132,0.9986864924430847,0.45006972551345825,0.14521275460720062,-0.18554002046585083,0.9977842569351196,0.5295472145080566,0.4627586305141449,-0.009004196152091026,0.992016077041626,0.4657067358493805,0.45508918166160583,0.008711079135537148,0.9922594428062439,0.5141082406044006,0.6380856037139893,0.06049162149429321,0.8804409503936768,0.4608176648616791,0.6196494102478027,0.11872319132089615,0.8995862603187561,0.499761164188385,0.7881602048873901,0.40029364824295044,0.7642712593078613,0.46292489767074585,0.730623722076416,0.4523940980434418,0.8358466625213623,0.5807684659957886,0.4449782371520996,-0.19469255208969116,0.8802242875099182,0.4236733317375183,0.45410779118537903,-0.19783394038677216,0.8847216963768005,177.85759612890652,0.49762697517871857,0.45892390608787537,135.47018171581595,142.12132995954394,1.0970084523094228,-0.03181383218252777,-0.10177077078955268,-0.6351048830419233,-3.803211363687694,-175.3516412078211,1.8879435459210887,46,1761939713.8183887
0.505845844745636,0.008035807870328426,-0.42257222533226013,0.9987777471542358,0.5672934651374817,0.15492407977581024,-0.20524434745311737,0.9988083839416504,0.4503878951072693,0.14374108612537384,-0.21076543629169464,0.9979965686798096,0.5276592373847961,0.4558490216732025,-0.009756683371961117,0.9927974343299866,0.46566858887672424,0.44960203766822815,0.009442486800253391,0.9929975867271423,0.513154149055481,0.6337841153144836,0.06428401172161102,0.8910560011863708,0.46064814925193787,0.609611451625824,0.17299552261829376,0.9050084948539734,0.4994155466556549,0.780159056186676,0.387258380651474,0.7859126329421997,0.46395745873451233,0.7010583281517029,0.5429463386535645,0.8442328572273254,0.5802799463272095,0.44421830773353577,-0.2318580597639084,0.8847439289093018,0.42519211769104004,0.44634759426116943,-0.2275860607624054,0.8908039331436157,177.70165025306775,0.4966639131307602,0.45272552967071533,136.99726533780412,149.46222474887014,1.1511789059247777,-0.028735887713507244,-0.18494742795353172,0.09183984234212857,-2.4818287520684215,-174.53580666966963,2.334661117890188,47,1761939713.851903
0.5057064294815063,0.00801645964384079,-0.4229830801486969,0.998895525932312,0.5655394792556763,0.15499652922153473,-0.21069686114788055,0.9989134669303894,0.4505881369113922,0.14298906922340393,-0.22041448950767517,0.9981839060783386,0.5272356867790222,0.44610124826431274,-0.00966454204171896,0.9934912919998169,0.4657208025455475,0.44123727083206177,0.009355848655104637,0.9936358332633972,0.5133405327796936,0.6283551454544067,0.0782131478190422,0.89988774061203,0.4606707990169525,0.6015742421150208,0.1605680137872696,0.9073054790496826,0.49922651052474976,0.7781068682670593,0.37589865922927856,0.8049794435501099,0.4722174108028412,0.66881263256073,0.49535536766052246,0.8472216129302979,0.5801666975021362,0.43996983766555786,-0.23132193088531494,0.8843873739242554,0.4264872074127197,0.44603440165519714,-0.23100996017456055,0.89458167552948,177.74850636113706,0.49647824466228485,0.44366925954818726,142.47662712187605,144.53360051218564,1.1177968393776285,-0.004554093567251462,-0.22213304093567252,0.5931333094433755,-0.91209219458155,-174.036687225237,9.018071313074113,48,1761939713.8926725
0.504613995552063,0.011068913154304028,-0.39797839522361755,0.999001681804657,0.5639172196388245,0.1545156091451645,-0.2077234983444214,0.9990103244781494,0.45020851492881775,0.1432534158229828,-0.21553578972816467,0.9983543753623962,0.527152419090271,0.447654128074646,-0.010563048534095287,0.9941099286079407,0.46559205651283264,0.44100821018218994,0.010245043784379959,0.994208812713623,0.5134339928627014,0.628692090511322,0.07311607152223587,0.9087551832199097,0.4597288966178894,0.5958796739578247,0.13995473086833954,0.9125863909721375,0.5010835528373718,0.7694635391235352,0.35792845487594604,0.8228382468223572,0.4738062918186188,0.6694767475128174,0.46759891510009766,0.8535569906234741,0.5769123435020447,0.4394568204879761,-0.23012420535087585,0.8883269429206848,0.42793816328048706,0.4444691836833954,-0.22911135852336884,0.8998718857765198,177.927677256021,0.4963722378015518,0.44433116912841797,141.12984496131727,142.39462468577034,1.0767682204629543,-0.0025225519119482583,0.01575087938273006,0.048342807732922106,5.660714163889466,-174.34363026317592,12.36657795919704,49,1761939713.9346962
0.5052484273910522,0.01293219719082117,-0.3887934982776642,0.9990997910499573,0.5625542998313904,0.15456095337867737,-0.18897995352745056,0.9991004467010498,0.4499080777168274,0.14389215409755707,-0.20651236176490784,0.9985112547874451,0.526887834072113,0.44780632853507996,-0.007158984430134296,0.9946743249893188,0.4656769335269928,0.44249796867370605,0.006849855184555054,0.9947433471679688,0.5135352611541748,0.6291033029556274,0.06906386464834213,0.9160429835319519,0.4596618115901947,0.6022729873657227,0.05303269624710083,0.9181289076805115,0.5020972490310669,0.7701131105422974,0.36938366293907166,0.8383870124816895,0.48359251022338867,0.6482822895050049,0.454385906457901,0.850494384765625,0.5749313235282898,0.4387044608592987,-0.2247803658246994,0.8936949372291565,0.42995256185531616,0.44655880331993103,-0.2274089753627777,0.9052339792251587,178.07448245847854,0.4962823837995529,0.445152148604393,137.97009477763274,112.47108906764329,1.0611433509483155,-0.002148072363321326,0.01962654176736127,0.008952402242967351,0.09265255940511277,-174.58961700734906,1.5924857284774638,50,1761939713.9765263
0.5049642324447632,0.013015426695346832,-0.3919738233089447,0.9991863369941711,0.5612365007400513,0.15565401315689087,-0.19225803017616272,0.999177098274231,0.4497458040714264,0.14419567584991455,-0.20949725806713104,0.99864661693573,0.5268914103507996,0.4438449740409851,-0.0027770125307142735,0.9951919317245483,0.46600446105003357,0.437714159488678,0.0025036486331373453,0.9952250719070435,0.5135585069656372,0.6306470632553101,0.07260212302207947,0.9232020378112793,0.46074461936950684,0.60299152135849,0.07572518289089203,0.9225514531135559,0.5034164190292358,0.7714242935180664,0.32593828439712524,0.8527988791465759,0.4819023609161377,0.6343403458595276,0.48690587282180786,0.8368168473243713,0.5733469128608704,0.4386458098888397,-0.22073522210121155,0.8971668481826782,0.43102604150772095,0.44670918583869934,-0.23448248207569122,0.9080292582511902,178.21914087877352,0.49644793570041656,0.44077956676483154,141.04722116709354,118.10355903592905,1.0552268738981263,0.004050156319264599,-0.10697334114929656,0.15163700891419285,-3.097211890278281,-174.1320894635488,1.6415866799308279,51,1761939714.0174017
0.5047094225883484,0.01731044240295887,-0.3905055522918701,0.9992654323577881,0.5584143996238708,0.1584412157535553,-0.19399987161159515,0.9992493391036987,0.44951850175857544,0.14530158042907715,-0.20771071314811707,0.9987689852714539,0.5260710716247559,0.44066017866134644,-0.0029970654286444187,0.9956566095352173,0.46632200479507446,0.4351264536380768,0.0027297388296574354,0.9956560730934143,0.5138927698135376,0.6311905980110168,0.0693659782409668,0.9297139644622803,0.46191176772117615,0.597349226474762,0.08208565413951874,0.9264172911643982,0.5034915208816528,0.7761818766593933,0.2919815480709076,0.8660805225372314,0.4797932505607605,0.6329302787780762,0.46601828932762146,0.8273470997810364,0.5696243047714233,0.4398244619369507,-0.22080841660499573,0.9010747671127319,0.4316118359565735,0.44788792729377747,-0.23185646533966064,0.9104546308517456,178.44391739445348,0.49619653820991516,0.4378933161497116,143.89877539158076,121.23747492894921,1.0318022972441765,-0.006307727049758923,-0.07241791093882727,-0.25988605126777475,0.8670182881297166,-173.11981818613518,2.0768964395278697,52,1761939714.0572572
0.5045419335365295,0.018837405368685722,-0.3827274739742279,0.9993351101875305,0.5557112097740173,0.16050267219543457,-0.19438959658145905,0.9993123412132263,0.4493914246559143,0.1471581757068634,-0.20663511753082275,0.9988746047019958,0.5250434875488281,0.4362547993659973,-0.0013191992184147239,0.9960764050483704,0.46667537093162537,0.4307399392127991,0.0010453863069415092,0.9960386753082275,0.5139492750167847,0.625261127948761,0.08367099612951279,0.9351934790611267,0.4655308723449707,0.5863372087478638,0.10013438761234283,0.9270070195198059,0.5037513971328735,0.7790858745574951,0.28397756814956665,0.8778078556060791,0.47873011231422424,0.6176042556762695,0.4630581736564636,0.8090540170669556,0.5685321092605591,0.4395265281200409,-0.22086496651172638,0.9045228958129883,0.4330499768257141,0.4444634020328522,-0.2303856909275055,0.9118189811706543,178.6292846042488,0.49585942924022675,0.4334973692893982,151.75419572644478,127.36783086578356,1.0167667395537612,-0.006805530821176051,-0.088745048444622,-0.010049625533275649,-0.32961103829413735,-172.84605486338944,4.456264535933333,53,1761939714.1067917
0.50281822681427,0.02145027182996273,-0.3605583906173706,0.9994003176689148,0.5531826615333557,0.16249537467956543,-0.18017889559268951,0.9993746280670166,0.44902077317237854,0.1487015187740326,-0.18323089182376862,0.9989755153656006,0.5249310731887817,0.4385831654071808,-0.0016684957081452012,0.9964566230773926,0.4670773446559906,0.43366873264312744,0.0013964761747047305,0.996399462223053,0.5143636465072632,0.6244633793830872,0.08147930353879929,0.9404111504554749,0.4666144847869873,0.5915355086326599,0.08473790436983109,0.9310200214385986,0.5045540928840637,0.7791793942451477,0.2985559403896332,0.8886210322380066,0.48050203919410706,0.6245735883712769,0.461033433675766,0.8023461103439331,0.5690699219703674,0.44036364555358887,-0.20204861462116241,0.9092789888381958,0.4333508014678955,0.4438527822494507,-0.20831653475761414,0.9121902585029602,178.95898413786392,0.49600420892238617,0.4361259490251541,149.59514784570572,122.81604634972884,1.0055885874194144,0.004002913606939921,0.07267578871735376,0.2988352276082355,4.463013427587135,-172.45637954946065,2.4987781622840726,54,1761939714.1429603
0.501024603843689,0.03541501984000206,-0.3671617805957794,0.9994593262672424,0.5511521100997925,0.16595609486103058,-0.1808798760175705,0.9994304776191711,0.44848257303237915,0.15273642539978027,-0.1854969561100006,0.9990696907043457,0.5239744782447815,0.4396287798881531,-0.0018255651229992509,0.996795654296875,0.4673782289028168,0.43503299355506897,0.001560718985274434,0.9967178702354431,0.5143826007843018,0.6241739392280579,0.07511542737483978,0.9450639486312866,0.46779757738113403,0.5935023427009583,0.06681162863969803,0.9344070553779602,0.5055761933326721,0.7803617119789124,0.2638196051120758,0.8983280062675476,0.48182764649391174,0.6283970475196838,0.4206698536872864,0.7938080430030823,0.5661446452140808,0.44172918796539307,-0.20351263880729675,0.9133577346801758,0.4330058991909027,0.4441032111644745,-0.21149806678295135,0.9153252243995667,179.14655860492886,0.49567635357379913,0.437330886721611,152.2607307194483,117.9935937760513,0.9751023192223153,-0.009910382253740378,0.03642274928651734,-0.42056986711662797,-1.0958536445048497,-172.6629979542787,1.5848664765552052,55,1761939714.1760423
0.5001793503761292,0.040320586413145065,-0.3669678270816803,0.9995130896568298,0.5488594770431519,0.16875052452087402,-0.1661846935749054,0.9994845390319824,0.44717663526535034,0.15922869741916656,-0.1831659972667694,0.9991570115089417,0.5229792594909668,0.44019436836242676,-0.0019201401155442,0.997105062007904,0.46792739629745483,0.4358324408531189,0.0016799939330667257,0.997018039226532,0.5145230293273926,0.6241127252578735,0.06666768342256546,0.949774444103241,0.4676143229007721,0.5942860245704651,0.06212661787867546,0.9387125968933105,0.507333517074585,0.7798427939414978,0.27904847264289856,0.9074142575263977,0.48249363899230957,0.6383167505264282,0.4131149351596832,0.7988203167915344,0.5643338561058044,0.443559855222702,-0.2038538157939911,0.9192464351654053,0.4331895709037781,0.4450029730796814,-0.23992189764976501,0.9201093316078186,179.4637552737008,0.4954533278942108,0.4380134046077728,146.7104252131229,117.99851313576494,0.9776022762929326,-0.004448871418787809,0.013614729578054256,0.10894512013984753,-0.4549697917631433,-174.65028534896183,0.6668730284374477,56,1761939714.2261732
0.49855145812034607,0.04806603491306305,-0.37031933665275574,0.9995614886283875,0.5457718372344971,0.17153280973434448,-0.1708356738090515,0.9995332360267639,0.44528961181640625,0.16246648132801056,-0.1822013109922409,0.9992346167564392,0.5207722187042236,0.44081830978393555,-0.00470839673653245,0.9973832368850708,0.4684016704559326,0.4360883831977844,0.004491813946515322,0.9972821474075317,0.5141011476516724,0.6202111840248108,0.06433045119047165,0.9539211392402649,0.4679550528526306,0.5934964418411255,0.06908594071865082,0.9422560334205627,0.5082102417945862,0.7775158286094666,0.26819419860839844,0.9157006740570068,0.48523253202438354,0.640813946723938,0.40968984365463257,0.8053385019302368,0.5607260465621948,0.4437173306941986,-0.20537099242210388,0.9232962727546692,0.43331798911094666,0.4407997131347656,-0.23609881103038788,0.9226710200309753,179.80079700668279,0.4945869445800781,0.43845334649086,148.70770181474597,120.16892935346905,0.9695910044543539,-0.02204111774267899,0.011192287163063785,-0.4475533707285954,-0.061627847192688656,-174.84426695425762,0.16574155854238393,57,1761939714.2654808
0.4962185323238373,0.05020802468061447,-0.3724742531776428,0.9996049404144287,0.5440036654472351,0.17201030254364014,-0.18397103250026703,0.9995774030685425,0.4435121417045593,0.16506068408489227,-0.1841079145669937,0.999303936958313,0.5189708471298218,0.4411402940750122,-0.00928474124521017,0.9976323246955872,0.4683972895145416,0.43563127517700195,0.009067786857485771,0.9975162744522095,0.5139219760894775,0.6132791042327881,0.06409148871898651,0.9576956629753113,0.46794024109840393,0.5859895348548889,0.10881779342889786,0.9443437457084656,0.5084547400474548,0.7671210169792175,0.25890737771987915,0.9231671094894409,0.4862022399902344,0.6435726881027222,0.4107418656349182,0.8138436079025269,0.5559253096580505,0.44432827830314636,-0.2377704679965973,0.9274967312812805,0.43335437774658203,0.44173330068588257,-0.23464533686637878,0.9245712757110596,179.9843229803791,0.4936840683221817,0.4383857846260071,151.38922942126675,134.24697899567252,0.9640953345740931,-0.02578726685869543,-0.0019296507391745486,-0.10699466964858885,-0.37477883755258556,-176.0439365999734,0.011539676804532554,58,1761939714.3004932
0.4932229518890381,0.05551069602370262,-0.37527650594711304,0.9996440410614014,0.5421019196510315,0.17281366884708405,-0.18837757408618927,0.9996169209480286,0.44251441955566406,0.16863897442817688,-0.18418236076831818,0.9993675351142883,0.5187934041023254,0.43563559651374817,-0.012301293201744556,0.9978567957878113,0.468852698802948,0.43244853615760803,0.012089012190699577,0.997731626033783,0.5139365792274475,0.6102316975593567,0.039487574249506,0.9611406326293945,0.4684721827507019,0.5857921838760376,0.09700518846511841,0.9470720887184143,0.5097660422325134,0.7675809264183044,0.21858546137809753,0.9299288392066956,0.48760780692100525,0.6448193192481995,0.3998412489891052,0.8203930258750916,0.5520031452178955,0.4440276324748993,-0.23416189849376678,0.931126058101654,0.43413710594177246,0.44234004616737366,-0.2300982028245926,0.9273549318313599,-179.6703752791385,0.4938230514526367,0.4340420663356781,147.82466651555796,129.90239919449704,0.9444326101686752,0.004405047077848475,-0.13767342481901854,0.9569403412071111,-4.302376219249671,-177.5995741498639,0.2024284126281994,59,1761939714.3320441
0.4921536445617676,0.05651368200778961,-0.3673364222049713,0.9996788501739502,0.541119396686554,0.17240776121616364,-0.18724967539310455,0.9996523857116699,0.4419490694999695,0.17061303555965424,-0.1734747290611267,0.9994213581085205,0.5190368294715881,0.4343559145927429,-0.014395241625607014,0.9980550408363342,0.4701022207736969,0.4324776530265808,0.014235149137675762,0.997913658618927,0.5141927599906921,0.6016937494277954,0.033994387835264206,0.9639742970466614,0.4720582067966461,0.5824775099754333,0.10078611224889755,0.9479857087135315,0.5104681253433228,0.7633877992630005,0.20895321667194366,0.9356573820114136,0.48945552110671997,0.645708441734314,0.4018247723579407,0.8244643807411194,0.5489588975906372,0.44226783514022827,-0.23288364708423615,0.9335988163948059,0.43655723333358765,0.4419400095939636,-0.21629884839057922,0.9263343214988708,-179.33601604524532,0.4945695251226425,0.43341678380966187,148.86968383569382,131.81032186371732,0.9341140655322521,0.022592833793954437,-0.018924852613273105,0.5504730560070291,3.5940541011888127,-178.9632082050976,0.4439287945675362,60,1761939714.3650844
0.49122390151023865,0.0562923438847065,-0.3618244528770447,0.9997102618217468,0.5400640368461609,0.17232900857925415,-0.18096081912517548,0.9996835589408875,0.4412069320678711,0.17153771221637726,-0.17341585457324982,0.999468982219696,0.5189330577850342,0.43151402473449707,-0.013652190566062927,0.9982332587242126,0.47020864486694336,0.4295482337474823,0.01346440427005291,0.9980794787406921,0.5144023299217224,0.5974053144454956,0.04214227944612503,0.9667935371398926,0.4727409780025482,0.5766372084617615,0.11013080924749374,0.9498314261436462,0.5110138058662415,0.753857433795929,0.21900475025177002,0.9410361051559448,0.4885396957397461,0.6472029685974121,0.40391531586647034,0.8320053219795227,0.5464542508125305,0.439789742231369,-0.2298388034105301,0.9360978603363037,0.43745455145835876,0.4388025999069214,-0.21700260043144226,0.9264606833457947,-179.12813436282576,0.49457085132598877,0.4305311292409897,150.0819663204048,136.79127483394737,0.9318946115453511,2.954219554941845e-05,-0.06428016623293856,-0.5026146062157129,-1.0103243578321595,-179.54138881781938,0.6341130294751278,61,1761939714.4099762
0.4895496964454651,0.0570516474545002,-0.3562665581703186,0.9997386336326599,0.5392686128616333,0.17225982248783112,-0.1755799949169159,0.9997132420539856,0.44033128023147583,0.1712859869003296,-0.15846535563468933,0.9995114803314209,0.5190587639808655,0.42548421025276184,-0.013105305843055248,0.9983965754508972,0.4708145260810852,0.4244890809059143,0.012918154709041119,0.9982362985610962,0.5144225358963013,0.59384685754776,0.029132619500160217,0.9692859053611755,0.4727908968925476,0.5760359168052673,0.07552368193864822,0.9526306986808777,0.5113512277603149,0.7535189390182495,0.19730472564697266,0.945881724357605,0.48860034346580505,0.648238480091095,0.3778485953807831,0.8381019234657288,0.5443598031997681,0.4350685477256775,-0.23797504603862762,0.9387490749359131,0.43736186623573303,0.4312776029109955,-0.20441672205924988,0.9206358790397644,-178.83785618885824,0.49493664503097534,0.4249866455793381,147.5936922625717,125.86401523070045,0.910580078561735,0.009533115031160874,-0.14449729400580344,0.24767690590035024,-2.0905748133531232,-179.43605850496468,0.8063803246271529,62,1761939714.448347
0.48425596952438354,0.056814178824424744,-0.3468402922153473,0.9997637867927551,0.5372886061668396,0.17128385603427887,-0.1749749779701233,0.9997391104698181,0.43987971544265747,0.17080485820770264,-0.15191107988357544,0.9995481967926025,0.518744707107544,0.42329052090644836,-0.010653326287865639,0.9985423684120178,0.4707077443599701,0.4205372631549835,0.010553895495831966,0.9983757734298706,0.5144306421279907,0.5859058499336243,0.03674076870083809,0.9711728096008301,0.47251081466674805,0.5713943243026733,0.07280774414539337,0.9548159837722778,0.511482298374176,0.7456510066986084,0.21282312273979187,0.9497157335281372,0.48843711614608765,0.6450001001358032,0.37922659516334534,0.8403732776641846,0.5428252816200256,0.4313203692436218,-0.24036069214344025,0.9414809942245483,0.4371775984764099,0.42386242747306824,-0.19252879917621613,0.9140233993530273,-178.59750165276205,0.494726225733757,0.42191389203071594,148.45843577445683,125.91482776236775,0.9062113359741741,-0.00655585639791416,-0.09573518815646774,-0.5012704997760776,1.51923976476573,-179.71825638863245,0.9463921314520464,63,1761939714.4804435
0.4838290810585022,0.055559273809194565,-0.34608739614486694,0.9997855424880981,0.5354576110839844,0.1670370250940323,-0.17511504888534546,0.9997593760490417,0.4397245943546295,0.1687311977148056,-0.15810012817382812,0.9995768666267395,0.5181280374526978,0.4135168194770813,-0.008713376708328724,0.9986698031425476,0.4706665873527527,0.41210734844207764,0.008635910227894783,0.9984920620918274,0.5144454836845398,0.5745086073875427,0.030258283019065857,0.9721663594245911,0.47378143668174744,0.5569639205932617,0.07781179994344711,0.9537559151649475,0.5114089250564575,0.741184651851654,0.1721530258655548,0.9523046016693115,0.48810186982154846,0.6458823084831238,0.3645527958869934,0.8393293619155884,0.5416499376296997,0.4224807024002075,-0.24368882179260254,0.9431651830673218,0.43706226348876953,0.41794413328170776,-0.19941827654838562,0.9116846323013306,-178.40823915176028,0.4943973124027252,0.41281208395957947,153.19663707881563,132.75626294169788,0.8858903015746666,-0.01112783728846371,-0.3079335183183571,-0.15467983397450707,-7.179120662327045,178.98615114348866,1.2061466174111732,64,1761939714.5100012
0.48265519738197327,0.054816119372844696,-0.3250093460083008,0.9998055696487427,0.5344506502151489,0.16450755298137665,-0.16636142134666443,0.9997765421867371,0.4387979507446289,0.1683039665222168,-0.15442636609077454,0.9996082782745361,0.5175321102142334,0.4157176911830902,-0.005318031180649996,0.9987828731536865,0.47032928466796875,0.41375046968460083,0.005215905606746674,0.9986070990562439,0.515001118183136,0.571564793586731,0.04364725202322006,0.9733098149299622,0.4738249182701111,0.5568292140960693,0.11804679781198502,0.9537820816040039,0.5134901404380798,0.7302647829055786,0.2008967399597168,0.9550601840019226,0.4884513318538666,0.6606566309928894,0.36195650696754456,0.8482513427734375,0.5404648184776306,0.4196973145008087,-0.22314941883087158,0.9444149732589722,0.4369890093803406,0.41882357001304626,-0.195815771818161,0.911063551902771,-178.31471105196965,0.4939306974411011,0.4147340804338455,152.69931595797019,151.26327396721408,0.8823409384248806,-0.015355540037974486,0.0632497803128972,-0.13912682656553774,12.215039105734338,177.72714867351905,1.1139977433175878,65,1761939714.5403886
0.480846107006073,0.054555363953113556,-0.3276922106742859,0.9998231530189514,0.5331331491470337,0.16208526492118835,-0.1601458340883255,0.9997889995574951,0.43718084692955017,0.16654056310653687,-0.15273365378379822,0.9996381402015686,0.5172646641731262,0.41434958577156067,-0.0025388647336512804,0.9988821148872375,0.47026991844177246,0.41405248641967773,0.002429292071610689,0.998708963394165,0.5151053667068481,0.5674014091491699,0.04230017215013504,0.9730851650238037,0.4748494029045105,0.5557056665420532,0.09930568933486938,0.9514333009719849,0.5132871866226196,0.7303934693336487,0.19574089348316193,0.9558987617492676,0.48937708139419556,0.6646907925605774,0.3522309362888336,0.8459977507591248,0.5403456091880798,0.41690385341644287,-0.22860415279865265,0.9442560076713562,0.4363357126712799,0.41961124539375305,-0.1981787383556366,0.9128768444061279,-178.02656340081236,0.49376729130744934,0.4142010360956192,153.05442323497,147.67006516554224,0.8808338246283873,-0.004755222679368075,-0.015511930119127737,0.308475994050359,-2.2920159931720723,177.34152738189243,1.3547251464015213,66,1761939714.574752
0.48002997040748596,0.047028299421072006,-0.318085253238678,0.999839723110199,0.5316347479820251,0.15903107821941376,-0.14743860065937042,0.9998018741607666,0.43657082319259644,0.16275975108146667,-0.14989998936653137,0.9996669888496399,0.5170528292655945,0.40255287289619446,0.0008667760412208736,0.9989685416221619,0.47010621428489685,0.4031568169593811,-0.0009566706721670926,0.9988104104995728,0.51512211561203,0.5591481328010559,0.023480050265789032,0.9711818695068359,0.47584372758865356,0.5442482233047485,0.025907129049301147,0.9520728588104248,0.5131271481513977,0.7225161790847778,0.18073035776615143,0.9556125402450562,0.491180419921875,0.6685922741889954,0.24991042912006378,0.8542108535766602,0.5409599542617798,0.40768224000930786,-0.20649945735931396,0.944461464881897,0.43550124764442444,0.41131460666656494,-0.1905011236667633,0.9122391939163208,-177.75706367388042,0.49357952177524567,0.4028548449277878,144.30947052764,129.86799961924996,0.8399981698269605,-0.004879025263601333,-0.2948207448983385,-0.0032169006818315925,-7.257592579908702,177.75385074272728,1.4204034148518958,67,1761939714.6132371
0.4795612692832947,0.04509257897734642,-0.3279256522655487,0.9998542070388794,0.5309761762619019,0.1564376950263977,-0.1481122225522995,0.9998142719268799,0.4355180263519287,0.16047842800617218,-0.153257817029953,0.9996916651725769,0.5170496702194214,0.40294966101646423,7.228565664263442e-05,0.999045729637146,0.4694741666316986,0.4035632312297821,-0.00017170322826132178,0.9988951683044434,0.51522296667099,0.5585569739341736,0.032605431973934174,0.9714764356613159,0.4756621718406677,0.5454012155532837,0.04947642236948013,0.9525291919708252,0.5130114555358887,0.712888777256012,0.21347646415233612,0.9569831490516663,0.49125728011131287,0.6698183417320251,0.29746213555336,0.8628409504890442,0.5412445664405823,0.40867552161216736,-0.21268311142921448,0.9456780552864075,0.4342527389526367,0.41374465823173523,-0.19415441155433655,0.9123744964599609,-177.65730907458635,0.49326191842556,0.40325644612312317,142.28193171148655,135.9806847182378,0.8709262137938594,-0.008763576677389856,0.011081315334162243,-0.10718578442478872,8.440704933597917,177.57612298472887,1.496357169162306,68,1761939714.6494784
0.4792214035987854,0.04506123811006546,-0.32921120524406433,0.99986732006073,0.5306713581085205,0.15549145638942719,-0.1555040180683136,0.9998208284378052,0.4349815845489502,0.15969489514827728,-0.15494777262210846,0.9997143745422363,0.5165510773658752,0.39716005325317383,-0.0005207397043704987,0.9990986585617065,0.46871423721313477,0.3995310068130493,0.0004157559887971729,0.9989647269248962,0.5152612328529358,0.5488675236701965,0.034706901758909225,0.9701631665229797,0.475469172000885,0.5406993627548218,0.05304143577814102,0.9531426429748535,0.512951135635376,0.7022130489349365,0.19672100245952606,0.9571194052696228,0.49102362990379333,0.6717501282691956,0.24340668320655823,0.8716963529586792,0.5409740209579468,0.4075678884983063,-0.19443067908287048,0.9452794790267944,0.4338361322879791,0.4141979515552521,-0.18947380781173706,0.9125325679779053,-177.66755068531998,0.492632657289505,0.3983455300331116,146.4970997916386,145.0205016702651,0.8451527108301113,-0.019434575310187403,-0.15167243474098893,-0.32957116637485573,-5.0266095133110476,177.4847409636361,1.4805856783918085,69,1761939714.6818569
0.4797038435935974,0.04414155334234238,-0.32399600744247437,0.9998799562454224,0.5296761989593506,0.15561270713806152,-0.1564633548259735,0.999833345413208,0.435152530670166,0.15932901203632355,-0.15438929200172424,0.9997377395629883,0.5151088833808899,0.3973669707775116,-0.0008907236042432487,0.9991632103919983,0.4672597050666809,0.40018293261528015,0.0007869132678024471,0.999040961265564,0.5149596929550171,0.545874297618866,0.050527285784482956,0.970713198184967,0.4753201901912689,0.5419793725013733,0.06179095432162285,0.9553380012512207,0.5128191709518433,0.690368115901947,0.23910799622535706,0.9586616158485413,0.49075406789779663,0.6749287247657776,0.2609237730503082,0.881316065788269,0.5413609743118286,0.4065435230731964,-0.18356819450855255,0.9483851194381714,0.4315045475959778,0.41405344009399414,-0.18624311685562134,0.9174790978431702,-177.9185646034643,0.4911842942237854,0.3987749516963959,146.55246717732118,147.05519201304514,0.8588761962200097,-0.048264622693976134,0.01430986128104492,-0.9607199963613257,5.531122051502397,177.74851125103888,1.3192470520837287,70,1761939714.7118657
0.47976502776145935,0.04430308938026428,-0.31342464685440063,0.9998910427093506,0.5297449231147766,0.15585248172283173,-0.14358358085155487,0.9998430013656616,0.4351869225502014,0.159231498837471,-0.14490817487239838,0.9997575879096985,0.5149886012077332,0.39866265654563904,-5.471803160617128e-05,0.9992122650146484,0.46728605031967163,0.4016646146774292,-5.824812251375988e-05,0.9991028308868408,0.5154127478599548,0.5451546907424927,0.053436242043972015,0.9715877175331116,0.4755723476409912,0.5439736247062683,0.05973438173532486,0.9579482674598694,0.5125955939292908,0.6827654838562012,0.2450249195098877,0.9600489735603333,0.49069222807884216,0.6770473718643188,0.24696555733680725,0.8905203938484192,0.5415922999382019,0.4072380065917969,-0.16563467681407928,0.9512089490890503,0.4309150278568268,0.4144938886165619,-0.17945417761802673,0.9213740825653076,-177.95309522770873,0.4911373257637024,0.4001636356115341,145.73579061252178,148.24152088928312,0.8470070232666483,-0.0013617197760420266,0.04026102509158775,1.3598191285014356,0.7523817666082466,177.95341407132435,1.4094426115279564,71,1761939714.7463577
0.47960638999938965,0.044936779886484146,-0.32015088200569153,0.9999004602432251,0.5300169587135315,0.1560039222240448,-0.14840948581695557,0.9998499155044556,0.43528303503990173,0.1592387706041336,-0.14640896022319794,0.9997727274894714,0.514715313911438,0.3991418480873108,-0.000528011645656079,0.9992514848709106,0.4671086370944977,0.4020195007324219,0.00041385646909475327,0.9991500973701477,0.5155534744262695,0.545164942741394,0.05196544528007507,0.9723474383354187,0.47554153203964233,0.5440592169761658,0.06108244135975838,0.9602466821670532,0.5125333070755005,0.6827555894851685,0.24168655276298523,0.9615039825439453,0.4899435043334961,0.6769536137580872,0.25248783826828003,0.8989462852478027,0.5416291952133179,0.40831494331359863,-0.17708535492420197,0.9527696967124939,0.43092235922813416,0.4149695932865143,-0.17608478665351868,0.922965407371521,-178.0523729291112,0.49091197550296783,0.40058067440986633,145.70586825317898,147.9516532679953,0.8516734239428007,-0.0072307371593812635,0.013381382059089031,-0.18831716433092072,-0.8624779624059542,178.04429958884137,1.451532008420453,72,1761939714.7775233
0.47979944944381714,0.045872122049331665,-0.3225196599960327,0.9999094009399414,0.530238687992096,0.1560841053724289,-0.15146425366401672,0.9998567700386047,0.4354543685913086,0.15925894677639008,-0.1457585245370865,0.9997884631156921,0.5147701501846313,0.39932167530059814,-0.002284136600792408,0.9992950558662415,0.4671073853969574,0.4026702344417572,0.002140449360013008,0.9992022514343262,0.5156301856040955,0.5475172400474548,0.05082960054278374,0.9733587503433228,0.47560906410217285,0.5445569753646851,0.06541872024536133,0.9621370434761047,0.512485146522522,0.6770759224891663,0.26285937428474426,0.9627008438110352,0.4898611903190613,0.6778719425201416,0.2724793255329132,0.9064086675643921,0.5426096320152283,0.408658504486084,-0.17412371933460236,0.955122709274292,0.4307880997657776,0.4170278310775757,-0.18024632334709167,0.9269009232521057,-178.09521654392378,0.4909387677907944,0.4009959548711777,141.12954640489474,146.86227587103144,0.8646969123605266,0.0007341076713026777,0.011378668905191505,0.21823644657732366,-0.05487426453513598,178.0815705496998,1.4568684898271234,73,1761939714.8140197
0.4799414575099945,0.046740058809518814,-0.30182594060897827,0.9999175667762756,0.53040611743927,0.15662050247192383,-0.14007653295993805,0.9998615384101868,0.43717923760414124,0.1592753380537033,-0.13490833342075348,0.9998032450675964,0.5148208141326904,0.39702484011650085,-0.0023006952833384275,0.9993255734443665,0.4672906994819641,0.40033939480781555,0.002161846961826086,0.9992457032203674,0.5155926942825317,0.545894980430603,0.043530263006687164,0.9747987389564514,0.4761858880519867,0.5444074273109436,0.059463512152433395,0.9645079970359802,0.5124436616897583,0.6724308729171753,0.2500525116920471,0.9645158648490906,0.48967498540878296,0.6770673990249634,0.2475273311138153,0.9137903451919556,0.5431956052780151,0.4053646922111511,-0.15345779061317444,0.9564252495765686,0.4309176504611969,0.41531816124916077,-0.16847260296344757,0.9299154877662659,-178.27187995479224,0.49105575680732727,0.3986821174621582,138.59358284898707,146.94340182478942,0.8354754291793824,0.0033341770345657034,-0.06594416962811461,0.074101756012554,-2.2036943306783354,178.36882049037217,1.4045704511323271,74,1761939714.8491075
0.4799598157405853,0.04841463267803192,-0.29121190309524536,0.999924898147583,0.5313075184822083,0.15666161477565765,-0.13683679699897766,0.9998664259910583,0.43856281042099,0.15929096937179565,-0.12740543484687805,0.9998164176940918,0.5148452520370483,0.3959064185619354,-0.003871399210765958,0.9993470907211304,0.4673864245414734,0.40025651454925537,0.0037313986103981733,0.9992808699607849,0.515381932258606,0.5456259846687317,0.031810954213142395,0.9761992692947388,0.4760458469390869,0.5450785160064697,0.05664367228746414,0.9668591022491455,0.5120016932487488,0.6660110354423523,0.24512271583080292,0.9661790132522583,0.48962873220443726,0.6768122911453247,0.24415536224842072,0.9206667542457581,0.5443183183670044,0.4047505557537079,-0.15520814061164856,0.95773845911026,0.4310004711151123,0.4138661324977875,-0.16504953801631927,0.9332115650177002,-178.52544477872166,0.49111583828926086,0.3980814665555954,132.83329440002433,145.21672199142304,0.8220075911610368,0.0016617210682492581,-0.016612677217276623,-0.04625643751628705,1.364400105141757,178.3760736111108,1.211345044779908,75,1761939714.8852637
0.4802127778530121,0.04862801358103752,-0.27377691864967346,0.9999313354492188,0.5320049524307251,0.15715576708316803,-0.12084360420703888,0.9998676776885986,0.4396400451660156,0.1593000888824463,-0.1087765097618103,0.999826967716217,0.5148595571517944,0.39494460821151733,-0.0044295829720795155,0.9993570446968079,0.4677872061729431,0.39936578273773193,0.0043070754036307335,0.9993162155151367,0.5148868560791016,0.5459044575691223,0.023986533284187317,0.9771466851234436,0.47600001096725464,0.5455369353294373,0.040766049176454544,0.9689309000968933,0.5108646154403687,0.6581848859786987,0.24433457851409912,0.9669790863990784,0.489637553691864,0.676744818687439,0.23179471492767334,0.92671799659729,0.544396162033081,0.40299007296562195,-0.14817100763320923,0.9586084485054016,0.43127068877220154,0.4104743003845215,-0.14870519936084747,0.9348946809768677,-178.68109779177422,0.4913233816623688,0.39715519547462463,127.65472669918078,138.5555404708227,0.8033320327072243,0.005061017087109958,-0.022587441352085163,0.08289301160511572,-0.14569669426156823,178.67007365678253,1.143955511614169,76,1761939714.926272
0.4802943766117096,0.050804488360881805,-0.2908688187599182,0.9999372363090515,0.5326739549636841,0.1584158092737198,-0.1311594396829605,0.999870240688324,0.4409082531929016,0.15931139886379242,-0.11898847669363022,0.9998365640640259,0.5145677328109741,0.392742782831192,-0.004526053089648485,0.9993636608123779,0.4678240716457367,0.3973539173603058,0.004409695975482464,0.999348521232605,0.5143252611160278,0.5427930355072021,0.026499709114432335,0.9778602719306946,0.47496336698532104,0.542285144329071,0.03435613960027695,0.9708938598632812,0.5101217031478882,0.6523680090904236,0.2508857250213623,0.9675614237785339,0.4891820549964905,0.6766417026519775,0.22630231082439423,0.93227618932724,0.5444551706314087,0.4034881591796875,-0.1586221307516098,0.9603028297424316,0.43141087889671326,0.4074111878871918,-0.1529550850391388,0.9368446469306946,-178.93156906252034,0.4911959022283554,0.3950483500957489,127.70456802310537,136.72537595070574,0.8107612160260266,-0.0030231049319545196,-0.04996268382456874,-0.19171052441128203,-0.6491888764060438,179.4408382040886,0.8794531230284964,77,1761939714.9684403
0.48116764426231384,0.052964936941862106,-0.30161190032958984,0.9999424815177917,0.5335471630096436,0.16019688546657562,-0.13400006294250488,0.9998716711997986,0.44227465987205505,0.15933997929096222,-0.12157680839300156,0.9998449683189392,0.5143271684646606,0.392689049243927,-0.0038429968990385532,0.9993720054626465,0.4680613875389099,0.3968660533428192,0.003734822850674391,0.9993771910667419,0.5140372514724731,0.5430988073348999,0.028968269005417824,0.9782599806785583,0.4743402600288391,0.5419220924377441,0.03515472263097763,0.9723951816558838,0.5094572901725769,0.6491190791130066,0.2683500647544861,0.9675946831703186,0.487755686044693,0.6762986779212952,0.23578214645385742,0.9369274377822876,0.5444751977920532,0.4040181040763855,-0.16110606491565704,0.9612213969230652,0.43167614936828613,0.40790364146232605,-0.1544705331325531,0.9382694363594055,-179.199559537968,0.4911942780017853,0.3947775512933731,126.18902752845614,136.0826167305021,0.8238028415933342,-5.273200145520973e-05,-0.008791730848124095,0.09643587451049204,1.3366526519100685,-179.46209796848115,0.7430562195076743,78,1761939714.9992418
0.48251500725746155,0.05442217364907265,-0.27987146377563477,0.9999473094940186,0.5350239872932434,0.1605912297964096,-0.1241835206747055,0.9998706579208374,0.4437558054924011,0.15938764810562134,-0.10139026492834091,0.9998530745506287,0.5143437385559082,0.39220672845840454,-0.0069796741008758545,0.9993583559989929,0.4686203598976135,0.396379292011261,0.0068984306417405605,0.9993998408317566,0.5138950943946838,0.5422118902206421,0.01873214915394783,0.9784485697746277,0.47405195236206055,0.5423434972763062,0.03254227712750435,0.9736572504043579,0.5093708038330078,0.6450531482696533,0.2633262276649475,0.9671189785003662,0.4874960780143738,0.6769649386405945,0.21766972541809082,0.9411961436271667,0.5445458889007568,0.4044545590877533,-0.16239559650421143,0.9623937010765076,0.43284744024276733,0.40415453910827637,-0.14597934484481812,0.9410681128501892,-179.48840582694524,0.49148204922676086,0.39429301023483276,122.52803006739785,136.02195986124192,0.7993656119495494,0.007478129414388739,-0.012591463036851627,0.19569974820896593,-0.09874124506275335,-179.24446666154344,0.4689960782023768,79,1761939715.0377235
0.4844423234462738,0.0574653260409832,-0.2870097756385803,0.9999517202377319,0.5360556840896606,0.16326142847537994,-0.1260913759469986,0.9998724460601807,0.44505923986434937,0.1604330837726593,-0.10767855495214462,0.9998587369918823,0.5143589377403259,0.3923681974411011,-0.012876013293862343,0.9993593692779541,0.4687727987766266,0.39524978399276733,0.012781353667378426,0.999420702457428,0.5136035680770874,0.5423716902732849,0.019283005967736244,0.9786816835403442,0.4734089970588684,0.5413788557052612,0.03669462725520134,0.9745473861694336,0.5093661546707153,0.6470320820808411,0.25727540254592896,0.9670122265815735,0.4875001311302185,0.6768117547035217,0.23213669657707214,0.9450549483299255,0.5447209477424622,0.4070366621017456,-0.18199422955513,0.9637682437896729,0.4335225522518158,0.4049244821071625,-0.1530081182718277,0.9430702924728394,-179.75091986576942,0.49156586825847626,0.3938089907169342,125.83716835060812,134.03598171584792,0.8051616196975768,0.0019994227444378727,-0.011545822148414396,-0.1306893017232449,0.024942762187405192,-178.21971000495552,0.20463369767663775,80,1761939715.0796452
0.4864366054534912,0.057078972458839417,-0.28229227662086487,0.9999555349349976,0.5376474261283875,0.16429749131202698,-0.12987735867500305,0.9998710751533508,0.44751644134521484,0.16049697995185852,-0.10465046018362045,0.9998618364334106,0.5144468545913696,0.392649382352829,-0.014757704921066761,0.9993520379066467,0.46911001205444336,0.39488479495048523,0.01466051209717989,0.9994438290596008,0.5133100748062134,0.5424843430519104,0.011817751452326775,0.9789057970046997,0.4723339080810547,0.540361762046814,0.024122044444084167,0.9754846692085266,0.5093554258346558,0.6462579369544983,0.2454407662153244,0.9671704173088074,0.48742157220840454,0.6765034794807434,0.2038286030292511,0.9485373497009277,0.5447226166725159,0.4075426459312439,-0.1912790685892105,0.9650110006332397,0.4353621006011963,0.40368664264678955,-0.15337665379047394,0.9438325762748718,179.8010242178082,0.4917784333229065,0.3937670886516571,124.00938601143662,130.85554396721196,0.7888589098413953,0.005272772165972748,-0.0010393996025738078,0.08119690677127539,0.26061654351408353,-177.58546583458877,0.14431959052641014,81,1761939715.1199589
0.48887959122657776,0.05947777256369591,-0.2821888029575348,0.9999592900276184,0.5394214391708374,0.16519638895988464,-0.1330072432756424,0.9998741149902344,0.44959551095962524,0.16201132535934448,-0.10639792680740356,0.9998672604560852,0.5149562358856201,0.3928569257259369,-0.01523585431277752,0.999358057975769,0.470633327960968,0.3951013386249542,0.015139363706111908,0.9994610548019409,0.513079822063446,0.5415827631950378,0.013495175167918205,0.9790675640106201,0.4722886085510254,0.5398715734481812,0.04323367029428482,0.9759137630462646,0.5093491077423096,0.6463010311126709,0.24147312343120575,0.9670488834381104,0.48741936683654785,0.6754801273345947,0.2264513522386551,0.951557457447052,0.5451258420944214,0.4076763689517975,-0.18986882269382477,0.9665421843528748,0.43678760528564453,0.4036116302013397,-0.15533135831356049,0.9462835192680359,179.57380160078526,0.49279478192329407,0.39397913217544556,125.6089755983573,137.40944303971094,0.7925904359898042,0.020340958434134495,0.004243788501271646,0.3015710853949062,0.1057364663847164,-177.9692469391322,0.3005940245959296,82,1761939715.1699245
0.49130910634994507,0.061010535806417465,-0.2914310395717621,0.9999627470970154,0.5402072072029114,0.1658729612827301,-0.1467793732881546,0.9998760223388672,0.4523921608924866,0.16287963092327118,-0.12584972381591797,0.9998716711997986,0.5151273012161255,0.3897400200366974,-0.015121725387871265,0.9993625283241272,0.47180548310279846,0.39114677906036377,0.015011799521744251,0.9994791746139526,0.5120757818222046,0.5361494421958923,0.013157512061297894,0.9786157608032227,0.4717143177986145,0.5361996293067932,0.04226340353488922,0.9757842421531677,0.5088779330253601,0.6465772986412048,0.2273854911327362,0.9666349291801453,0.48713308572769165,0.6752170324325562,0.21281620860099792,0.9540886878967285,0.5452925562858582,0.40771642327308655,-0.1920376569032669,0.9675463438034058,0.4388903081417084,0.40461432933807373,-0.17899122834205627,0.9481685757637024,179.28195139403152,0.493466392159462,0.3904433995485306,128.20698378038466,139.65215300999708,0.7883994446062997,0.015947968386428358,-0.08395904219483336,-0.10431536422443169,-2.094452823651277,-178.04772843168678,0.46360314710181083,83,1761939715.212037
0.4934214949607849,0.06279309839010239,-0.2825632691383362,0.9999658465385437,0.5411673784255981,0.16596126556396484,-0.14055630564689636,0.9998795390129089,0.4546005129814148,0.1630907654762268,-0.12081968784332275,0.9998759031295776,0.5152954459190369,0.38830238580703735,-0.014514205045998096,0.9993667602539062,0.4725603461265564,0.3894409239292145,0.014403022825717926,0.9994931221008301,0.5114027857780457,0.5331494808197021,0.014002226293087006,0.9784067869186401,0.47174271941185,0.5352233648300171,0.04174639284610748,0.975938081741333,0.5087515711784363,0.6451375484466553,0.22351408004760742,0.9663435816764832,0.48637086153030396,0.675121009349823,0.20468345284461975,0.9563731551170349,0.5453041195869446,0.4067980945110321,-0.19100560247898102,0.968776524066925,0.44116759300231934,0.40408143401145935,-0.17543289065361023,0.9497172832489014,178.98976658697367,0.49392789602279663,0.3888716548681259,129.2641321391822,141.0701513879437,0.7768531569274563,0.012138330960876409,-0.04133953934620522,-0.10019989773901035,1.1209648977294169,-178.10080566776443,0.6605014805351137,84,1761939715.2500575
0.4958910048007965,0.06508346647024155,-0.30610397458076477,0.9999686479568481,0.5420829653739929,0.1665855050086975,-0.15499214828014374,0.9998823404312134,0.4562439024448395,0.16322599351406097,-0.14347752928733826,0.9998807907104492,0.5154116153717041,0.3875942528247833,-0.014114519581198692,0.9993718266487122,0.472982794046402,0.38891640305519104,0.014006492681801319,0.9995006918907166,0.5108885169029236,0.531764030456543,0.01502600871026516,0.9784586429595947,0.4718112051486969,0.534624457359314,0.05184788256883621,0.9758082032203674,0.5084212422370911,0.6462948322296143,0.22303004562854767,0.9666309356689453,0.4854053854942322,0.6749541163444519,0.21557268500328064,0.9584364891052246,0.5456833243370056,0.4051283001899719,-0.1995360106229782,0.9698232412338257,0.4434073865413666,0.4059310853481293,-0.19791139662265778,0.9521656036376953,178.7262250705766,0.49419720470905304,0.3882553279399872,130.26205790702755,144.94198241297823,0.7941793930210029,0.009101154602294702,-0.02082846541833183,-0.10263988131288422,0.6931616557623362,-177.7587401967274,0.8924919202830016,85,1761939715.279648
0.49857115745544434,0.06730636209249496,-0.30581313371658325,0.9999710321426392,0.54454505443573,0.1673746556043625,-0.1477736532688141,0.9998829364776611,0.45858845114707947,0.16323406994342804,-0.13886123895645142,0.9998860359191895,0.5158909559249878,0.3877314329147339,-0.011271972209215164,0.9993806481361389,0.47365474700927734,0.38861796259880066,0.011159433051943779,0.9995109438896179,0.510987401008606,0.5328246355056763,0.015602074563503265,0.9787849187850952,0.4737241268157959,0.5349240899085999,0.05093257874250412,0.9762858152389526,0.5091654658317566,0.6472468972206116,0.21964232623577118,0.9670507311820984,0.4854460656642914,0.675677478313446,0.21780714392662048,0.9604699611663818,0.5474819540977478,0.40321552753448486,-0.18230877816677094,0.9697856903076172,0.44552183151245117,0.4051041901111603,-0.1912982016801834,0.9543910622596741,178.25395620607816,0.49477285146713257,0.3881746977567673,129.76646339388444,145.23570465299642,0.7925671720441595,0.0153121650674463,-0.002144757453339337,0.16521246084199875,0.49698537586900043,-177.24215671181207,1.3722275914169058,86,1761939715.3172421
0.5017614364624023,0.06703298538923264,-0.28463229537010193,0.9999727606773376,0.5467342138290405,0.16730378568172455,-0.12219878286123276,0.9998847842216492,0.4609898030757904,0.1634395867586136,-0.1304575800895691,0.9998900294303894,0.5185689926147461,0.3897784650325775,-0.004114559851586819,0.9993875026702881,0.47567829489707947,0.3908693194389343,0.004021724220365286,0.9995269179344177,0.512334942817688,0.5329598188400269,0.03336977958679199,0.9791485071182251,0.4749792218208313,0.5377691984176636,0.046151384711265564,0.9773134589195251,0.5095195174217224,0.6479521989822388,0.23757478594779968,0.9670818448066711,0.4853133261203766,0.6765345931053162,0.21706369519233704,0.962509036064148,0.5495240092277527,0.40252113342285156,-0.15277643501758575,0.971322774887085,0.44755902886390686,0.4052230715751648,-0.18086032569408417,0.9563696980476379,178.28423800396249,0.4971236437559128,0.3903238922357559,134.04100454386366,144.96108883440837,0.7851042524758858,0.04611433949909969,0.042159694128101395,0.6042311504215399,0.8690986997443734,-177.41962675479377,1.79195649299569,87,1761939715.3682196
0.5045732259750366,0.06709017604589462,-0.28002405166625977,0.9999746084213257,0.5485022664070129,0.16766862571239471,-0.12216105312108994,0.9998868703842163,0.4630720615386963,0.1635647416114807,-0.12980452179908752,0.9998939037322998,0.5203210711479187,0.3924017548561096,-0.0012325074058026075,0.9994009733200073,0.477363258600235,0.3925510048866272,0.0011287087108939886,0.9995437860488892,0.5132900476455688,0.5350490808486938,0.038717567920684814,0.979566752910614,0.4768741726875305,0.5391661524772644,0.045560382306575775,0.9782232642173767,0.5095838904380798,0.6481167078018188,0.2422202080488205,0.9674883484840393,0.48521193861961365,0.6764760613441467,0.21846990287303925,0.9643074870109558,0.5503997206687927,0.4027339220046997,-0.15241065621376038,0.9726328253746033,0.45006054639816284,0.40565016865730286,-0.17981474101543427,0.9578537940979004,178.2465157787626,0.49884216487407684,0.3924763798713684,134.69067305210334,145.23911778093958,0.7840909011545447,0.048072562358276644,0.06021200146725357,0.054777790923951825,0.504981091648895,-177.24974767255966,2.9976631656079773,88,1761939715.403968
0.5078124403953552,0.06830982118844986,-0.2822721004486084,0.9999764561653137,0.5504871606826782,0.16830243170261383,-0.126009002327919,0.9998913407325745,0.4656418263912201,0.1636698842048645,-0.13217444717884064,0.9998965263366699,0.5212436318397522,0.3948127329349518,-0.0017715368885546923,0.999424397945404,0.4784318804740906,0.3932909369468689,0.0016628879820927978,0.9995614290237427,0.5137579441070557,0.5367965698242188,0.03928828984498978,0.9799721837043762,0.4783206582069397,0.539720356464386,0.04843606799840927,0.9789283275604248,0.5096659064292908,0.6501001715660095,0.24308300018310547,0.9680951237678528,0.485236257314682,0.6764166355133057,0.2223929613828659,0.966053307056427,0.5514606833457947,0.4037594795227051,-0.15737298130989075,0.9741921424865723,0.4526996612548828,0.4057053029537201,-0.17924383282661438,0.95882248878479,177.93413433619,0.4998377561569214,0.39405183494091034,135.18964407363472,145.82916366781578,0.7869603275657133,0.024836807827276514,0.039302548623089274,-0.57965751604349,-0.5216237536554433,-176.87475881446684,5.823081595570565,89,1761939715.4440534
0.5095744132995605,0.06855802983045578,-0.2749425768852234,0.9999781847000122,0.5524048209190369,0.16874216496944427,-0.127018004655838,0.9998956322669983,0.46829095482826233,0.16363215446472168,-0.13154496252536774,0.9999019503593445,0.5219873189926147,0.3951980173587799,-0.0018613804131746292,0.9994478821754456,0.47898203134536743,0.39331886172294617,0.0017444882541894913,0.999584436416626,0.5143336057662964,0.5368412733078003,0.042104676365852356,0.9798606038093567,0.4789026379585266,0.5398645401000977,0.049930013716220856,0.9793859720230103,0.5097370743751526,0.6513547301292419,0.23846933245658875,0.967988908290863,0.48524603247642517,0.6763938069343567,0.21775376796722412,0.9673762321472168,0.5527105331420898,0.4038553535938263,-0.1480366289615631,0.9757205843925476,0.4530127942562103,0.4056851267814636,-0.17336706817150116,0.9607406854629517,177.5237191046518,0.5004846751689911,0.39425843954086304,137.4843467293729,147.2879873264653,0.7794939860920669,0.016377301891006103,0.005230370173649045,-0.21415954699462653,-0.8625660123443584,-176.52349066375172,11.279570772311908,90,1761939715.4835544
0.5114709734916687,0.06937055289745331,-0.29609036445617676,0.9999799728393555,0.5537348985671997,0.16878068447113037,-0.14226874709129333,0.9999004602432251,0.4700504243373871,0.16333995759487152,-0.14873670041561127,0.9999071359634399,0.5225919485092163,0.393757700920105,-0.0015919252764433622,0.9994658827781677,0.47967320680618286,0.39146095514297485,0.0014518810203298926,0.999599277973175,0.5150508880615234,0.5348333716392517,0.03975856676697731,0.9797415137290955,0.4796684682369232,0.5384244322776794,0.047732096165418625,0.979722261428833,0.509930431842804,0.6515440344810486,0.22208130359649658,0.9684246182441711,0.4852372705936432,0.6759561896324158,0.20755533874034882,0.9686843752861023,0.5558599233627319,0.4039044976234436,-0.14831788837909698,0.9770810008049011,0.4535819888114929,0.40238216519355774,-0.18533363938331604,0.962407112121582,177.28074537174473,0.5011325776576996,0.3926093280315399,138.95977345577947,148.15739104016936,0.7839053498720825,0.019622780477589953,-0.04994602381450967,0.09829459673198922,-1.6711068187635665,-176.2801633078151,47.785837988388145,91,1761939715.5165722
0.5134592056274414,0.06910953670740128,-0.29490166902542114,0.9999814629554749,0.5550231337547302,0.16892434656620026,-0.1411745697259903,0.9999049305915833,0.4713943898677826,0.16321544349193573,-0.1431468427181244,0.9999103546142578,0.5233504176139832,0.3929246664047241,-0.001972426427528262,0.9994849562644958,0.48006802797317505,0.390535831451416,0.0018351726466789842,0.9996107220649719,0.5160789489746094,0.534047544002533,0.03861331567168236,0.9803565740585327,0.48022550344467163,0.5363302230834961,0.04990106076002121,0.9804917573928833,0.5101145505905151,0.651628851890564,0.22368578612804413,0.9694862365722656,0.485396146774292,0.6733866930007935,0.21068629622459412,0.970158576965332,0.5577949285507202,0.40369734168052673,-0.1535274088382721,0.9780997037887573,0.45372796058654785,0.3984276354312897,-0.1830153614282608,0.9630539417266846,177.08275915589482,0.5017092227935791,0.39173024892807007,138.4847782919305,148.66304135093296,0.7839654968427577,0.012741005109835116,-0.019423299794553022,-0.15205319471145542,0.6744012192372135,-176.09477132259718,28.902207916933346,92,1761939715.5618312
0.5149627327919006,0.06891043484210968,-0.26860135793685913,0.9999827742576599,0.556061327457428,0.16937288641929626,-0.13006159663200378,0.9999108910560608,0.4716823697090149,0.16276413202285767,-0.11965316534042358,0.9999128580093384,0.5234476923942566,0.39259618520736694,-0.0053201699629426,0.9995058178901672,0.48073071241378784,0.3902641236782074,0.005203280132263899,0.9996206164360046,0.5162445306777954,0.5343186259269714,0.03429263085126877,0.9805166125297546,0.48007339239120483,0.5340948700904846,0.05726082995533943,0.9805845618247986,0.5103064179420471,0.6517095565795898,0.22135336697101593,0.9698110222816467,0.48543548583984375,0.6706581711769104,0.22270908951759338,0.970926821231842,0.5597294569015503,0.4034363627433777,-0.15658345818519592,0.9793405532836914,0.45400649309158325,0.39412742853164673,-0.1605471670627594,0.963613748550415,177.00711374544179,0.5020892024040222,0.39143015444278717,137.73861497685272,149.38755819605132,0.7692855635844282,0.010597587573476607,-0.008369600633029231,-0.05977966823429158,0.3082863965740344,-175.52160499305938,40.769041594176635,93,1761939715.5976865
0.5141493082046509,0.07028529793024063,-0.2541446089744568,0.9999834895133972,0.5567228198051453,0.17107385396957397,-0.12530465424060822,0.9999164342880249,0.4726491868495941,0.1626850813627243,-0.09705862402915955,0.9999122619628906,0.5234050750732422,0.3929462134838104,-0.009305188432335854,0.9995306134223938,0.4808255732059479,0.39011073112487793,0.009183979593217373,0.9996281862258911,0.516319215297699,0.5342283844947815,0.03383982181549072,0.9806876182556152,0.4799773097038269,0.5304601788520813,0.06677287817001343,0.9809215068817139,0.5102835893630981,0.6521341800689697,0.21771857142448425,0.9707030057907104,0.48543041944503784,0.6672747731208801,0.23711499571800232,0.9718584418296814,0.5607172250747681,0.40324464440345764,-0.15807154774665833,0.9802640676498413,0.4542384743690491,0.3875533640384674,-0.1286967545747757,0.9621673226356506,176.79724140447186,0.502115324139595,0.3915284723043442,139.66218813601137,151.0266273793313,0.7613026875897886,0.0007388244893555327,0.0027808123107631515,-0.2788442437524452,0.3153771358850395,-174.30195116229,43.01225297068743,94,1761939715.6330423
0.5153263807296753,0.07046516984701157,-0.2526998817920685,0.9999842047691345,0.5583364963531494,0.17225846648216248,-0.12544643878936768,0.9999219179153442,0.4731464385986328,0.1626739352941513,-0.0988907665014267,0.9999135732650757,0.5245035886764526,0.3934701383113861,-0.012147410772740841,0.9995622038841248,0.4815465807914734,0.39015933871269226,0.01202227920293808,0.99964439868927,0.5165831446647644,0.5329295992851257,0.035886261612176895,0.9811325669288635,0.4799407422542572,0.5283021926879883,0.08254259824752808,0.981255829334259,0.5101496577262878,0.6534944176673889,0.22254741191864014,0.9718034267425537,0.48546871542930603,0.6618057489395142,0.2609412670135498,0.9727970957756042,0.5612143874168396,0.40309733152389526,-0.147600457072258,0.9808211326599121,0.45431604981422424,0.38655099272727966,-0.12385930120944977,0.9612131714820862,176.75586790626284,0.503025084733963,0.3918147385120392,141.8698617464089,153.77410284027135,0.7678333560202977,0.024945820585235742,0.007849477654873042,0.6637607577791816,0.13898383493803435,-173.58078177263633,28.024660901885504,95,1761939715.6695118
0.5156142115592957,0.07032547146081924,-0.24499711394309998,0.9999850392341614,0.5585452914237976,0.17358249425888062,-0.12365927547216415,0.9999268651008606,0.47381919622421265,0.16240330040454865,-0.0927361473441124,0.9999154806137085,0.5248162746429443,0.393688827753067,-0.015833884477615356,0.9995888471603394,0.48162156343460083,0.3899763226509094,0.015698252245783806,0.9996557235717773,0.5168303847312927,0.532230019569397,0.03505593165755272,0.9816218018531799,0.4798920154571533,0.5276296734809875,0.08769447356462479,0.9812933802604675,0.5097056031227112,0.6548120975494385,0.21793806552886963,0.9727513790130615,0.48546671867370605,0.655779242515564,0.2604082226753235,0.9734249711036682,0.5618749856948853,0.4032236635684967,-0.14807727932929993,0.9812754392623901,0.45414623618125916,0.38690707087516785,-0.12354044616222382,0.9612828493118286,176.68550681631405,0.5032189190387726,0.3918325752019882,144.01426243036332,154.096802800547,0.7595630208239366,0.00635493856111059,0.0005847833223900197,-0.6095098242606715,-0.23817603490534714,-172.4835208669682,16.704471696545504,96,1761939715.7000132
0.5153301358222961,0.07083631306886673,-0.25174984335899353,0.9999856352806091,0.5590245127677917,0.17588648200035095,-0.12517443299293518,0.9999310374259949,0.4740234911441803,0.16305173933506012,-0.09645639359951019,0.9999161958694458,0.5251585245132446,0.39385756850242615,-0.017163077369332314,0.9996098279953003,0.4818582534790039,0.3899344205856323,0.017037583515048027,0.9996607303619385,0.5169088244438171,0.5315554738044739,0.03368992358446121,0.9820934534072876,0.47983092069625854,0.5265225768089294,0.0889083668589592,0.9814460277557373,0.5096170902252197,0.6550977230072021,0.21859323978424072,0.9737268090248108,0.4854702353477478,0.650053083896637,0.26478976011276245,0.974085807800293,0.5626326203346252,0.40324562788009644,-0.16374064981937408,0.9812885522842407,0.45422807335853577,0.38811057806015015,-0.1314910650253296,0.9604817628860474,176.6510781283824,0.5035083889961243,0.39189599454402924,144.02855356347774,152.7405679279061,0.7630341323871827,0.009811586824411689,0.0021495991724851306,0.11716312417052019,0.05303944740203423,-171.41347889301423,15.734355684165921,97,1761939715.729516
0.5156084895133972,0.07126323133707047,-0.25616687536239624,0.9999861121177673,0.5591026544570923,0.17731697857379913,-0.12907007336616516,0.9999350309371948,0.4742090106010437,0.16337595880031586,-0.10089154541492462,0.9999170899391174,0.5258394479751587,0.3938644528388977,-0.016555536538362503,0.9996302723884583,0.482724130153656,0.38990646600723267,0.01642640121281147,0.9996668100357056,0.5172420740127563,0.5309604406356812,0.0365341491997242,0.9825246334075928,0.47999081015586853,0.5258974432945251,0.09021708369255066,0.9815337061882019,0.5095943212509155,0.6552104353904724,0.22122922539710999,0.9745455384254456,0.4853065609931946,0.6465855836868286,0.2694689929485321,0.9745250940322876,0.5632411241531372,0.40326300263404846,-0.17056764662265778,0.9813535809516907,0.4543531835079193,0.38818931579589844,-0.13263729214668274,0.9601441025733948,176.8030703995326,0.5042817890644073,0.3918854594230652,145.10836110332167,152.32961928601847,0.7666971198371006,0.023365638798251112,-0.0003182826602127767,0.4094893389090519,-0.07455861185478865,-170.67426751198428,10.603284714285879,98,1761939715.762616
0.5163352489471436,0.0715254545211792,-0.25401023030281067,0.9999868273735046,0.5594980120658875,0.17808282375335693,-0.12652406096458435,0.9999391436576843,0.4742717146873474,0.16357706487178802,-0.09943320602178574,0.9999187588691711,0.5262662172317505,0.39384540915489197,-0.015845736488699913,0.999652087688446,0.4827398359775543,0.389695942401886,0.015717849135398865,0.9996767044067383,0.5180691480636597,0.5297831892967224,0.036512672901153564,0.9831236600875854,0.47938603162765503,0.5260794162750244,0.0874580666422844,0.9819363951683044,0.5097461938858032,0.6552099585533142,0.22757232189178467,0.9755525588989258,0.48516184091567993,0.6455575823783875,0.27002689242362976,0.9752038717269897,0.5632817149162292,0.40268152952194214,-0.16927969455718994,0.9815446138381958,0.4547478258609772,0.38837122917175293,-0.13725675642490387,0.9598436951637268,176.7924171532912,0.5045030266046524,0.391770675778389,144.36860174768867,150.81580571838794,0.7669753473809198,0.0058489968420853584,-0.003034607844991144,-0.4630985472540882,-0.07181320769633999,-170.3406589551063,9.714502162160947,99,1761939715.8004408
0.5161633491516113,0.07368666678667068,-0.2656567692756653,0.9999875426292419,0.559144139289856,0.17846794426441193,-0.13119272887706757,0.9999430179595947,0.47413715720176697,0.1637202948331833,-0.1125083714723587,0.9999205470085144,0.5261745452880859,0.39381399750709534,-0.01580512896180153,0.999672532081604,0.4826319217681885,0.3894592821598053,0.015669753775000572,0.999687671661377,0.518147885799408,0.5295265316963196,0.04204550385475159,0.983410120010376,0.47902220487594604,0.5260727405548096,0.08720431476831436,0.9819920659065247,0.509739339351654,0.6547935009002686,0.22795657813549042,0.9762653708457947,0.4848920702934265,0.645376443862915,0.2670757472515106,0.9756635427474976,0.563424825668335,0.40232354402542114,-0.16937026381492615,0.981677770614624,0.4546717703342438,0.3888757526874542,-0.14935161173343658,0.9584535956382751,176.82404123276547,0.5044032335281372,0.3916366398334503,147.07862466473293,151.04753343753615,0.771969363702525,-0.003436671237263225,-0.004615926202655325,-0.31977958312779947,-0.054457398313731545,-170.15786039400075,9.633176752106674,100,1761939715.8294785
0.5160171985626221,0.07473175972700119,-0.26913028955459595,0.9999880790710449,0.5589045882225037,0.1798742711544037,-0.1306653767824173,0.999945342540741,0.4738976061344147,0.16455693542957306,-0.12231913954019547,0.9999217987060547,0.5260140895843506,0.3936905264854431,-0.010613578371703625,0.9996888637542725,0.4826079308986664,0.3890499174594879,0.010501766577363014,0.9996974468231201,0.5181169509887695,0.5294161438941956,0.05159834027290344,0.9839470386505127,0.47873950004577637,0.5260941386222839,0.0844939574599266,0.9825921058654785,0.5097183585166931,0.6539801955223083,0.23493421077728271,0.977215051651001,0.4843021035194397,0.6466435194015503,0.2630283832550049,0.9763934016227722,0.563327968120575,0.4021243751049042,-0.15851828455924988,0.9812063574790955,0.4546312689781189,0.39019784331321716,-0.15986505150794983,0.9570693969726562,176.8423685971624,0.5043110102415085,0.3913702219724655,148.8369933753653,152.2407298146126,0.7746569110662076,-0.0031804484386048575,-0.009187790860206213,0.00883619994165518,-0.1576671179607663,-169.78552932246856,8.520178861659492,101,1761939715.8584754
0.5165741443634033,0.07457862794399261,-0.2544028162956238,0.9999885559082031,0.5582302212715149,0.18129107356071472,-0.11543172597885132,0.9999480247497559,0.4737914204597473,0.16573671996593475,-0.11143322288990021,0.9999215006828308,0.5259498953819275,0.3936566114425659,-0.008283032104372978,0.9997047185897827,0.48254600167274475,0.3889603912830353,0.008177747949957848,0.9997056126594543,0.518108069896698,0.5294731855392456,0.048640839755535126,0.9845129251480103,0.4787023067474365,0.5260872840881348,0.08019973337650299,0.9831900000572205,0.5097083449363708,0.6538184881210327,0.23910680413246155,0.9780171513557434,0.4839702248573303,0.6472063064575195,0.260966032743454,0.9771388173103333,0.5631762742996216,0.4021703600883484,-0.15157252550125122,0.9812411665916443,0.454106867313385,0.3904048800468445,-0.15690432488918304,0.9553155303001404,176.9085149058216,0.5042479485273361,0.3913085013628006,145.89888612289116,151.39426854619973,0.7658642914309507,-0.002078879527162978,-0.0020346689512072435,0.03631409465807597,0.23580834880691975,-169.56263119189305,7.507081897321393,102,1761939715.88881
0.5164464712142944,0.07585225254297256,-0.2576505243778229,0.9999891519546509,0.5563510656356812,0.18167074024677277,-0.11830015480518341,0.9999504089355469,0.4727955460548401,0.16652816534042358,-0.11422768980264664,0.9999223947525024,0.5258950591087341,0.39325380325317383,-0.00624516885727644,0.9997205138206482,0.4823831021785736,0.3889457583427429,0.006131598260253668,0.9997161626815796,0.5180808305740356,0.5289504528045654,0.050819117575883865,0.9851027131080627,0.4781310558319092,0.5253066420555115,0.07568825781345367,0.9839101433753967,0.5096238255500793,0.6533797979354858,0.2430361807346344,0.9789637923240662,0.48300033807754517,0.6476009488105774,0.2602342963218689,0.9780461192131042,0.5627292394638062,0.40170371532440186,-0.1447652131319046,0.98138827085495,0.45394769310951233,0.3905535340309143,-0.15565164387226105,0.9547602534294128,177.24711494896962,0.5041390806436539,0.3910997807979584,145.74580137647376,150.4197485181912,0.7681056905442467,-0.0031013767294016965,-0.005945932637384282,-0.02912841622013181,-0.11142222819603688,-169.72790624032277,5.8133877438241,103,1761939715.923913
0.5156827569007874,0.07670518755912781,-0.25792938470840454,0.9999894499778748,0.5541360378265381,0.18218310177326202,-0.12004679441452026,0.9999512434005737,0.47180604934692383,0.16682644188404083,-0.11411287635564804,0.9999235272407532,0.525276780128479,0.39326757192611694,-0.0063057392835617065,0.9997318983078003,0.4816960394382477,0.3890319764614105,0.006203318014740944,0.9997246861457825,0.5179967880249023,0.5287970900535583,0.049610476940870285,0.9856690764427185,0.4772679805755615,0.5244709253311157,0.07568923383951187,0.9844914674758911,0.5096035003662109,0.6531622409820557,0.24005334079265594,0.9798880815505981,0.4824570119380951,0.6480029225349426,0.25789782404899597,0.9789129495620728,0.5607622265815735,0.4017913341522217,-0.14377613365650177,0.9812374711036682,0.45352110266685486,0.39064154028892517,-0.15376749634742737,0.9556720852851868,177.49321382385486,0.5034864097833633,0.39114977419376373,145.58886287276835,151.13809817080744,0.7659465582265005,-0.016647105684036413,0.001275137889724707,-0.3454990795433081,0.18418154008462106,-169.43428084143892,5.916329156052413,104,1761939715.9631193
0.5149319171905518,0.07657090574502945,-0.26506415009498596,0.9999898076057434,0.5519899129867554,0.18227380514144897,-0.12336532026529312,0.9999524354934692,0.4705403447151184,0.16704703867435455,-0.11974853277206421,0.999923825263977,0.5244151949882507,0.3931726813316345,-0.006655772682279348,0.9997432231903076,0.4809272885322571,0.388992041349411,0.006543626543134451,0.9997314810752869,0.5178846716880798,0.5285894870758057,0.04921258985996246,0.9861353039741516,0.47684821486473083,0.5244649052619934,0.0734056681394577,0.9849790334701538,0.5094645619392395,0.6531057953834534,0.23693564534187317,0.9807254672050476,0.48240891098976135,0.6483071446418762,0.2554135322570801,0.9796941876411438,0.5586051940917969,0.40194761753082275,-0.14526702463626862,0.9812009930610657,0.4530875086784363,0.390913724899292,-0.15558166801929474,0.9560245275497437,177.7260396810768,0.5026712417602539,0.39108236134052277,146.00001821259687,150.3495286105277,0.7689977315923187,-0.02114657294475644,-0.001748781573934341,-0.11672233201496157,-0.07844460492134658,-169.4109467392574,6.006742275337808,105,1761939716.0016677
0.5142241716384888,0.07674024254083633,-0.2676294445991516,0.9999903440475464,0.5509651303291321,0.18249361217021942,-0.1253562867641449,0.9999532103538513,0.46966248750686646,0.1675127148628235,-0.12744811177253723,0.9999265074729919,0.5236588716506958,0.3929033577442169,-0.006709151901304722,0.9997550249099731,0.48045769333839417,0.38902655243873596,0.006579951383173466,0.9997410178184509,0.5171715617179871,0.5280269384384155,0.04814819619059563,0.9866236448287964,0.4767170548439026,0.5244967937469482,0.07220672070980072,0.9854636788368225,0.5094435214996338,0.6527284383773804,0.23228339850902557,0.9816222786903381,0.4824919104576111,0.6484880447387695,0.24993129074573517,0.9804640412330627,0.5564264059066772,0.4043941795825958,-0.13857631385326385,0.9805071353912354,0.4528582990169525,0.39086997509002686,-0.1619531214237213,0.9573423862457275,177.81083209023285,0.502058282494545,0.39096495509147644,146.22326937992773,150.60092435370046,0.7671185691806911,-0.01641963698372047,-0.003145018106107538,0.12662272497951169,-0.03740166481565088,-169.55973376567368,8.444753916169647,106,1761939716.0389986
