nose_x,nose_y,nose_z,nose_visibility,left_shoulder_x,left_shoulder_y,left_shoulder_z,left_shoulder_visibility,right_shoulder_x,right_shoulder_y,right_shoulder_z,right_shoulder_visibility,left_hip_x,left_hip_y,left_hip_z,left_hip_visibility,right_hip_x,right_hip_y,right_hip_z,right_hip_visibility,left_knee_x,left_knee_y,left_knee_z,left_knee_visibility,right_knee_x,right_knee_y,right_knee_z,right_knee_visibility,left_ankle_x,left_ankle_y,left_ankle_z,left_ankle_visibility,right_ankle_x,right_ankle_y,right_ankle_z,right_ankle_visibility,left_wrist_x,left_wrist_y,left_wrist_z,left_wrist_visibility,right_wrist_x,right_wrist_y,right_wrist_z,right_wrist_visibility,trunk_lateral_inclination,center_mass_x,center_mass_y,left_knee_angle,right_knee_angle,person_height,center_mass_velocity_x,center_mass_velocity_y,center_mass_acceleration_x,center_mass_acceleration_y,body_orientation,torso_leg_ratio,frame,timestamp
0.4998725950717926,0.18535545468330383,-0.34048569202423096,0.9999775886535645,0.5612278580665588,0.3242398500442505,-0.15001028776168823,0.9999203681945801,0.4476168751716614,0.32670778036117554,-0.13449953496456146,0.9996939897537231,0.5387942790985107,0.6160603761672974,-0.006992099341005087,0.9993842840194702,0.47940197587013245,0.6237735152244568,0.0070226178504526615,0.9991297125816345,0.5313016772270203,0.8071368932723999,-0.07662656158208847,0.8753229975700378,0.4801584780216217,0.821558952331543,-0.011910810135304928,0.8682903051376343,0.5302683711051941,0.842683732509613,0.34189507365226746,0.3062446415424347,0.501011073589325,0.9276175498962402,0.28595513105392456,0.5113564729690552,0.5715978741645813,0.6366395950317383,-0.20076517760753632,0.9500049352645874,0.4420245587825775,0.6367380023002625,-0.20907345414161682,0.7602871656417847,-179.09021872162398,0.5090981274843216,0.6199169456958771,74.84748517180702,104.11396394616175,0.9582355624668282,0.0,0.0,0.0,0.0,178.75558020252262,0.4717917951784987,0,1762115281.573695
0.5003939867019653,0.18852631747722626,-0.335416704416275,0.9999787211418152,0.562687873840332,0.32313063740730286,-0.147531196475029,0.9999234676361084,0.4484793543815613,0.32508495450019836,-0.13408084213733673,0.9997124075889587,0.5388035774230957,0.6157557964324951,-0.0013831309042870998,0.9993820786476135,0.4795316159725189,0.6214174628257751,0.0014815328177064657,0.9991666078567505,0.5322660207748413,0.7883188724517822,0.028268393129110336,0.875123918056488,0.4813622832298279,0.8064103722572327,0.025293637067079544,0.8751198649406433,0.5302807092666626,0.8420026898384094,0.38015609979629517,0.33341455459594727,0.49981728196144104,0.9338197708129883,0.2485889494419098,0.542820394039154,0.5722330212593079,0.6312294602394104,-0.2015620768070221,0.9525032043457031,0.4434910714626312,0.6328116059303284,-0.19789603352546692,0.7707076668739319,-179.30271070585042,0.5091675966978073,0.6185866296291351,108.42273203549975,126.97974800634142,0.9547670227739693,0.0009048575829472194,-0.017327770393649924,0.011786044556059569,-0.22569946670672972,179.01965987759908,0.43516884921924526,1,1762115281.6504686
0.5007904767990112,0.1901552677154541,-0.33519238233566284,0.999979555606842,0.5634456872940063,0.3221505284309387,-0.1475742608308792,0.9999259114265442,0.4488714635372162,0.3238847553730011,-0.13412359356880188,0.9997261762619019,0.538821816444397,0.6154088377952576,-0.0005477186059579253,0.9993797540664673,0.47965317964553833,0.6199095249176025,0.0006502268370240927,0.9991891384124756,0.5329576730728149,0.7820753455162048,0.036353424191474915,0.8748112916946411,0.48190683126449585,0.7989785075187683,0.04898984730243683,0.8797411322593689,0.5303477048873901,0.8415920734405518,0.38665771484375,0.3583070933818817,0.49955302476882935,0.9334086179733276,0.26368144154548645,0.5685417652130127,0.5725184082984924,0.628201961517334,-0.2017093449831009,0.9546608924865723,0.4440684914588928,0.6297240853309631,-0.1900886595249176,0.7800949215888977,-179.4012967358507,0.5092374980449677,0.61765918135643,112.12762538324931,137.0757872165442,0.960504335827457,0.0011061633886564372,-0.014676531509268098,0.003185591140164253,0.04195489082289778,179.13282155471992,0.40947951823610773,2,1762115281.7136612
0.5026100873947144,0.19083213806152344,-0.32937949895858765,0.9999806880950928,0.5639994144439697,0.31895068287849426,-0.12857750058174133,0.9999252557754517,0.4499511122703552,0.3217920660972595,-0.1281338781118393,0.9997414350509644,0.5388146638870239,0.6149336099624634,-0.0006148988613858819,0.999381422996521,0.47993406653404236,0.6199724078178406,0.0006968589732423425,0.9992243051528931,0.5331650972366333,0.7841812968254089,0.021689796820282936,0.8771197199821472,0.48307862877845764,0.7974084615707397,0.03372597694396973,0.8855738639831543,0.5303611159324646,0.8433927893638611,0.37817618250846863,0.3851693272590637,0.49792248010635376,0.9543330669403076,0.2481071501970291,0.5988628268241882,0.5724547505378723,0.6218026280403137,-0.1652141511440277,0.9553576111793518,0.44489923119544983,0.6220479011535645,-0.18623092770576477,0.7931100130081177,-179.53731430383164,0.5093743652105331,0.617453008890152,106.94319667033345,136.7243659104482,0.9561767765111394,0.0017211823295195606,-0.0025927358422681156,0.007734212431154092,0.1519605925178117,178.5728363100085,0.39846001470593073,3,1762115281.7931805
0.5046092867851257,0.19078440964221954,-0.3451346158981323,0.999981701374054,0.5640180706977844,0.313311904668808,-0.12130041420459747,0.9999263286590576,0.45095157623291016,0.3198690116405487,-0.1295739859342575,0.9997575879096985,0.5390346646308899,0.6100219488143921,0.007146187126636505,0.9993963837623596,0.48097363114356995,0.6177962422370911,-0.0070623354986310005,0.9992747902870178,0.5333150625228882,0.7798449993133545,0.029195452108979225,0.8788042664527893,0.48698943853378296,0.7985970973968506,0.006455789320170879,0.8935310244560242,0.5299098491668701,0.8361653685569763,0.3987162113189697,0.40672674775123596,0.4978092312812805,0.9684535264968872,0.19236984848976135,0.6310495138168335,0.5719113349914551,0.6143118739128113,-0.16739162802696228,0.9538689851760864,0.44860950112342834,0.6156030893325806,-0.19399192929267883,0.7968058586120605,-179.5145168048303,0.5100041478872299,0.6139090955257416,106.07172700892845,136.7198150013754,0.9575078550886968,0.009331284442560407,-0.05250900805426028,0.11275640007466325,-0.7395931192731652,176.68094228581162,0.6793763779504458,4,1762115281.860672
0.5064226388931274,0.1907271295785904,-0.35044774413108826,0.999980628490448,0.5640906691551208,0.30838513374328613,-0.12560537457466125,0.9999125599861145,0.4534440040588379,0.3133106529712677,-0.14529022574424744,0.9997664093971252,0.538756251335144,0.6007954478263855,0.0071611604653298855,0.9993557929992676,0.48183417320251465,0.604827344417572,-0.007100286893546581,0.9992796182632446,0.5333566665649414,0.7671205997467041,0.04896235093474388,0.8845268487930298,0.4871792197227478,0.7790669202804565,0.032189950346946716,0.9007762670516968,0.5297104120254517,0.8350315690040588,0.3862850069999695,0.4496093988418579,0.4971862733364105,0.950925350189209,0.24227456748485565,0.6611539125442505,0.5714526772499084,0.5990594029426575,-0.1735454499721527,0.9421012997627258,0.4501533508300781,0.5983549952507019,-0.21191826462745667,0.7970495223999023,-179.70016790757825,0.5102952122688293,0.6028113961219788,115.49598515975302,142.01054948569973,0.9669896493715605,0.002976967026428603,-0.11350576464448921,-0.06499109688151093,-0.6238665551943338,177.45111820772232,0.48025268251883824,5,1762115281.958444
0.5071844458580017,0.1904885470867157,-0.34673258662223816,0.999979555606842,0.5641547441482544,0.30363258719444275,-0.1293264925479889,0.9998997449874878,0.455920934677124,0.30527493357658386,-0.1437455415725708,0.9997734427452087,0.5385395884513855,0.592312753200531,0.006025536917150021,0.9993265867233276,0.48273053765296936,0.5935339331626892,-0.005976154934614897,0.9992789626121521,0.5338728427886963,0.7364947199821472,0.06596250832080841,0.8912155032157898,0.4868904650211334,0.7500349879264832,0.07298578321933746,0.9075409173965454,0.5296226739883423,0.8237268924713135,0.3853563964366913,0.49471792578697205,0.4971335828304291,0.8865477442741394,0.3260868489742279,0.6904116868972778,0.5714074969291687,0.5850902795791626,-0.17666172981262207,0.9297388195991516,0.4507337212562561,0.5809701085090637,-0.2101057469844818,0.7967948317527771,-179.88137971169286,0.5106350630521774,0.5929233431816101,127.85220628723752,145.12148920832473,0.9670771774154078,0.00450936552928448,-0.13120124262114607,0.020332879382619812,-0.2347953346643335,179.13065708905165,0.19924227498764135,6,1762115282.0338097
0.5071475505828857,0.19038817286491394,-0.33656764030456543,0.9999775290489197,0.5641924738883972,0.30193641781806946,-0.13087472319602966,0.9998884797096252,0.4574974477291107,0.3025623559951782,-0.14322663843631744,0.9997762441635132,0.5384813547134399,0.5879364609718323,0.005378028843551874,0.9993137717247009,0.48351067304611206,0.5875784158706665,-0.005341334268450737,0.9992749691009521,0.5342099070549011,0.7376672625541687,0.05268322303891182,0.8963208198547363,0.4872375428676605,0.7471775412559509,0.06741438806056976,0.9119975566864014,0.5294119715690613,0.825455367565155,0.3677555322647095,0.534389317035675,0.497128427028656,0.8749583959579468,0.32421523332595825,0.7141830325126648,0.5713280439376831,0.580599308013916,-0.17758768796920776,0.9204798340797424,0.45134568214416504,0.58021080493927,-0.20364966988563538,0.7963374853134155,-179.96968665997818,0.510996013879776,0.5877574384212494,123.11122016415023,140.96824773044597,0.9493560158234295,0.0050959570629380046,-0.07293300593094255,0.008281585857189874,0.8226395663971624,179.66387182567814,0.05929522774531947,7,1762115282.1046405
0.5069631934165955,0.19020818173885345,-0.304097443819046,0.9999487400054932,0.5640832781791687,0.3007587790489197,-0.12650932371616364,0.9998489022254944,0.45716404914855957,0.30191129446029663,-0.10612110793590546,0.9997185468673706,0.5373653173446655,0.5903506278991699,-0.0037532062269747257,0.999279797077179,0.4829723834991455,0.5864219665527344,0.0037278891541063786,0.9992057085037231,0.5330630540847778,0.7422071099281311,0.03539802134037018,0.9013679623603821,0.4867210388183594,0.7407734990119934,0.0742490142583847,0.9151427149772644,0.5286144018173218,0.8324767351150513,0.32290464639663696,0.5735877752304077,0.49669161438941956,0.8617058396339417,0.33550769090652466,0.7359309196472168,0.5708230137825012,0.5763412714004517,-0.17418059706687927,0.8718815445899963,0.4510124623775482,0.5792573094367981,-0.1421092450618744,0.7541077136993408,179.9092188016111,0.5101688504219055,0.5883862972259521,121.8972225393458,139.40324937597188,0.9124698647237853,-0.012560960597821167,0.009549588527278849,-0.26813061542486083,1.2525464092225496,179.38241500534275,0.1646703681283452,8,1762115282.1704924
0.5068804621696472,0.1904294788837433,-0.2835947871208191,0.9999253749847412,0.5632321834564209,0.29885515570640564,-0.11523430049419403,0.9998313784599304,0.45728927850723267,0.2994735538959503,-0.09673570096492767,0.9996750354766846,0.5366204380989075,0.5875073075294495,-0.004643659107387066,0.9992693066596985,0.4829329550266266,0.5819923877716064,0.004604465328156948,0.9991623163223267,0.5328112244606018,0.73509281873703,0.03571142256259918,0.9051128029823303,0.4866012632846832,0.7307974696159363,0.07194995880126953,0.917170524597168,0.5282249450683594,0.8322486281394958,0.33070725202560425,0.6070250868797302,0.49671363830566406,0.8271418213844299,0.33403027057647705,0.7538033723831177,0.5708245038986206,0.5683549046516418,-0.16655519604682922,0.8459908962249756,0.45078450441360474,0.5668716430664062,-0.1405356228351593,0.7250598669052124,179.90289036561757,0.509776696562767,0.584749847650528,123.5305438699392,134.54740516910022,0.8877516667700823,-0.005069634513197963,-0.04701080926138255,0.09684536919172321,-0.7311939893681919,179.66556322067348,0.17511796161537008,9,1762115282.247846
0.5068870782852173,0.19031177461147308,-0.26986539363861084,0.9998745918273926,0.5623048543930054,0.29748594760894775,-0.11123424768447876,0.9997678995132446,0.4573308527469635,0.2975326180458069,-0.08880851417779922,0.9996005296707153,0.5363674163818359,0.5863628387451172,-0.005106688477098942,0.9992104768753052,0.4829036593437195,0.5790890455245972,0.005043588113039732,0.9990465044975281,0.5328055620193481,0.7294538021087646,0.03634572774171829,0.9077094197273254,0.48636594414711,0.7240759134292603,0.08251059055328369,0.9180343151092529,0.5281587839126587,0.8258817791938782,0.3343748450279236,0.6353616118431091,0.4955562949180603,0.7985869646072388,0.3479005992412567,0.7679827213287354,0.5707798004150391,0.5658624172210693,-0.15608257055282593,0.7963724732398987,0.4506658911705017,0.5639569759368896,-0.11163840442895889,0.6922523975372314,179.96337549438903,0.5096355378627777,0.5827259421348572,124.09337785689085,133.81020057690407,0.8718584919510779,-0.0017625891249013858,-0.025271654187940043,0.0412936803569875,0.2714476565730197,179.97452684624815,0.08021682664548126,10,1762115282.327932
0.5071045756340027,0.1913587599992752,-0.28042322397232056,0.9998553991317749,0.5613333582878113,0.29830020666122437,-0.1115277037024498,0.9997560977935791,0.45725321769714355,0.29761260747909546,-0.09951678663492203,0.9995715022087097,0.5359331369400024,0.5849953293800354,-0.00319427321664989,0.9992141127586365,0.4828774929046631,0.5772209763526917,0.0031040343455970287,0.9989984631538391,0.5328000783920288,0.7239407300949097,0.05779752880334854,0.9120848774909973,0.4859907627105713,0.7177802324295044,0.09903514385223389,0.9194828271865845,0.5280808210372925,0.8212786912918091,0.3374050259590149,0.663556694984436,0.49268874526023865,0.7678959369659424,0.3740064799785614,0.7797024846076965,0.5719505548477173,0.5673293471336365,-0.1520785093307495,0.7718411087989807,0.450522243976593,0.5593270063400269,-0.1294207125902176,0.6677265167236328,-179.9773313425296,0.5094053149223328,0.5811081528663635,132.90032180902466,134.65100253362672,0.8766729855440796,-0.0034120783598702484,-0.02397686235432965,-0.024446679868647007,0.019189795714798494,-179.62148438914875,0.11311708473446011,11,1762115282.3954048
0.5072313547134399,0.19210553169250488,-0.2719942033290863,0.9998487234115601,0.5603216886520386,0.2988128364086151,-0.11064346879720688,0.9997537136077881,0.4573765695095062,0.2977975010871887,-0.10155180841684341,0.9995565414428711,0.5355676412582397,0.5852208733558655,-0.0023376618046313524,0.9992243051528931,0.48288440704345703,0.5775936841964722,0.0022389134392142296,0.9989709854125977,0.5328002572059631,0.7200649976730347,0.05934217572212219,0.9165584444999695,0.4856971800327301,0.7156655788421631,0.09763452410697937,0.9213716983795166,0.5280071496963501,0.8173775672912598,0.34007933735847473,0.6898301243782043,0.49155527353286743,0.7636417150497437,0.36066722869873047,0.7913659811019897,0.5718979239463806,0.5666492581367493,-0.15141475200653076,0.7587488293647766,0.451368510723114,0.5575065016746521,-0.13470794260501862,0.6502386927604675,-179.92372192466289,0.5092260241508484,0.5814072787761688,133.70403174970883,134.98466135973817,0.863385932295378,-0.0023993057328092295,0.004002964035938537,0.013553130203087637,0.3744317529863936,-179.4349169443873,0.706466764180833,12,1762115282.470131
0.5072952508926392,0.19438546895980835,-0.27444392442703247,0.9998309016227722,0.5576521158218384,0.2992883324623108,-0.10102955996990204,0.999733567237854,0.4572862684726715,0.2980843186378479,-0.10601025819778442,0.9995328783988953,0.5351813435554504,0.5841218829154968,0.0015156448353081942,0.9992297887802124,0.48308414220809937,0.5777379274368286,-0.0016212587943300605,0.9989470839500427,0.5327816605567932,0.7181937098503113,0.06764236092567444,0.9210296869277954,0.4856392443180084,0.716769814491272,0.08925428241491318,0.9221271872520447,0.5274944305419922,0.818294882774353,0.33843958377838135,0.7125682830810547,0.4905012249946594,0.7508224248886108,0.3793087303638458,0.7913716435432434,0.5710262060165405,0.5622695684432983,-0.13375134766101837,0.7351908683776855,0.45136624574661255,0.55878084897995,-0.14256128668785095,0.6351272463798523,-179.6623011495359,0.5091327428817749,0.5809299051761627,136.54554273465925,129.87162625448585,0.8656783925119562,-0.0011484114497722255,-0.005877078147748086,0.015400104773045244,-0.12163592627625727,-179.31269845751203,7.787259503891,13,1762115282.5513573
0.5068543553352356,0.20503459870815277,-0.2721346318721771,0.9997873306274414,0.5553399324417114,0.3038497269153595,-0.10061172395944595,0.9996746182441711,0.4571850299835205,0.30002251267433167,-0.1074071079492569,0.9994784593582153,0.5340157747268677,0.5847188234329224,0.004019823856651783,0.999213695526123,0.48307889699935913,0.5787015557289124,-0.0040768953040242195,0.9988627433776855,0.5324457883834839,0.7191959023475647,0.06528523564338684,0.9259335994720459,0.48462820053100586,0.7199518084526062,0.08316537737846375,0.9236783385276794,0.5270562767982483,0.8192939162254333,0.30898532271385193,0.7351787686347961,0.4868854880332947,0.7124249935150146,0.3888842463493347,0.7783573269844055,0.5655972957611084,0.5586424469947815,-0.13379544019699097,0.682863175868988,0.4518505930900574,0.5594258904457092,-0.10372105985879898,0.5970574617385864,-179.5320880951291,0.5085473358631134,0.5817101895809174,136.82363572495618,120.29247591775648,0.8368104641194972,-0.010150455977312752,0.01352946283144135,-0.15608773685620114,0.3364927880973723,-177.76707845954664,1.4580033782072346,14,1762115282.6090302
0.5055447816848755,0.21248038113117218,-0.2630256712436676,0.9997755289077759,0.5529731512069702,0.30835816264152527,-0.0994444340467453,0.9996544718742371,0.4566226005554199,0.30442073941230774,-0.10752202570438385,0.9994036555290222,0.5316070318222046,0.5846612453460693,0.0039591495878994465,0.9992129802703857,0.482718288898468,0.578650712966919,-0.004021668806672096,0.9987455606460571,0.5304967164993286,0.717686116695404,0.07111950218677521,0.9311758875846863,0.482619047164917,0.7205346822738647,0.08089319616556168,0.9246091842651367,0.5265014171600342,0.8196001648902893,0.28967970609664917,0.7568084597587585,0.4861609935760498,0.6880136132240295,0.3771017789840698,0.7532897591590881,0.5643836259841919,0.5599214434623718,-0.1359342336654663,0.655500054359436,0.45181211829185486,0.5600026249885559,-0.1204025000333786,0.5704048275947571,-179.5077903662298,0.5071626603603363,0.5816559791564941,141.78478723528508,114.6314048183691,0.8054486608571357,-0.0167624410489676,-0.0006562541489404688,-0.08004258742064979,-0.1717277760342288,-177.65987558133438,10.386600515290366,15,1762115282.691636
0.5033150911331177,0.2179764211177826,-0.26463764905929565,0.9997393488883972,0.5499733686447144,0.3136826455593109,-0.10274418443441391,0.9996190667152405,0.45515698194503784,0.3076428174972534,-0.10202112048864365,0.9993219375610352,0.5294617414474487,0.5824659466743469,0.0036744922399520874,0.9991893172264099,0.4822973310947418,0.575968325138092,-0.003718525869771838,0.9985594153404236,0.5293475389480591,0.7153295874595642,0.06814433634281158,0.9354400038719177,0.48262304067611694,0.7171310186386108,0.08302643150091171,0.9248367547988892,0.5264812707901001,0.8215110898017883,0.26549774408340454,0.7770635485649109,0.4853617250919342,0.6788778901100159,0.389423668384552,0.7325334548950195,0.5593920350074768,0.5577512383460999,-0.13618215918540955,0.6108174324035645,0.45225539803504944,0.551741361618042,-0.0813111737370491,0.5341352820396423,-179.29292071851592,0.5058795362710953,0.5792171359062195,144.157718951243,114.4539302801782,0.7961427814752989,-0.020817296906307296,-0.03956758701252485,-0.06578563913054514,-0.6312941795992025,-176.35516878517825,51.153963011722794,16,1762115282.7532735
0.5027013421058655,0.22195695340633392,-0.2644352316856384,0.9997071623802185,0.5481757521629333,0.3163883686065674,-0.10329004377126694,0.9995836019515991,0.45480817556381226,0.3106227517127991,-0.10125376284122467,0.9992648959159851,0.528516948223114,0.5807495713233948,0.003503721207380295,0.9991600513458252,0.4821786880493164,0.5744591355323792,-0.0035469934809952974,0.9983550906181335,0.528364896774292,0.7131620049476624,0.06380440294742584,0.9396196603775024,0.4826347231864929,0.7177553772926331,0.0749158263206482,0.9249613881111145,0.5264278054237366,0.823350191116333,0.24607841670513153,0.7960408329963684,0.4856179356575012,0.6723681092262268,0.37928587198257446,0.7083132863044739,0.5569860935211182,0.5547698736190796,-0.13690270483493805,0.5714874863624573,0.4522075057029724,0.5510731935501099,-0.09382737427949905,0.5066858530044556,-179.163538469718,0.5053478181362152,0.577604353427887,145.63306904659595,110.22198761380267,0.7807999864424334,-0.0073984212499295056,-0.0224405439207009,0.18671263643979413,0.2383087415056663,-176.46636890685951,7.357650175346791,17,1762115282.8251426
0.5014389753341675,0.22583548724651337,-0.2631502151489258,0.9996708035469055,0.5466551780700684,0.3174082934856415,-0.10409879684448242,0.999538779258728,0.4538952708244324,0.31235048174858093,-0.09859386086463928,0.999169647693634,0.5263971090316772,0.5766173601150513,-0.0019447710365056992,0.9991248250007629,0.4821705222129822,0.5703293085098267,0.001921232556924224,0.998124897480011,0.5274976491928101,0.7068271636962891,0.05975634977221489,0.9435778856277466,0.4837983250617981,0.7057502269744873,0.09740660339593887,0.9237653017044067,0.5263680815696716,0.8235517740249634,0.215888112783432,0.8136822581291199,0.48582959175109863,0.6889722943305969,0.3892391622066498,0.6962116360664368,0.5526691675186157,0.5468798279762268,-0.14667552709579468,0.5280365943908691,0.4530901312828064,0.5339339375495911,-0.08256033807992935,0.4749351143836975,-179.11190124513536,0.5042838156223297,0.573473334312439,152.12201523585432,121.89856935286342,0.7755038356257734,-0.014356464309496771,-0.05573936876916099,-0.09388407973194797,-0.449297237785048,-176.87899011230132,8.871517798736482,18,1762115282.8992558
0.4997080862522125,0.22941233217716217,-0.2575627267360687,0.9996593594551086,0.5429461598396301,0.31766417622566223,-0.10439082235097885,0.999515950679779,0.452923059463501,0.31425604224205017,-0.09896361082792282,0.9990989565849304,0.5240271091461182,0.5690399408340454,-0.003507529618218541,0.9991099238395691,0.4821932911872864,0.5642539262771606,0.0034874260891228914,0.9979714155197144,0.5270559191703796,0.6957487463951111,0.047300297766923904,0.9473670125007629,0.4854455590248108,0.6922162175178528,0.10433556884527206,0.9237553477287292,0.5264962911605835,0.8209736943244934,0.1820472627878189,0.8301235437393188,0.4859333038330078,0.6948788166046143,0.38119545578956604,0.6952841281890869,0.5497623682022095,0.5457932949066162,-0.14892035722732544,0.4924227297306061,0.4543703496456146,0.5250660181045532,-0.09268561005592346,0.4477992653846741,-178.81725985401744,0.5031102001667023,0.566646933555603,154.7078912212816,128.78526162770012,0.7550422392305005,-0.014770882532099851,-0.0859156746895039,-0.0052157824403898136,-0.3797927744260974,-177.83190669044274,140.10195560335023,19,1762115282.9787104
0.49734434485435486,0.23345701396465302,-0.2617728114128113,0.9996462464332581,0.5391656756401062,0.3176463842391968,-0.111740842461586,0.9994791150093079,0.45162850618362427,0.31688642501831055,-0.1072736531496048,0.99908047914505,0.5212095975875854,0.561715841293335,-0.0064435238018631935,0.9990686178207397,0.48202913999557495,0.5582208633422852,0.006409263703972101,0.9977709054946899,0.526100754737854,0.6862406134605408,0.03878345340490341,0.9507008194923401,0.4877673089504242,0.6780949234962463,0.11913762986660004,0.9212619066238403,0.5262231826782227,0.8184036016464233,0.15436355769634247,0.8451106548309326,0.4884897768497467,0.7003928422927856,0.3800652027130127,0.6976701617240906,0.5460218191146851,0.5390031933784485,-0.14957837760448456,0.4553874731063843,0.4546193480491638,0.5285603404045105,-0.12296313047409058,0.4335870146751404,-178.53139957758123,0.5016193687915802,0.5599683523178101,158.687697377554,138.0925262711313,0.746017322867582,-0.02041569262514529,-0.09145760144179911,-0.07730096757421495,-0.07589206600690479,-179.50259572757028,14.694316793394679,20,1762115283.0517342
0.4935385584831238,0.23539108037948608,-0.25710856914520264,0.9996212720870972,0.5345629453659058,0.3174379765987396,-0.11106447875499725,0.9994127154350281,0.4505254328250885,0.31745973229408264,-0.10482923686504364,0.9990631341934204,0.51883864402771,0.5531855225563049,-0.008182728663086891,0.9990031719207764,0.481806218624115,0.5499781370162964,0.008135488256812096,0.9975411295890808,0.524570643901825,0.6772905588150024,0.023969730362296104,0.953866183757782,0.48769503831863403,0.6655943393707275,0.11842777580022812,0.9199597835540771,0.5260236859321594,0.8100705742835999,0.1399519145488739,0.858678936958313,0.4899887144565582,0.7065607905387878,0.3543528616428375,0.7074208855628967,0.5416355133056641,0.5274007320404053,-0.1416747272014618,0.4194108843803406,0.4555577337741852,0.524841845035553,-0.12156783044338226,0.4214562177658081,-178.09724962404215,0.5003224313259125,0.5515818297863007,153.3117346593756,143.4765808563371,0.7265938102298788,-0.016917117862374164,-0.10939293055888143,0.04563504654532839,-0.23394657383726733,179.98516722523084,4.149814353223811,21,1762115283.1283984
0.4924795627593994,0.23526723682880402,-0.2636290192604065,0.9996282458305359,0.5348972082138062,0.31827759742736816,-0.11589087545871735,0.9993867874145508,0.4497656226158142,0.3187878429889679,-0.10913487523794174,0.9990649223327637,0.5187128782272339,0.5524554252624512,-0.009731516242027283,0.9990077018737793,0.4815215468406677,0.5498534440994263,0.009674439206719398,0.99748694896698,0.5231705904006958,0.6786485314369202,0.027171272784471512,0.9562671780586243,0.4876999855041504,0.6673691868782043,0.12656083703041077,0.916800856590271,0.5260826349258423,0.8091870546340942,0.15843050181865692,0.8706557154655457,0.4902832508087158,0.7095820307731628,0.3648762106895447,0.7138714790344238,0.5420648455619812,0.5318427681922913,-0.14916500449180603,0.38922855257987976,0.45609092712402344,0.5279883742332458,-0.13318359851837158,0.41157177090644836,-178.08303858116076,0.5001172125339508,0.5511544346809387,151.12927446014615,144.86717773926443,0.7422042309839393,-0.003094086098809455,-0.0064438409443837346,0.20841000969850504,1.5521646142464418,179.65659552885188,2.8325844314103863,22,1762115283.1947246
0.49111971259117126,0.2356056421995163,-0.262908399105072,0.9996230006217957,0.5324000120162964,0.31783372163772583,-0.10710527002811432,0.9993704557418823,0.4491303861141205,0.3186911344528198,-0.10661530494689941,0.9990611672401428,0.5176888108253479,0.5467332005500793,-0.009274526499211788,0.9990203976631165,0.4807562828063965,0.5444006323814392,0.009207907132804394,0.997454822063446,0.5217804312705994,0.6723275780677795,0.021808190271258354,0.9584305286407471,0.4867614209651947,0.6624611616134644,0.11715251207351685,0.916121780872345,0.5257234573364258,0.7998195290565491,0.15613886713981628,0.8812695741653442,0.49051612615585327,0.7113083600997925,0.3642239570617676,0.7205914258956909,0.5376716256141663,0.5241883397102356,-0.13696403801441193,0.3603663742542267,0.45636647939682007,0.5212129950523376,-0.10819218307733536,0.3957658112049103,-177.8691713806277,0.4992225468158722,0.5455669164657593,147.40708679201492,143.6093093183637,0.7377456129934992,-0.009459789905692007,-0.05907988575145143,-0.06730806758114928,-0.5565496869722452,179.4100562000816,2.1967903733109333,23,1762115283.2893002
0.4889284074306488,0.23447763919830322,-0.26898860931396484,0.9996175169944763,0.5299105644226074,0.3133169710636139,-0.10898270457983017,0.9993804693222046,0.44890648126602173,0.3179425001144409,-0.10659565031528473,0.9990792870521545,0.51661217212677,0.5324651002883911,-0.008828544989228249,0.9990443587303162,0.4799893796443939,0.5316531658172607,0.008783155120909214,0.9974771738052368,0.521263062953949,0.6572599411010742,0.01881520263850689,0.9605749845504761,0.4854433536529541,0.6502658128738403,0.11671377718448639,0.9165592193603516,0.5252050161361694,0.7832939028739929,0.16265271604061127,0.8910828828811646,0.49053484201431274,0.7114949822425842,0.3635474443435669,0.7315881848335266,0.5350815653800964,0.5125777125358582,-0.13562306761741638,0.33844709396362305,0.45652657747268677,0.5136751532554626,-0.08768673986196518,0.3858059346675873,-177.6472596558341,0.49830077588558197,0.5320591330528259,143.71693258502128,146.2332303808229,0.739297505684625,-0.01235472083391919,-0.18104811908018356,-0.03880146604369955,-1.6347700104931246,176.73182150880908,1.9683051455490934,24,1762115283.363909
0.4876475930213928,0.23366722464561462,-0.26922711730003357,0.9996269941329956,0.5280993580818176,0.30747875571250916,-0.11327771842479706,0.9994022846221924,0.44879770278930664,0.3154628872871399,-0.11249569803476334,0.9991356134414673,0.5162185430526733,0.5238823890686035,-0.008973101153969765,0.9990604519844055,0.4794486463069916,0.5251677632331848,0.008928367868065834,0.9975613951683044,0.520666241645813,0.6483909487724304,0.02165129780769348,0.9620572924613953,0.48409968614578247,0.6432988047599792,0.11750654131174088,0.9168041944503784,0.5240622758865356,0.767141580581665,0.175310418009758,0.8992161750793457,0.49093061685562134,0.7114781737327576,0.3375559449195862,0.7481802701950073,0.5354527235031128,0.507655143737793,-0.13724078238010406,0.32988446950912476,0.45645251870155334,0.5170625448226929,-0.12888896465301514,0.3994244337081909,-177.47774493215533,0.49783359467983246,0.5245250761508942,141.5143994698974,149.8126405970791,0.72964869541147,-0.005761947329420482,-0.09292077359178537,0.08131151942804829,1.0869125656952283,174.2508048209633,1.8349978301089256,25,1762115283.4449894
0.4864002764225006,0.23358997702598572,-0.28930699825286865,0.9996294975280762,0.5263679027557373,0.3006160259246826,-0.12444595247507095,0.9994208812713623,0.44868549704551697,0.31003230810165405,-0.12719841301441193,0.9991856217384338,0.5158530473709106,0.5136590600013733,-0.008886112831532955,0.9990754723548889,0.47893190383911133,0.5150930881500244,0.008846643380820751,0.9976736307144165,0.5194350481033325,0.6336826086044312,0.03675694763660431,0.9626343250274658,0.4833899438381195,0.6270413398742676,0.11383654177188873,0.9185692071914673,0.5219386219978333,0.7461937665939331,0.20242492854595184,0.9055225253105164,0.49138039350509644,0.7110044956207275,0.31592661142349243,0.7650941610336304,0.5353463292121887,0.5009142756462097,-0.13904713094234467,0.3236125111579895,0.45559707283973694,0.5141888856887817,-0.14625141024589539,0.40690961480140686,-177.29804799343623,0.497392475605011,0.5143760740756989,144.9963015779424,155.73020621461475,0.7391061129039183,-0.005837050789814905,-0.13429535007713592,-0.0009937967724259489,-0.5474837025576681,173.08860351690345,1.8799073090104452,26,1762115283.5205617
0.4857671856880188,0.23321256041526794,-0.3014048933982849,0.9996246695518494,0.5268570780754089,0.3003902733325958,-0.1298544853925705,0.9994274973869324,0.4486679434776306,0.30912166833877563,-0.13261181116104126,0.9992241859436035,0.5160753726959229,0.5123875737190247,-0.007974962703883648,0.999098002910614,0.47858762741088867,0.5125805139541626,0.007916713133454323,0.9977923631668091,0.5189952850341797,0.6337930560112,0.049120187759399414,0.9628570675849915,0.4833795130252838,0.6291563510894775,0.11327703297138214,0.9197857975959778,0.5216817855834961,0.7429317831993103,0.2335401475429535,0.9108070731163025,0.491737425327301,0.7105386853218079,0.3260522782802582,0.779727578163147,0.535257875919342,0.4972493052482605,-0.14013944566249847,0.31639647483825684,0.45501288771629333,0.5152066349983215,-0.1493699550628662,0.4091651141643524,-177.3625356283766,0.49733150005340576,0.5124840438365936,145.80199052498972,153.04794621785567,0.7627568029988062,-0.0009836424964327335,-0.030521763210424494,0.07829398052547862,1.6740498013076588,173.62816835204876,1.7325061819920546,27,1762115283.5825512
0.4844697117805481,0.23068347573280334,-0.29318973422050476,0.9996190071105957,0.526529848575592,0.2981325387954712,-0.12590402364730835,0.99943608045578,0.4483035206794739,0.3073013424873352,-0.12663404643535614,0.9992648959159851,0.5161103010177612,0.509531557559967,-0.005773512646555901,0.9991110563278198,0.4781529903411865,0.5106328725814819,0.005706402473151684,0.9979063868522644,0.5191174745559692,0.6280343532562256,0.05678278207778931,0.9620208740234375,0.4833967089653015,0.6275573968887329,0.09059034287929535,0.9217949509620667,0.5212039947509766,0.7293807864189148,0.2599210739135742,0.9141315221786499,0.49245554208755493,0.7103021144866943,0.3011277914047241,0.7934989333152771,0.53516685962677,0.4940384328365326,-0.12424574792385101,0.3110608458518982,0.45475131273269653,0.5132268071174622,-0.1402849406003952,0.4140040874481201,-177.31768223267017,0.4971316456794739,0.5100822150707245,144.33801401548004,147.45517575247703,0.7542701383744921,-0.0028649598239156217,-0.03443078468968205,-0.026969129838067953,-0.05603674950198016,173.31493949041732,1.743007649519481,28,1762115283.6523094
0.4835364818572998,0.22792313992977142,-0.27884823083877563,0.9996044039726257,0.5258923172950745,0.29325324296951294,-0.11981302499771118,0.9994252324104309,0.448344886302948,0.3054700791835785,-0.11758394539356232,0.9992976784706116,0.5163328647613525,0.5058754086494446,-0.005948513280600309,0.9990864992141724,0.4781802296638489,0.5077772736549377,0.00588945671916008,0.9979994893074036,0.5188876390457153,0.6202021241188049,0.060617320239543915,0.9596970677375793,0.48334845900535583,0.6174308061599731,0.08201681077480316,0.9229059815406799,0.5187773108482361,0.7135264277458191,0.26640158891677856,0.91469806432724,0.49278849363327026,0.7064705491065979,0.2818131148815155,0.8058214783668518,0.5354753136634827,0.4866112470626831,-0.12814021110534668,0.30966097116470337,0.4547240138053894,0.5103043913841248,-0.13668391108512878,0.4241941273212433,-177.20241631155199,0.4972565472126007,0.5068263411521912,144.5856570501281,148.81325601624067,0.7339287576658066,0.002102784043928167,-0.0548143770019347,0.08363462223491243,-0.34316866734227586,171.047194955018,2.172795616571212,29,1762115283.7117076
0.4827767312526703,0.22655294835567474,-0.27832454442977905,0.9996137022972107,0.5250762701034546,0.29082226753234863,-0.11946308612823486,0.9994280934333801,0.44852787256240845,0.3042527735233307,-0.11745920032262802,0.9993261098861694,0.5162144303321838,0.498748779296875,-0.006238976493477821,0.9991000294685364,0.478203684091568,0.5013926029205322,0.0061777373775839806,0.9981189966201782,0.5183129906654358,0.6092510223388672,0.07986366003751755,0.9559950828552246,0.4837948679924011,0.608967661857605,0.09717659652233124,0.9214107394218445,0.517198920249939,0.6964255571365356,0.2976974844932556,0.9124684929847717,0.49348706007003784,0.704323410987854,0.3058758080005646,0.8154623508453369,0.5358808040618896,0.48274388909339905,-0.13198597729206085,0.3171447515487671,0.45454636216163635,0.508207380771637,-0.13868258893489838,0.4356212913990021,-177.05849462414847,0.4972090572118759,0.5000706911087036,149.7130121842049,154.801429840073,0.7493631144436476,-0.0007661293424413059,-0.10898508415643558,-0.04628255827911253,-0.8739054036314643,170.04867435706717,2.4258364365311067,30,1762115283.7736945
0.4826856255531311,0.2251955270767212,-0.27477413415908813,0.9996435642242432,0.5241160988807678,0.2899158298969269,-0.11564169824123383,0.999460756778717,0.44903048872947693,0.30334705114364624,-0.1155303344130516,0.9993634819984436,0.515434980392456,0.49562200903892517,-0.007280867546796799,0.9991052150726318,0.4781961441040039,0.498759388923645,0.007226614747196436,0.9982221126556396,0.51697838306427,0.6095303297042847,0.07060455530881882,0.9561552405357361,0.48381561040878296,0.6087525486946106,0.09206761419773102,0.9225713610649109,0.5159331560134888,0.68372642993927,0.28230273723602295,0.910784900188446,0.49361318349838257,0.7044351100921631,0.2932243347167969,0.8268327713012695,0.5361960530281067,0.4811380207538605,-0.13335958123207092,0.3580528795719147,0.45410293340682983,0.5023593902587891,-0.1451476514339447,0.46737855672836304,-177.0765279145874,0.49681556224823,0.4971906989812851,143.66387348316127,153.10273724405306,0.7326594440641204,-0.0049655885671305005,-0.03634317412561113,-0.05299378299797153,0.91668222282039,169.8582643095203,2.3399277108059304,31,1762115283.852939
0.4823465347290039,0.22436639666557312,-0.2728358507156372,0.9996729493141174,0.5237364172935486,0.28959977626800537,-0.11118870973587036,0.9994939565658569,0.4495977759361267,0.3024812340736389,-0.1152847558259964,0.9994025230407715,0.5145062804222107,0.49172982573509216,-0.006885988172143698,0.9991052746772766,0.4781016409397125,0.49597084522247314,0.006834791041910648,0.9983166456222534,0.5162147283554077,0.6046673655509949,0.06978709995746613,0.9558044672012329,0.48381906747817993,0.6070982813835144,0.07782778143882751,0.9242273569107056,0.5150185823440552,0.6814379096031189,0.27340516448020935,0.9104645848274231,0.4936756193637848,0.704718291759491,0.275729238986969,0.837418794631958,0.5364274978637695,0.47832921147346497,-0.12806418538093567,0.4006391167640686,0.4538511335849762,0.49902862310409546,-0.14281252026557922,0.5004510283470154,-177.21087961853195,0.4963039606809616,0.49385033547878265,144.81339180225737,148.8557747514629,0.7209887573477677,-0.008072092795798834,-0.05270453784547325,-0.049014686444848445,-0.25815098049389484,170.14335912805313,2.2249855769903535,32,1762115283.916318
0.4824492335319519,0.2241356074810028,-0.26959219574928284,0.9996979236602783,0.5239737033843994,0.2890213429927826,-0.11147327721118927,0.9995198249816895,0.45138201117515564,0.30216652154922485,-0.11071121692657471,0.9994337558746338,0.5144504308700562,0.490614652633667,-0.008010677993297577,0.9990987181663513,0.47807732224464417,0.4937376379966736,0.007962776347994804,0.9983932971954346,0.5152967572212219,0.603003203868866,0.022365443408489227,0.9556252360343933,0.4836810231208801,0.6037833094596863,0.06922458857297897,0.9246681928634644,0.5146344900131226,0.6712337732315063,0.26610398292541504,0.9067952036857605,0.49366456270217896,0.703705906867981,0.2698281407356262,0.846388041973114,0.5365413427352905,0.47644346952438354,-0.12922047078609467,0.43726229667663574,0.45358434319496155,0.49746331572532654,-0.1410951018333435,0.5331986546516418,-177.49911143188197,0.49626387655735016,0.4921761453151703,120.75967218075616,145.61494542882852,0.7100129534529771,-0.0004980596042185093,-0.020802412904372555,0.09411007735388709,0.39639533786277525,169.7358900059115,1.8418467108724341,33,1762115283.9967985
0.482644647359848,0.22373053431510925,-0.24826101958751678,0.9997218251228333,0.5243163704872131,0.2890948951244354,-0.09948931634426117,0.9995442628860474,0.45327797532081604,0.3017735481262207,-0.0916919931769371,0.999470055103302,0.5143312215805054,0.4902750253677368,-0.008571023121476173,0.9990937113761902,0.4780721664428711,0.49286511540412903,0.008528921753168106,0.9984840154647827,0.5155920386314392,0.6019368767738342,0.016185950487852097,0.955286979675293,0.4834984838962555,0.602678120136261,0.06073901057243347,0.9267081618309021,0.5149794816970825,0.6660125255584717,0.2618735432624817,0.9025446176528931,0.4936961531639099,0.7035005688667297,0.2574487328529358,0.8554665446281433,0.5368334054946899,0.47355949878692627,-0.12112189829349518,0.47361934185028076,0.45351290702819824,0.4931482970714569,-0.1147594079375267,0.5669824481010437,-177.83799628825045,0.49620169401168823,0.4915700703859329,117.11366809188766,142.60272268907073,0.6862947591398708,-0.0008515798203540025,-0.008300097300085872,-0.0048414016979125,0.17121717296991223,169.8806236947563,1.5446822463853769,34,1762115284.0698187
0.4827955663204193,0.2237255871295929,-0.2365855872631073,0.9997455477714539,0.5245227217674255,0.2895905673503876,-0.10076700150966644,0.9995778799057007,0.4555525779724121,0.30151885747909546,-0.07593224942684174,0.9995028972625732,0.5144093632698059,0.4900195598602295,-0.011567695066332817,0.9991185069084167,0.4780851900577545,0.49119699001312256,0.011526660993695259,0.998584508895874,0.5157754421234131,0.6012314558029175,0.006926408968865871,0.9555526375770569,0.483041375875473,0.6009169816970825,0.05499669909477234,0.9297926425933838,0.515195369720459,0.6628414392471313,0.2550930082798004,0.8987998962402344,0.4936886429786682,0.7033897042274475,0.24013963341712952,0.8648088574409485,0.537724494934082,0.47436967492103577,-0.12598209083080292,0.5180453658103943,0.4534669518470764,0.48856985569000244,-0.09770072996616364,0.5986002087593079,-178.1765763206003,0.4962472766637802,0.490608274936676,113.37961140549078,140.6147256518157,0.6678017775827513,0.0007219117563766118,-0.015232361659146262,0.024920052161713984,-0.10978920509096014,170.1878377905685,1.2333909470859097,35,1762115284.1329603
0.4834354519844055,0.22424136102199554,-0.23385509848594666,0.9997643828392029,0.525390088558197,0.2897041440010071,-0.09597306698560715,0.9996020197868347,0.4583950936794281,0.30163681507110596,-0.07661586254835129,0.9995288252830505,0.5145415663719177,0.4907292127609253,-0.011246413923799992,0.999126672744751,0.4783268868923187,0.49127334356307983,0.011209818534553051,0.9986547231674194,0.5159146189689636,0.6029885411262512,0.0173956211656332,0.9561553597450256,0.48289626836776733,0.6023728251457214,0.06401963531970978,0.9322463274002075,0.5152289867401123,0.6655991077423096,0.25507310032844543,0.8981204032897949,0.4936840534210205,0.702969491481781,0.25344207882881165,0.8727170825004578,0.5387231111526489,0.4739586412906647,-0.1273525059223175,0.5533288717269897,0.4538721442222595,0.48905670642852783,-0.10311953723430634,0.6249817609786987,-178.66805607590157,0.4964342266321182,0.49100127816200256,119.06548807660636,143.42075583135957,0.6710703293248012,0.0029383384546204003,0.006176927977216518,0.034836121435024785,0.33649505043451605,169.9007917097297,0.89896413726789,36,1762115284.1965847
0.4835451543331146,0.22523878514766693,-0.22873958945274353,0.9997836947441101,0.5257300734519958,0.2900426983833313,-0.09457272291183472,0.9996301531791687,0.4591384530067444,0.30176234245300293,-0.07078880071640015,0.9995549917221069,0.5146046280860901,0.49003714323043823,-0.011763040907680988,0.9991446137428284,0.478384792804718,0.4903150796890259,0.011730181984603405,0.9987225532531738,0.5158793926239014,0.603678822517395,0.011175816878676414,0.9574283957481384,0.4826381206512451,0.6029753684997559,0.06020153686404228,0.9353930354118347,0.5145868062973022,0.6676868796348572,0.23807156085968018,0.8992717266082764,0.4936556816101074,0.7030645608901978,0.24013876914978027,0.880961537361145,0.5395392775535583,0.4737948477268219,-0.12794969975948334,0.5892060995101929,0.45394381880760193,0.4878336489200592,-0.09657984972000122,0.6502517461776733,-178.80265444323038,0.49649471044540405,0.49017611145973206,117.15871669703553,142.3843667072569,0.6565272947824377,0.0006962073082042345,-0.009498195589829438,-0.025808361035547317,-0.18043068040055196,170.0185722406839,0.8348838913521845,37,1762115284.2834609
0.4861937165260315,0.22665609419345856,-0.23791971802711487,0.9998003840446472,0.5280618667602539,0.29243189096450806,-0.09606443345546722,0.9996509552001953,0.4611496031284332,0.30271023511886597,-0.08042658865451813,0.9995765686035156,0.515001654624939,0.4905534088611603,-0.011526186019182205,0.999172031879425,0.47881025075912476,0.4912388324737549,0.01149150263518095,0.9988034963607788,0.5157840251922607,0.6026239395141602,0.013692150823771954,0.9578598737716675,0.48263782262802124,0.6017215251922607,0.06215578317642212,0.9382545948028564,0.5147312879562378,0.6570572257041931,0.26504868268966675,0.8976632356643677,0.49351057410240173,0.7028322219848633,0.23694846034049988,0.8882503509521484,0.5400624871253967,0.474945604801178,-0.13434013724327087,0.6136434078216553,0.4551905691623688,0.48974716663360596,-0.10701082646846771,0.6642029285430908,-179.3183162499087,0.49690595269203186,0.4908961206674576,114.89726304651003,144.690015510024,0.6669580651282809,0.0050886822455548245,0.008909342612615537,0.05435217176986671,0.22777356558877448,171.26709668633825,0.468380047486663,38,1762115284.364276
0.48888254165649414,0.22869692742824554,-0.2380889654159546,0.9998131394386292,0.5302325487136841,0.2946501672267914,-0.09813785552978516,0.9996563196182251,0.46365928649902344,0.3046858310699463,-0.08407052606344223,0.9995956420898438,0.5152555704116821,0.4914790689945221,-0.010379827581346035,0.9991782307624817,0.4796498417854309,0.4922792613506317,0.01034922618418932,0.9988647103309631,0.5151971578598022,0.6004340648651123,0.027955394238233566,0.9580994248390198,0.4827110171318054,0.6002491116523743,0.06485921144485474,0.9408698081970215,0.5145712494850159,0.6549801826477051,0.2670053243637085,0.8961854577064514,0.4932524263858795,0.7022720575332642,0.2435460090637207,0.8946844339370728,0.5400863289833069,0.4759453237056732,-0.13485443592071533,0.6279909610748291,0.45690494775772095,0.4902499318122864,-0.11655040830373764,0.6791092753410339,-179.8489329469044,0.4974527060985565,0.4918791651725769,122.23645162628009,146.5019793377996,0.6678853332667057,0.007997998102731508,0.014380135529142602,0.04255794738225633,0.08002765203594045,171.4274277308507,0.10220084643726426,39,1762115284.4326372
0.4915634095668793,0.23111766576766968,-0.24674132466316223,0.9998270273208618,0.531919538974762,0.29675209522247314,-0.11038647592067719,0.9996731281280518,0.4660893380641937,0.305279940366745,-0.09714087843894958,0.9996188879013062,0.5162451267242432,0.48771023750305176,-0.010152226313948631,0.9991818070411682,0.48107457160949707,0.48895925283432007,0.010122699663043022,0.9989292025566101,0.5145793557167053,0.5967257022857666,0.03006182610988617,0.9588258266448975,0.48304885625839233,0.5973786115646362,0.061050914227962494,0.9436616897583008,0.5140542387962341,0.6528668999671936,0.26357322931289673,0.8957661390304565,0.49322548508644104,0.7022255659103394,0.21997401118278503,0.9012370705604553,0.5405537486076355,0.47569918632507324,-0.14180848002433777,0.6514456868171692,0.45859307050704956,0.49128279089927673,-0.1284022331237793,0.6935606002807617,179.89459946917674,0.4986598491668701,0.4883347451686859,123.76354156637544,148.52142434832683,0.6618845501216896,0.019504765316814596,-0.05726999738042406,0.18592393889106243,-1.1577078674460948,172.61883545300688,0.07139150102197356,40,1762115284.4945269
0.4940958023071289,0.23329073190689087,-0.2469882220029831,0.9998404383659363,0.5339105725288391,0.29736125469207764,-0.11047269403934479,0.9996897578239441,0.4684375822544098,0.3052895665168762,-0.09879094362258911,0.99964439868927,0.5167211294174194,0.4831118583679199,-0.008345996960997581,0.9991920590400696,0.48192930221557617,0.48438796401023865,0.008313259109854698,0.9989959001541138,0.5142465233802795,0.5922853350639343,0.035992059856653214,0.9586670994758606,0.48347267508506775,0.5934572815895081,0.058829814195632935,0.945951521396637,0.5138143301010132,0.6499958634376526,0.25895166397094727,0.8946090936660767,0.49321308732032776,0.6991627812385559,0.21414954960346222,0.9066481590270996,0.5405888557434082,0.47403085231781006,-0.14161230623722076,0.6738839745521545,0.46051234006881714,0.49146461486816406,-0.12709705531597137,0.7084187269210815,179.41933052831695,0.4993252158164978,0.4837499111890793,126.6069385076543,149.02335628380794,0.6547015472362805,0.00886380094521801,-0.06107768669326151,-0.14175551195384772,-0.05072481488080392,173.09550704425925,0.39716822641134636,41,1762115284.5695925
0.493913471698761,0.23470169305801392,-0.23514099419116974,0.9998506903648376,0.5342870354652405,0.2983897924423218,-0.11042292416095734,0.9997051954269409,0.4691646099090576,0.30537840723991394,-0.08474744856357574,0.9996614456176758,0.516739547252655,0.48269981145858765,-0.00977911427617073,0.9991912245750427,0.4824126660823822,0.4836205840110779,0.009754794649779797,0.9990527033805847,0.5140832662582397,0.5934739112854004,0.030367393046617508,0.9590368270874023,0.4838307797908783,0.5928797125816345,0.04649711027741432,0.9482523798942566,0.5138839483261108,0.6513501405715942,0.23851045966148376,0.8942649960517883,0.493269145488739,0.6987634897232056,0.18123921751976013,0.911719799041748,0.5406553745269775,0.4729609191417694,-0.14157502353191376,0.6970531344413757,0.4616664946079254,0.4894464313983917,-0.11356761306524277,0.7203070521354675,179.32057296482913,0.4995761066675186,0.48316019773483276,125.45000927753405,146.67574290166317,0.6261350493298693,0.0038499707313503825,-0.00904927194234076,-0.07693823627609792,0.7983865221653164,173.8747440134907,0.46525374051244134,42,1762115284.6347594
0.4962473511695862,0.23467887938022614,-0.2428705394268036,0.9998586177825928,0.5348705053329468,0.2983437478542328,-0.10974659770727158,0.9997105598449707,0.46993589401245117,0.305094838142395,-0.10123834758996964,0.9996810555458069,0.5169454216957092,0.4783473014831543,-0.006133165210485458,0.9991611838340759,0.4830889105796814,0.48037707805633545,0.006120514590293169,0.9990969300270081,0.5141412615776062,0.5877826809883118,0.04589295759797096,0.9595867395401001,0.48472681641578674,0.5904756188392639,0.04157112538814545,0.9505987763404846,0.5139309167861938,0.6531704068183899,0.2403274029493332,0.8973627090454102,0.49324139952659607,0.6968452334403992,0.18334442377090454,0.9164743423461914,0.5403429269790649,0.4707547128200531,-0.13527646660804749,0.7091647386550903,0.46268001198768616,0.48746660351753235,-0.1292867511510849,0.7293416857719421,179.2304706042023,0.5000171661376953,0.4793621897697449,133.99910539574287,144.6902429907907,0.6330097885146327,0.006940900921857823,-0.05976880391104841,0.048641604271860345,-0.7981672994273691,174.06442514667552,0.57451603078417,43,1762115284.6983044
0.4977622628211975,0.23444904386997223,-0.24878302216529846,0.9998663663864136,0.5356751680374146,0.29830554127693176,-0.1100396141409874,0.999719500541687,0.47100868821144104,0.30351412296295166,-0.10459905862808228,0.9997020363807678,0.5172325968742371,0.4751570522785187,-0.003911163192242384,0.9991713762283325,0.48362666368484497,0.47725364565849304,0.003893991932272911,0.9991570711135864,0.5145888924598694,0.5836222171783447,0.05295402556657791,0.9604775309562683,0.4854122996330261,0.5868120789527893,0.03483393043279648,0.9532105922698975,0.5139567852020264,0.6505587100982666,0.2558960020542145,0.900027871131897,0.49256324768066406,0.6922022700309753,0.17831553518772125,0.9211938977241516,0.5400694608688354,0.47013434767723083,-0.13386210799217224,0.7232677340507507,0.4633096754550934,0.4850379228591919,-0.13202430307865143,0.7402235269546509,179.04819570595964,0.500429630279541,0.47620534896850586,135.90984015076626,142.0548143842164,0.6387422636313528,0.005202678928548874,-0.039819289608776585,-0.021925326398704748,0.2516362203772872,175.39503479780743,0.8932277105874166,44,1762115284.7775836
0.49916988611221313,0.2333056628704071,-0.24836328625679016,0.9998745322227478,0.53659588098526,0.2979920506477356,-0.10961170494556427,0.9997308850288391,0.4714096188545227,0.3004208207130432,-0.1026604026556015,0.9997199177742004,0.5172678828239441,0.47102484107017517,-0.0033899382688105106,0.9991833567619324,0.483628511428833,0.47199681401252747,0.0033733497839421034,0.9992002844810486,0.5147609710693359,0.5799802541732788,0.047686103731393814,0.9612627029418945,0.4859348237514496,0.5815130472183228,0.04072633385658264,0.9552855491638184,0.513706624507904,0.6502644419670105,0.2426980435848236,0.9038622379302979,0.4922409951686859,0.6838818192481995,0.19383323192596436,0.9254329800605774,0.5398465394973755,0.4690139889717102,-0.1281144917011261,0.7356265783309937,0.4637836813926697,0.478177934885025,-0.13115450739860535,0.7481295466423035,178.8181845672519,0.5004481971263885,0.4715108275413513,134.9290065095421,142.60222838409757,0.6371116374919105,0.00023374304023531884,-0.059100595800879445,-0.06255527342937311,-0.24273756152885745,177.86620786744604,1.3531295355518849,45,1762115284.8570163
0.5003532767295837,0.23047684133052826,-0.2367860972881317,0.9998835325241089,0.5367228388786316,0.2962587773799896,-0.10113786160945892,0.9997467398643494,0.47193899750709534,0.29746589064598083,-0.09448310732841492,0.999736487865448,0.5172292590141296,0.4679131805896759,-0.0032062723767012358,0.9992009401321411,0.48353490233421326,0.46734029054641724,0.0031877767760306597,0.999232828617096,0.5147709250450134,0.5753259658813477,0.04518251493573189,0.9623814225196838,0.4863980710506439,0.5756682753562927,0.04239097982645035,0.9572545289993286,0.5130871534347534,0.6493043899536133,0.22075267136096954,0.9091036915779114,0.4917446970939636,0.6746484637260437,0.197043314576149,0.9293892979621887,0.5394220948219299,0.46594953536987305,-0.12302917242050171,0.7517200708389282,0.46404966711997986,0.4717216193675995,-0.1172330230474472,0.7594236731529236,178.67530114032257,0.5003820806741714,0.46762673556804657,137.0968739157712,142.52466810014377,0.6203470440983903,-0.0010436071126164268,-0.06130797817292313,-0.020162178400627295,-0.034842159046353675,178.93253484747515,2.15497646131349,46,1762115284.92037
0.5004485249519348,0.23014569282531738,-0.240605428814888,0.9998906254768372,0.5369342565536499,0.2955590486526489,-0.10557643324136734,0.9997611045837402,0.47207242250442505,0.2956746220588684,-0.09449930489063263,0.9997500777244568,0.5172311067581177,0.4663147032260895,-0.0039109522476792336,0.9992101192474365,0.4834689497947693,0.46561360359191895,0.0039026972372084856,0.9992456436157227,0.5146888494491577,0.5758379101753235,0.024329006671905518,0.9640862941741943,0.4864700734615326,0.5759108066558838,0.04459355026483536,0.9593313932418823,0.5126604437828064,0.6486647725105286,0.2105552852153778,0.9142691493034363,0.49143773317337036,0.6729629039764404,0.20301978290081024,0.9336561560630798,0.53883957862854,0.46586087346076965,-0.12416839599609375,0.7626545429229736,0.46393007040023804,0.46876755356788635,-0.11537525802850723,0.7662388682365417,178.60332365793744,0.5003500282764435,0.4659641534090042,125.8189898808516,141.75189392392835,0.6209976461386872,-0.0003602937826458662,-0.018688711531813052,0.00768097121709643,0.4790735757755937,179.8979081999551,2.8241771627768957,47,1762115285.009332
0.5011168122291565,0.22936676442623138,-0.24283888936042786,0.9998971819877625,0.5373426675796509,0.29474174976348877,-0.10824873298406601,0.9997766613960266,0.47261300683021545,0.2939627468585968,-0.096464142203331,0.9997633099555969,0.5172368288040161,0.4634753465652466,-0.004110615700483322,0.9992273449897766,0.4834896922111511,0.46267086267471313,0.00410082470625639,0.9992577433586121,0.5148547887802124,0.5700785517692566,0.027662714943289757,0.9657540917396545,0.4866185784339905,0.5719080567359924,0.04533335193991661,0.9612510800361633,0.5121594667434692,0.6474783420562744,0.2025684416294098,0.9198125004768372,0.4914514124393463,0.6654728055000305,0.20331835746765137,0.9373900890350342,0.5387645959854126,0.4616926908493042,-0.12544076144695282,0.7748332619667053,0.4638163447380066,0.4669894278049469,-0.11562812328338623,0.7736065983772278,178.4333301884448,0.5003632605075836,0.46307310461997986,130.4716643653536,141.32591877602735,0.6173688187287805,0.0001925184887125196,-0.042062471382386814,0.008042980952836658,-0.34006970361276007,-179.31049501071803,4.313672243994774,48,1762115285.0780642
0.5019819736480713,0.22798648476600647,-0.24369843304157257,0.9999043345451355,0.5373085737228394,0.293864905834198,-0.10887454450130463,0.9997920393943787,0.47248807549476624,0.2923157811164856,-0.1017899364233017,0.9997743964195251,0.5172213315963745,0.46419093012809753,-0.004123576916754246,0.9992623925209045,0.48345938324928284,0.4626401662826538,0.004106486216187477,0.9992811679840088,0.5148444175720215,0.5671586990356445,0.03139653429389,0.9667913913726807,0.48658403754234314,0.5681889653205872,0.0532999113202095,0.9621010422706604,0.51180100440979,0.6443159580230713,0.21384258568286896,0.9242681860923767,0.4912284314632416,0.6549304723739624,0.2242240160703659,0.9400293827056885,0.5385439991950989,0.46056756377220154,-0.13268546760082245,0.787415087223053,0.4636520445346832,0.46725815534591675,-0.12605634331703186,0.7800728678703308,178.4671090136679,0.5003403574228287,0.46341554820537567,131.96137989443466,141.9054185638358,0.6260178977893939,-0.0004032613532370054,0.006029504982914522,-0.01049007100425777,0.8467695804482057,-178.63096677039897,5.686864500812147,49,1762115285.1348588
0.5019753575325012,0.22671610116958618,-0.24331876635551453,0.9999096393585205,0.5371872186660767,0.2936312258243561,-0.1089228168129921,0.9998049139976501,0.47280222177505493,0.2911537289619446,-0.10212190449237823,0.9997852444648743,0.5172768235206604,0.46493470668792725,-0.004234802909195423,0.9993006587028503,0.4834859371185303,0.46283382177352905,0.004215969704091549,0.9993115067481995,0.5148885846138,0.5646663904190063,0.041134871542453766,0.9670600891113281,0.4866231381893158,0.5641186237335205,0.05962107703089714,0.9623940587043762,0.5117154121398926,0.6432533860206604,0.21599070727825165,0.9278984665870667,0.4912014901638031,0.6479962468147278,0.2380101978778839,0.9415066838264465,0.5385666489601135,0.4603254199028015,-0.13765771687030792,0.7976794242858887,0.4635443687438965,0.4666813611984253,-0.1290787309408188,0.7878263592720032,178.4590447364663,0.5003813803195953,0.46388426423072815,138.66641256248155,143.87006577005772,0.6298292995735604,0.0006416579340898666,0.007331402221865875,0.0163440615861551,0.02036357153163536,-177.7963792373694,6.556860583983086,50,1762115285.1987915
0.502113401889801,0.2266315221786499,-0.24225354194641113,0.9999129772186279,0.5371140837669373,0.2935452163219452,-0.10885997861623764,0.9998153448104858,0.47311529517173767,0.2907114326953888,-0.10194499790668488,0.9997937679290771,0.5173164010047913,0.4651329815387726,-0.004291811026632786,0.9993276000022888,0.4835086762905121,0.46211501955986023,0.004274474922567606,0.9993302822113037,0.5151325464248657,0.5632458925247192,0.0443742536008358,0.9670007824897766,0.48689889907836914,0.5596566200256348,0.060742538422346115,0.9621837735176086,0.5117543935775757,0.6422472596168518,0.21979908645153046,0.9306981563568115,0.49150848388671875,0.643173098564148,0.2358020842075348,0.9423220753669739,0.5386294722557068,0.4601342976093292,-0.1372969150543213,0.8058891296386719,0.4634624421596527,0.4647814929485321,-0.1285618245601654,0.7941381931304932,178.4294302877315,0.5004125386476517,0.4636240005493164,140.630134101584,145.5789158649723,0.627751992107714,0.00032684049808553685,-0.0027300794545968374,-0.003302330195754679,-0.10554159634842544,-177.46467300910746,7.624499721324627,51,1762115285.2941234
0.5020913481712341,0.22657203674316406,-0.2408284693956375,0.9999161958694458,0.5370803475379944,0.29331591725349426,-0.10937198251485825,0.9998251795768738,0.4731108248233795,0.2906031608581543,-0.1015462726354599,0.9998014569282532,0.5173456072807312,0.4647039771080017,-0.005015047732740641,0.9993517994880676,0.48362642526626587,0.4616244435310364,0.004985118750482798,0.9993424415588379,0.5153456926345825,0.5609027743339539,0.04339674860239029,0.9673855900764465,0.48699840903282166,0.5583504438400269,0.0666017085313797,0.9622159600257874,0.51176917552948,0.6417855024337769,0.21708187460899353,0.9337949156761169,0.4918416142463684,0.6424515843391418,0.2395552694797516,0.9434731006622314,0.5386444330215454,0.45828577876091003,-0.1395893692970276,0.8129578828811646,0.4634245038032532,0.46437904238700867,-0.1281031370162964,0.8005706071853638,178.45772251630427,0.5004860162734985,0.46316421031951904,141.68782836908264,148.43696435810307,0.6267199753036766,0.0011573987141161803,-0.007242485240877886,0.013082717359920502,-0.07107813561500755,-177.5717120644761,7.266671574373167,52,1762115285.3576086
0.501848578453064,0.2271985113620758,-0.24405241012573242,0.99991774559021,0.5369035005569458,0.29398176074028015,-0.10995917022228241,0.99983149766922,0.4729427397251129,0.29093196988105774,-0.10699257999658585,0.9998093843460083,0.5173457264900208,0.4652787446975708,-0.005250215996056795,0.999376654624939,0.4837142825126648,0.4623004198074341,0.0052119954489171505,0.9993610978126526,0.5153523683547974,0.5624192357063293,0.04313744604587555,0.9671420454978943,0.4869321286678314,0.5584216117858887,0.06573766469955444,0.9616255760192871,0.5117807388305664,0.6416177749633789,0.21869587898254395,0.9359169006347656,0.4921641945838928,0.6395884156227112,0.24558763206005096,0.9438384175300598,0.5386388301849365,0.4583117663860321,-0.1389569193124771,0.8115382790565491,0.46340781450271606,0.46564432978630066,-0.13336263597011566,0.8063900470733643,178.5312096283973,0.5005300045013428,0.46378958225250244,140.763686883713,146.49657564457925,0.6306062549322741,0.0005575534133147986,0.007926626575201717,-0.007603074988765641,0.19226939762059153,-177.2700778828708,5.285153358378416,53,1762115285.4365036
0.501691997051239,0.22802068293094635,-0.24637910723686218,0.9999197125434875,0.5365231037139893,0.29501867294311523,-0.10951411724090576,0.9998379349708557,0.4728333055973053,0.29104384779930115,-0.11107728630304337,0.9998164772987366,0.5173973441123962,0.4656321704387665,-0.0052230036817491055,0.9993985891342163,0.4840078353881836,0.46268895268440247,0.00518322316929698,0.9993759989738464,0.5154477953910828,0.5614537000656128,0.042833536863327026,0.9667848348617554,0.4868334233760834,0.5558043718338013,0.0638752281665802,0.9610201716423035,0.5118149518966675,0.6410548686981201,0.21983158588409424,0.9375132918357849,0.492387056350708,0.636286735534668,0.24523994326591492,0.9439572691917419,0.5386437773704529,0.45825740694999695,-0.1315176635980606,0.8130075931549072,0.4637206196784973,0.4661131203174591,-0.13818667829036713,0.8130193948745728,178.66916426742233,0.5007025897502899,0.4641605615615845,140.85311832912916,146.16192958284972,0.630866976561925,0.0026126729299834335,0.005616051223007042,0.031111321285199833,-0.034978526335207275,-176.42885163604026,4.135257599729016,54,1762115285.5025606
0.5015882253646851,0.22822515666484833,-0.23854994773864746,0.9999211430549622,0.5354443192481995,0.2954404950141907,-0.10413902997970581,0.9998459219932556,0.47276800870895386,0.2911323308944702,-0.10344449430704117,0.9998183846473694,0.5175114274024963,0.4657502770423889,-0.00584529060870409,0.9994224905967712,0.48430556058883667,0.46310484409332275,0.005811638198792934,0.9993869662284851,0.515652596950531,0.5617853403091431,0.03551178053021431,0.967043399810791,0.486566960811615,0.5553730726242065,0.06624998152256012,0.9609900712966919,0.5118405222892761,0.6408243179321289,0.2153034210205078,0.9395015835762024,0.49266886711120605,0.6345400214195251,0.2569964826107025,0.944405198097229,0.5389397144317627,0.45830094814300537,-0.1308099776506424,0.8193379640579224,0.46419382095336914,0.4643864929676056,-0.1362019181251526,0.8164561986923218,178.9295871798781,0.5009084939956665,0.46442756056785583,137.03459305949534,145.76978291849522,0.6268935191259083,0.003262877717411838,0.004231020620971581,0.01030352098265128,-0.02194799568629428,-176.06786093544815,2.7904929222738133,55,1762115285.5656657
0.5015561580657959,0.2282310426235199,-0.23883409798145294,0.9999248385429382,0.5344674587249756,0.2962692975997925,-0.10456524044275284,0.999856173992157,0.4723586142063141,0.291899174451828,-0.10211261361837387,0.9998228549957275,0.5177043676376343,0.4658282399177551,-0.006410334259271622,0.9994543194770813,0.4845696985721588,0.46338745951652527,0.006375767290592194,0.9994028210639954,0.5161911845207214,0.5610772967338562,0.03503214567899704,0.9680547118186951,0.4865809381008148,0.556250274181366,0.07495205849409103,0.9611474871635437,0.5121144652366638,0.6402228474617004,0.21903416514396667,0.942097008228302,0.49334463477134705,0.6337180733680725,0.267972856760025,0.9453950524330139,0.5394302010536194,0.45856544375419617,-0.13089773058891296,0.8278331160545349,0.46450573205947876,0.4639458656311035,-0.13525767624378204,0.8205656409263611,179.2353103421352,0.5011370331048965,0.4646078497171402,136.79062972543267,148.30726907345388,0.6322332303008934,0.0032383321227681967,0.0025546443472238643,-0.00034780387424605184,-0.023753759938126527,-175.97516870665248,1.6928393464344087,56,1762115285.6362388
0.5015331506729126,0.22822777926921844,-0.2387506514787674,0.9999290704727173,0.5336614847183228,0.2967616021633148,-0.10481935739517212,0.999866247177124,0.4720553457736969,0.2928541600704193,-0.1013791561126709,0.9998289942741394,0.5178076028823853,0.46562033891677856,-0.006961711682379246,0.999485969543457,0.4847653806209564,0.4635419547557831,0.00692372489720583,0.9994214177131653,0.5164963006973267,0.5603185296058655,0.03396974876523018,0.969235897064209,0.4866536259651184,0.5565254092216492,0.07768209278583527,0.9615688323974609,0.512313961982727,0.6399261355400085,0.21998092532157898,0.9447091817855835,0.49388283491134644,0.6332772374153137,0.270619660615921,0.9466283917427063,0.5397564768791199,0.4586123526096344,-0.1315029114484787,0.8366482257843018,0.46493569016456604,0.46406203508377075,-0.13448317348957062,0.8267102837562561,179.46951595706568,0.5012864917516708,0.4645811468362808,136.54624339248036,148.95180445742193,0.6333064147076183,0.002293062012810055,-0.0004096876497463229,-0.014502760648322928,-0.045480119366228,-176.37080893348238,1.031151459338705,57,1762115285.7014174
0.5012367963790894,0.2282305359840393,-0.2373967468738556,0.9999330639839172,0.5327499508857727,0.2970958352088928,-0.10381591320037842,0.9998741745948792,0.47154220938682556,0.2937544286251068,-0.10138274729251862,0.999835193157196,0.5178922414779663,0.4653615653514862,-0.007061128504574299,0.9995111227035522,0.4851628243923187,0.46366238594055176,0.007021298166364431,0.9994391798973083,0.5167775750160217,0.5597403049468994,0.03444084897637367,0.970170259475708,0.4871154725551605,0.5560483932495117,0.0774354562163353,0.9618896842002869,0.5125444531440735,0.6390806436538696,0.22487647831439972,0.9467681646347046,0.4942617416381836,0.633321225643158,0.2683376967906952,0.9478506445884705,0.5398436784744263,0.4582982659339905,-0.13156084716320038,0.8429760932922363,0.46544280648231506,0.46401575207710266,-0.13313037157058716,0.8330413103103638,179.79040364591899,0.5015275329351425,0.464511975646019,136.35423758019644,149.34031912037923,0.6330120463198042,0.0034353401700340474,-0.0009858338939971593,0.016279848872070856,-0.00821128700159113,-176.87525394026403,0.42436772922253546,58,1762115285.7715826
0.5008766651153564,0.22813329100608826,-0.23618093132972717,0.9999355673789978,0.5314794182777405,0.29672515392303467,-0.09901893138885498,0.9998769164085388,0.4708310663700104,0.29401808977127075,-0.10481749475002289,0.9998401403427124,0.5180871486663818,0.4646587073802948,-0.0069532557390630245,0.9995294809341431,0.48604926466941833,0.4636722505092621,0.006909194402396679,0.9994533061981201,0.5168262720108032,0.5581730604171753,0.04277187958359718,0.9705952405929565,0.4875473082065582,0.5544131994247437,0.07789240032434464,0.9615378975868225,0.5127172470092773,0.6380560398101807,0.23567338287830353,0.9480264186859131,0.4947088360786438,0.6324646472930908,0.26575908064842224,0.9484591484069824,0.5398380160331726,0.4559861123561859,-0.11950363218784332,0.8404073119163513,0.46617698669433594,0.46408945322036743,-0.1383703202009201,0.839015543460846,-179.69010428120012,0.5020682066679001,0.46416547894477844,140.49592490890143,150.57327887377275,0.6346883718595835,0.009658425434953896,-0.006189708043186609,0.11116723703228083,-0.09296037036326117,-177.44427566981733,0.5977826066716847,59,1762115285.827562
0.5002045035362244,0.22787901759147644,-0.23524263501167297,0.9999370574951172,0.5311657786369324,0.29460015892982483,-0.09942708164453506,0.999878466129303,0.47047773003578186,0.2939584255218506,-0.10453323274850845,0.9998450875282288,0.5181971788406372,0.4627561867237091,-0.0071756839752197266,0.9995400905609131,0.4866841733455658,0.4627910554409027,0.0071343122981488705,0.9994612336158752,0.5169003009796143,0.5564810633659363,0.04211445152759552,0.9710307717323303,0.48838338255882263,0.551635205745697,0.07794106751680374,0.9615311026573181,0.5129134654998779,0.6370847225189209,0.22609159350395203,0.9494025111198425,0.4952249526977539,0.6319529414176941,0.26214876770973206,0.9492543339729309,0.5392225980758667,0.4525979459285736,-0.12262563407421112,0.8361763954162598,0.466724157333374,0.464004248380661,-0.1368795782327652,0.844266951084137,-179.4495094852547,0.5024406760931015,0.4627736210823059,141.39850007873727,152.09488253224126,0.6286171995604476,0.005089657464179367,-0.01901922487994631,-0.06243053102138972,-0.17531062071663603,-179.39416003064537,1.133407158787797,60,1762115285.9007437
0.4989109933376312,0.22556614875793457,-0.23585160076618195,0.9999353885650635,0.5306910276412964,0.2920290231704712,-0.10064294189214706,0.9998788833618164,0.46997612714767456,0.2935430407524109,-0.10309239476919174,0.9998448491096497,0.5182375907897949,0.46005237102508545,-0.009184692054986954,0.9995442628860474,0.4866979122161865,0.46022847294807434,0.009155016392469406,0.9994557499885559,0.5168672204017639,0.5548734664916992,0.028946930542588234,0.9709063768386841,0.48847827315330505,0.5488629937171936,0.0766460970044136,0.9600616097450256,0.5131188631057739,0.6353155970573425,0.2167367935180664,0.9501126408576965,0.4957903027534485,0.6306538581848145,0.2671582102775574,0.948815107345581,0.5385600328445435,0.45147383213043213,-0.1344936043024063,0.829526424407959,0.4671071171760559,0.4627627432346344,-0.13601286709308624,0.8438600301742554,-179.26937954080668,0.5024677515029907,0.4601404219865799,135.0980164374968,150.50773985605284,0.6279431600829376,0.0003496231689520772,-0.03400234441865191,-0.06120778292995068,-0.19347613777014241,178.57153939181498,1.1970668790955776,61,1762115285.9781854
0.49766892194747925,0.224506214261055,-0.23852434754371643,0.9999335408210754,0.5305771231651306,0.29093295335769653,-0.10329369455575943,0.9998801946640015,0.4697507917881012,0.2933174669742584,-0.10402854532003403,0.9998462200164795,0.5182403326034546,0.45897433161735535,-0.0097955372184515,0.9995608329772949,0.4867689609527588,0.4591410458087921,0.009765591472387314,0.9994625449180603,0.5168324708938599,0.5551689863204956,0.028212931007146835,0.9706288576126099,0.4885725975036621,0.5477296710014343,0.08119059354066849,0.9584835171699524,0.5131301879882812,0.6352604031562805,0.21439054608345032,0.9509140253067017,0.49630260467529297,0.6298243403434753,0.2764652371406555,0.9483243823051453,0.5379509925842285,0.45032769441604614,-0.13438281416893005,0.8182312250137329,0.46771469712257385,0.4627333879470825,-0.13548806309700012,0.8413891196250916,-179.19666423755788,0.5025046467781067,0.45905768871307373,134.83938056565674,151.66118439107592,0.6330505054869824,0.0005663270534158945,-0.016619503242428234,0.0033263140596304025,0.26681934725747536,177.75504060882906,1.1617118924039236,62,1762115286.0433338
0.4973464608192444,0.2228216528892517,-0.2358459234237671,0.9999350905418396,0.5306859612464905,0.28831928968429565,-0.1023792251944542,0.9998831152915955,0.46975603699684143,0.2916039228439331,-0.10013096034526825,0.9998506903648376,0.5182682275772095,0.45672518014907837,-0.010001616552472115,0.9995716214179993,0.4868367314338684,0.45728039741516113,0.00997019000351429,0.9994674324989319,0.5168319940567017,0.5522032976150513,0.022472606971859932,0.9710251092910767,0.4887552261352539,0.5447145104408264,0.07963590323925018,0.9583038687705994,0.5132837891578674,0.6331745386123657,0.2046925574541092,0.952219545841217,0.49657145142555237,0.6283327341079712,0.27194586396217346,0.9489497542381287,0.5379791855812073,0.44877833127975464,-0.13268889486789703,0.8195124864578247,0.4681793749332428,0.4610004127025604,-0.13284960389137268,0.8462712168693542,-179.2003450262287,0.5025524795055389,0.45700278878211975,132.74613523894297,152.02970367222764,0.6255386091551776,0.0007507381088696551,-0.032251802706960486,0.002894344823261487,-0.24535006819147603,176.91426452706924,1.0920230678680658,63,1762115286.107048
0.49723196029663086,0.22044001519680023,-0.22665691375732422,0.9999371767044067,0.5307717323303223,0.28667739033699036,-0.09736008942127228,0.9998880624771118,0.4697710871696472,0.2900448739528656,-0.09154651314020157,0.9998558163642883,0.5183352828025818,0.45605260133743286,-0.010718296281993389,0.999592661857605,0.4869058132171631,0.45652851462364197,0.010680275969207287,0.9994853734970093,0.5168451070785522,0.5521635413169861,0.022897571325302124,0.9713824987411499,0.48873037099838257,0.5438803434371948,0.07824932038784027,0.957854151725769,0.5134196281433105,0.6319960951805115,0.20824551582336426,0.9533358812332153,0.4967189431190491,0.6265125274658203,0.26824232935905457,0.9493271708488464,0.5379895567893982,0.44801247119903564,-0.12981228530406952,0.8219113945960999,0.4682760238647461,0.45881640911102295,-0.12710818648338318,0.8512656092643738,-179.19855064965535,0.5026205480098724,0.4562905579805374,132.583772238536,151.20774403685397,0.6191311169883658,0.000924633466225779,-0.009674848026530989,0.002362171295038135,0.3066823352061695,176.84024719647758,1.0291742860311826,64,1762115286.1806648
0.4971323609352112,0.21962767839431763,-0.22481508553028107,0.9999385476112366,0.5308184623718262,0.28592580556869507,-0.09481047838926315,0.9998902678489685,0.4697675108909607,0.2895660698413849,-0.0915709137916565,0.9998595714569092,0.5184217095375061,0.4554907977581024,-0.010711753740906715,0.9996075630187988,0.4869324266910553,0.45585915446281433,0.010672449134290218,0.9994994401931763,0.516838788986206,0.5522119998931885,0.020588556304574013,0.9714874029159546,0.48874717950820923,0.543472409248352,0.07131413370370865,0.9573339223861694,0.5134485960006714,0.6313203573226929,0.2060147076845169,0.9541988968849182,0.49675655364990234,0.6263444423675537,0.25711244344711304,0.9496666789054871,0.5380074977874756,0.4478908181190491,-0.12302912771701813,0.8203192949295044,0.46834689378738403,0.45870181918144226,-0.12604136765003204,0.8544825315475464,-179.18662887532204,0.5026770681142807,0.4556749761104584,131.0412007181501,148.71043619012434,0.6130199920646555,0.000736314985184403,-0.008019485460836506,-0.0024533167627633656,0.021565216055332164,176.58768423839848,1.031806112906916,65,1762115286.2574255
0.4969838559627533,0.21754391491413116,-0.22087547183036804,0.9999406337738037,0.530853271484375,0.2843340039253235,-0.0949055403470993,0.9998946189880371,0.46979498863220215,0.28869324922561646,-0.08655795454978943,0.9998607635498047,0.5184416770935059,0.4540019929409027,-0.011170465499162674,0.9996246099472046,0.48699966073036194,0.45449817180633545,0.011131884530186653,0.9995120167732239,0.5169512033462524,0.5509852766990662,0.02227163128554821,0.9715805053710938,0.48913368582725525,0.5428751707077026,0.07171334326267242,0.9565552473068237,0.5135766267776489,0.6300951838493347,0.2085907906293869,0.9547924399375916,0.49694833159446716,0.625142514705658,0.2570262551307678,0.9497520923614502,0.5380308628082275,0.447007417678833,-0.12445876747369766,0.8250899910926819,0.468553364276886,0.45838597416877747,-0.12251605838537216,0.8569085001945496,-179.1814407967973,0.5027206689119339,0.4542500823736191,132.0347172552732,148.36050024754144,0.611603756080699,0.0006571382370908046,-0.021475574041467535,-0.0011933283669408605,-0.20280615961081983,175.91630704856263,1.0790191446797393,66,1762115286.323775
0.496915727853775,0.21670123934745789,-0.2169715166091919,0.9999428987503052,0.5308870673179626,0.28345921635627747,-0.09423380345106125,0.9998998641967773,0.46980151534080505,0.288260281085968,-0.08422082662582397,0.9998630285263062,0.5184516906738281,0.45296862721443176,-0.011186765506863594,0.9996404051780701,0.48711585998535156,0.4536801278591156,0.011143935844302177,0.9995243549346924,0.5172261595726013,0.5500383377075195,0.02333720214664936,0.9714905619621277,0.48962005972862244,0.5420621633529663,0.07175006717443466,0.9560416340827942,0.5137072801589966,0.6291942000389099,0.20980271697044373,0.9551142454147339,0.49712830781936646,0.6248157620429993,0.25244542956352234,0.9499289989471436,0.5380503535270691,0.4461810290813446,-0.12496362626552582,0.8323289752006531,0.46874088048934937,0.4583439230918884,-0.11930461972951889,0.8606802225112915,-179.16542225663127,0.5027837753295898,0.4533243775367737,132.58195477190569,149.04567686217194,0.6076274378619942,0.000797599855358515,-0.011699951786171671,0.0017752895913779535,0.12355375548922409,175.50603359680912,1.222379688540541,67,1762115286.4028955
0.4969249665737152,0.21469400823116302,-0.21168315410614014,0.9999449253082275,0.5309040546417236,0.2819194495677948,-0.0906166359782219,0.9999023675918579,0.46996036171913147,0.28710606694221497,-0.08287634700536728,0.9998624324798584,0.5184227228164673,0.45115554332733154,-0.01117060985416174,0.9996528029441833,0.48715028166770935,0.45191293954849243,0.011122142896056175,0.9995360970497131,0.5172877907752991,0.5484663844108582,0.024281907826662064,0.9712297916412354,0.48963603377342224,0.5407788157463074,0.06899309158325195,0.955646812915802,0.5138483643531799,0.6280466914176941,0.21068958938121796,0.9552072286605835,0.4971754550933838,0.6241400241851807,0.24492207169532776,0.9501553177833557,0.5380703806877136,0.44415193796157837,-0.11912117898464203,0.8388487100601196,0.4688599109649658,0.45754915475845337,-0.11755093187093735,0.8637781739234924,-179.1924261591574,0.5027865022420883,0.451534241437912,133.1372863336548,148.42536129741498,0.6020579108717664,3.606940463012895e-05,-0.023678480086535034,-0.010072912123457088,-0.15844233519814838,175.13556013537598,1.1478776157908401,68,1762115286.4784973
0.497001975774765,0.21284347772598267,-0.2066338062286377,0.999947726726532,0.5310943126678467,0.27958038449287415,-0.08765685558319092,0.9999071955680847,0.47024303674697876,0.28467532992362976,-0.0776013657450676,0.9998616576194763,0.5184052586555481,0.4481213092803955,-0.011117061600089073,0.9996660351753235,0.4871670603752136,0.44853705167770386,0.011070270091295242,0.9995468258857727,0.5174322724342346,0.5456806421279907,0.024333614856004715,0.9712351560592651,0.48961323499679565,0.5385963916778564,0.06391982734203339,0.955900251865387,0.5140882730484009,0.6261176466941833,0.2068621665239334,0.9553701877593994,0.4973054826259613,0.622343897819519,0.23511341214179993,0.950704038143158,0.5380847454071045,0.44274604320526123,-0.120357945561409,0.848700225353241,0.4689697325229645,0.4551919400691986,-0.11222583055496216,0.867225170135498,-179.2700637001128,0.5027861595153809,0.4483291804790497,133.75181765409044,146.47306296659767,0.5934436253039285,-3.913747804897971e-06,-0.0366000081678215,-0.0004565852957182732,-0.1475566422560943,175.21391179620068,0.9735006783641991,69,1762115286.5660672
0.497105211019516,0.21087470650672913,-0.20609872043132782,0.9999507069587708,0.5314810276031494,0.27770233154296875,-0.08494029939174652,0.9999123811721802,0.4705483317375183,0.28307443857192993,-0.07804591953754425,0.9998644590377808,0.5184712409973145,0.4445456266403198,-0.0102083720266819,0.9996835589408875,0.4873533248901367,0.4454403817653656,0.010150137357413769,0.9995630383491516,0.5178301334381104,0.542626678943634,0.022383172065019608,0.9718060493469238,0.4898069500923157,0.5360019207000732,0.058458179235458374,0.9567585587501526,0.5141242742538452,0.6257646083831787,0.19640883803367615,0.9565508365631104,0.49733370542526245,0.6216812133789062,0.22463858127593994,0.9518610835075378,0.5380929112434387,0.44026121497154236,-0.11238334327936172,0.8574283123016357,0.4692111909389496,0.4531427025794983,-0.10951848328113556,0.8717899918556213,-179.33950916334283,0.5029122829437256,0.4449930042028427,133.91208001199794,145.35323204227296,0.5865937765328821,0.0013950054059755808,-0.03690023337992142,0.015472936373982957,-0.0033206819651684363,174.96156788615488,0.9927569044982448,70,1762115286.656478
0.49758148193359375,0.2107076793909073,-0.2050970494747162,0.9999538064002991,0.5320026874542236,0.2759782075881958,-0.08533034473657608,0.9999176859855652,0.4711870551109314,0.2817385494709015,-0.07733448594808578,0.9998683333396912,0.5186140537261963,0.4421554207801819,-0.010191045701503754,0.9996987581253052,0.48779138922691345,0.4433346092700958,0.01013319194316864,0.9995790123939514,0.5178261995315552,0.5405444502830505,0.02076955884695053,0.9718931317329407,0.48979300260543823,0.5337473750114441,0.05763202905654907,0.9570123553276062,0.5140506029129028,0.6237370371818542,0.1929074078798294,0.9572722911834717,0.4973384439945221,0.6201745271682739,0.22293183207511902,0.9526841044425964,0.5383509993553162,0.4378478229045868,-0.11445994675159454,0.8668271899223328,0.4693198800086975,0.4503975808620453,-0.10783505439758301,0.8777269721031189,-179.43790368325293,0.5032027214765549,0.44274501502513885,133.25859006988318,145.3101536841036,0.5829010145227537,0.0038926817343733523,-0.03012928872031009,0.033475788929306895,0.09074943446437989,174.58919445296635,0.8525537458920451,71,1762115286.7310894
0.4977235198020935,0.21107834577560425,-0.20884093642234802,0.9999562501907349,0.5322687029838562,0.27554625272750854,-0.08552142232656479,0.9999220371246338,0.47145065665245056,0.28166067600250244,-0.07944481074810028,0.9998704791069031,0.5189723968505859,0.44232967495918274,-0.010049723088741302,0.9997143149375916,0.48811501264572144,0.44337716698646545,0.009984881617128849,0.9995964765548706,0.5179332494735718,0.5407987236976624,0.021321754902601242,0.9717645049095154,0.4898768365383148,0.5336592197418213,0.058537643402814865,0.9574039578437805,0.5140402913093567,0.6238251328468323,0.19455696642398834,0.9578837156295776,0.49735110998153687,0.6201534271240234,0.22525794804096222,0.9536869525909424,0.5385286211967468,0.43750450015068054,-0.11645295470952988,0.8749189972877502,0.4694192409515381,0.45109665393829346,-0.10734884440898895,0.8822924494743347,-179.41257737683478,0.5035437047481537,0.4428534209728241,133.2779850130659,145.67742598791418,0.5867380750463396,0.005340007467562774,0.0016977037244469337,0.022666009939398206,0.49843025004765856,174.25898319502733,0.9399256268999016,72,1762115286.7949438
0.49853435158729553,0.21123985946178436,-0.2250266969203949,0.9999585151672363,0.5327193140983582,0.27590879797935486,-0.09480927139520645,0.9999247193336487,0.471745103597641,0.28163787722587585,-0.09650423377752304,0.9998742341995239,0.5191829204559326,0.4428737759590149,-0.009301139973104,0.9997304081916809,0.4882270395755768,0.4437137246131897,0.009227097034454346,0.999616265296936,0.5179297924041748,0.5413789749145508,0.029603872448205948,0.9718550443649292,0.48994556069374084,0.5341687202453613,0.06383999437093735,0.957702100276947,0.514025866985321,0.6237746477127075,0.2112240344285965,0.958789587020874,0.4973575174808502,0.620179295539856,0.2392749786376953,0.9548041224479675,0.5387754440307617,0.4375174343585968,-0.11736510694026947,0.8782387971878052,0.469461590051651,0.45142024755477905,-0.12613090872764587,0.8859370946884155,-179.48710730321045,0.5037049800157547,0.4432937502861023,135.95490718277955,147.22434858641432,0.60951198694602,0.002558822416825859,0.0069863441205954115,-0.044126782482064066,0.08391052020248206,174.63230153154043,0.8391783509826877,73,1762115286.857971
0.4991808533668518,0.21080462634563446,-0.22360415756702423,0.9999590516090393,0.533644437789917,0.27627310156822205,-0.09609165042638779,0.9999262690544128,0.4721677303314209,0.28121235966682434,-0.09386090934276581,0.999873161315918,0.5196043252944946,0.4434736371040344,-0.009319365955889225,0.9997451305389404,0.48832201957702637,0.44437405467033386,0.009245941415429115,0.9996328353881836,0.5179613828659058,0.5419334173202515,0.03257472440600395,0.9714486002922058,0.49002209305763245,0.534579873085022,0.0721295177936554,0.9573659896850586,0.5140320062637329,0.6235319972038269,0.221819669008255,0.959134042263031,0.4974411129951477,0.6195558905601501,0.2557431161403656,0.9550662040710449,0.5389536619186401,0.4371832013130188,-0.11811120808124542,0.8777227401733398,0.4695724844932556,0.4515366852283478,-0.12446651607751846,0.8837937116622925,-179.6333365617501,0.5039631724357605,0.44392384588718414,136.3777808312679,149.6977812465074,0.6185063954676102,0.0040935852123457255,0.009990030051598027,0.024333333581432866,0.04762279353285072,175.40651939433576,0.6054961939506858,74,1762115286.9210434
0.4997667670249939,0.20870806276798248,-0.21885362267494202,0.9999601244926453,0.5346187353134155,0.27631404995918274,-0.09506029635667801,0.9999282956123352,0.472961962223053,0.28011536598205566,-0.08686740696430206,0.9998723268508911,0.5202123522758484,0.4440176784992218,-0.009393378160893917,0.9997591376304626,0.48852476477622986,0.44463199377059937,0.009324640035629272,0.9996491074562073,0.5180972814559937,0.5422442555427551,0.03397016227245331,0.9709172248840332,0.4902355670928955,0.5349193215370178,0.07308361679315567,0.9572898745536804,0.5140485763549805,0.6233850121498108,0.2229345291852951,0.9592390060424805,0.497464656829834,0.6191977858543396,0.25579142570495605,0.9554591774940491,0.5398234128952026,0.4376376271247864,-0.1216469258069992,0.8795050382614136,0.46977582573890686,0.44988518953323364,-0.12228961288928986,0.8821964859962463,-179.8005609570005,0.5043685585260391,0.4443248361349106,137.06424887832264,149.9749598113981,0.6166225265602032,0.00498669237762853,0.004932618705457958,0.010986195136740266,-0.06221169205138479,176.47201719675058,0.3633814412485394,75,1762115287.002337
0.5011826753616333,0.2072134017944336,-0.2241322100162506,0.9999618530273438,0.5354732275009155,0.27590033411979675,-0.09445201605558395,0.9999286532402039,0.47356539964675903,0.27908122539520264,-0.0936162993311882,0.9998744130134583,0.5209933519363403,0.4443667531013489,-0.007745764218270779,0.9997719526290894,0.488945871591568,0.4447832405567169,0.007679471280425787,0.9996651411056519,0.5184584259986877,0.5424708724021912,0.0365823395550251,0.971230685710907,0.4908973276615143,0.5350317358970642,0.07224414497613907,0.958132803440094,0.5140596628189087,0.623531699180603,0.22856490314006805,0.9600406289100647,0.49746114015579224,0.6190223097801208,0.2572193443775177,0.9563879370689392,0.5405277609825134,0.43769925832748413,-0.11108453571796417,0.8785943388938904,0.47026681900024414,0.4491652250289917,-0.12986432015895844,0.8834659457206726,-179.84558611337232,0.5049696117639542,0.4445749968290329,137.2148630506841,149.9949705473902,0.6241645223687066,0.008955563212919314,0.0037273402225924596,0.059135316819277646,-0.017958388644433564,177.05866733421013,0.41558647244814295,76,1762115287.069452
0.5016254186630249,0.2067146748304367,-0.22327907383441925,0.999963104724884,0.5359220504760742,0.2755916714668274,-0.09156905114650726,0.9999293088912964,0.47387391328811646,0.2786129117012024,-0.09324893355369568,0.9998759627342224,0.5214499831199646,0.44461148977279663,-0.006716577801853418,0.9997828006744385,0.4892844259738922,0.44496387243270874,0.006654287222772837,0.9996788501739502,0.5188263058662415,0.5424112677574158,0.0381380058825016,0.9711792469024658,0.491382360458374,0.5350506901741028,0.07192366570234299,0.958672046661377,0.5140587687492371,0.623181164264679,0.2317865639925003,0.9602785110473633,0.49745893478393555,0.6187459826469421,0.255472332239151,0.9568768739700317,0.5410017371177673,0.4377477467060089,-0.10705012083053589,0.8781163096427917,0.47052064538002014,0.4488992393016815,-0.12876033782958984,0.8841033577919006,-179.83967352042484,0.5053672045469284,0.4447876811027527,137.288298239331,150.43386843612868,0.624197727608263,0.005265979114497646,0.002816929761682966,-0.04886726730331469,-0.01205807217350861,177.21236265629213,0.7158037342806999,77,1762115287.1449542
0.502231240272522,0.20621737837791443,-0.23245902359485626,0.9999641180038452,0.5364355444908142,0.27526289224624634,-0.09328211098909378,0.9999306201934814,0.47414499521255493,0.27764618396759033,-0.09966307133436203,0.9998776316642761,0.5218632817268372,0.4447602927684784,-0.005924859084188938,0.9997929334640503,0.48961758613586426,0.4449526369571686,0.005873286165297031,0.999690592288971,0.5190263390541077,0.5425238609313965,0.03900439292192459,0.9711452126502991,0.49152833223342896,0.5345607995986938,0.07460924237966537,0.9588180780410767,0.5135954022407532,0.6217260360717773,0.23618528246879578,0.9604452848434448,0.49744731187820435,0.6178706288337708,0.27023759484291077,0.9569761753082275,0.5412124991416931,0.4378735423088074,-0.1100991740822792,0.8771834373474121,0.4707368314266205,0.4488528370857239,-0.13603916764259338,0.8831565380096436,-179.84683999218515,0.5057404339313507,0.4448564648628235,136.57880049627332,150.55473911252201,0.6379152203426102,0.0057804041828829695,0.0010652910810950527,0.007967177669242202,-0.02712857020044682,177.80888137711338,1.8372438113659135,78,1762115287.2095222
0.5030423402786255,0.20547769963741302,-0.23034313321113586,0.9999645352363586,0.537110447883606,0.27484890818595886,-0.09094232320785522,0.9999304413795471,0.47462472319602966,0.27646055817604065,-0.09814190119504929,0.9998763799667358,0.5223748087882996,0.44495683908462524,-0.005343530792742968,0.9998021125793457,0.490003764629364,0.44503310322761536,0.0052888477221131325,0.9997003674507141,0.5193737149238586,0.5425697565078735,0.038189347833395004,0.9708327054977417,0.4916980266571045,0.5345842838287354,0.0742872953414917,0.9587090611457825,0.5133737921714783,0.6208515167236328,0.23931971192359924,0.9601579308509827,0.4974026083946228,0.6171212792396545,0.266482949256897,0.9568635821342468,0.5419411063194275,0.43730974197387695,-0.1010441929101944,0.8744736313819885,0.4711570143699646,0.44888895750045776,-0.13441604375839233,0.8818575143814087,-179.89115347128578,0.5061892867088318,0.4449949711561203,135.31795864099615,150.84869615116338,0.6360189922165748,0.0065997041285288105,0.0020365264549058923,0.012046571849519678,0.014280553508623041,178.52253815102614,2.1638533060312413,79,1762115287.2775333
0.5035746097564697,0.20483432710170746,-0.22979488968849182,0.9999653697013855,0.537910521030426,0.2746884226799011,-0.09106294810771942,0.9999297261238098,0.47508472204208374,0.276080459356308,-0.09811250120401382,0.999876081943512,0.5229066014289856,0.4450199007987976,-0.005200089421123266,0.9998077750205994,0.4905645251274109,0.4451194703578949,0.005145841743797064,0.9997066259384155,0.5197509527206421,0.5423564314842224,0.04035859555006027,0.9701167345046997,0.4918871819972992,0.5345725417137146,0.07403028756380081,0.9583510756492615,0.5132117867469788,0.6206001043319702,0.23893144726753235,0.9595051407814026,0.49740129709243774,0.6170294880867004,0.2627173066139221,0.9564138650894165,0.5424799919128418,0.4374065697193146,-0.10493184626102448,0.8738308548927307,0.4716735780239105,0.4490143656730652,-0.13550430536270142,0.8815125823020935,-179.91965684062242,0.5067355632781982,0.44506968557834625,136.60584545394835,151.19234324955025,0.6343324899820267,0.008630918747881116,0.0011804535352393868,0.032092257516133094,-0.01352555871190305,178.7307001326887,0.4633494735628492,80,1762115287.3408263
0.5035308003425598,0.20501823723316193,-0.2298709601163864,0.9999658465385437,0.5386173725128174,0.27476194500923157,-0.09112086892127991,0.999929666519165,0.4752970337867737,0.2762661278247833,-0.09814660251140594,0.9998756647109985,0.5231371521949768,0.4467673897743225,-0.004886279813945293,0.9998136162757874,0.49079418182373047,0.4471118450164795,0.004833845421671867,0.9997130632400513,0.5199702978134155,0.542961835861206,0.045321024954319,0.9691874980926514,0.49195775389671326,0.5363839864730835,0.07372666895389557,0.958124577999115,0.513195812702179,0.6205509901046753,0.24453766644001007,0.9585354328155518,0.4973996579647064,0.6171314716339111,0.263187050819397,0.9557122588157654,0.5427724123001099,0.4380774199962616,-0.10587109625339508,0.872536838054657,0.4721349775791168,0.4514310956001282,-0.13476039469242096,0.8798558115959167,-179.99717111397314,0.5069656670093536,0.446939617395401,138.85799286643868,150.72796880550166,0.6365928964309434,0.0036254409129668794,0.0294620486159371,-0.07886471045265983,0.4455957814099101,178.6391872989486,0.0126839199476952,81,1762115287.4042954
0.5036042332649231,0.20516273379325867,-0.23040883243083954,0.9999665021896362,0.5388489961624146,0.2749026417732239,-0.09119803458452225,0.9999289512634277,0.47535842657089233,0.27637389302253723,-0.10001786798238754,0.9998757839202881,0.5231825113296509,0.4475255012512207,-0.00431898795068264,0.9998182654380798,0.49088940024375916,0.4478408396244049,0.004263546783477068,0.9997187852859497,0.5201367139816284,0.5431508421897888,0.04630427807569504,0.9685863852500916,0.49199533462524414,0.537102222442627,0.07356398552656174,0.9581068754196167,0.5131795406341553,0.620499312877655,0.24303913116455078,0.9579648375511169,0.49739590287208557,0.6171632409095764,0.26212093234062195,0.9553706645965576,0.5429008603096008,0.4380922019481659,-0.10396584123373032,0.8706156015396118,0.47253116965293884,0.4523646831512451,-0.13496270775794983,0.8792437314987183,179.97743549212905,0.507035955786705,0.4476831704378128,139.37516122987753,150.81625681664838,0.6359266786426385,0.0008529220309561696,0.00902267467090988,-0.03364324327178663,-0.2480224154350454,178.67253665889191,0.08694387041459503,82,1762115287.4867048
0.5037027597427368,0.20529647171497345,-0.22622041404247284,0.9999664425849915,0.5389780402183533,0.27566632628440857,-0.08961250633001328,0.9999287128448486,0.4753337502479553,0.27702298760414124,-0.09602866321802139,0.9998726844787598,0.5232545137405396,0.4499584138393402,-0.004381383769214153,0.999823808670044,0.49086809158325195,0.4497239887714386,0.004326315596699715,0.9997245073318481,0.5202248692512512,0.5446061491966248,0.04435271397233009,0.9682649374008179,0.49187254905700684,0.5399399399757385,0.07236559689044952,0.958450436592102,0.513185977935791,0.620577871799469,0.24224445223808289,0.9575179815292358,0.49728336930274963,0.617286205291748,0.26119333505630493,0.9552730321884155,0.542892336845398,0.43938013911247253,-0.10314963757991791,0.8702303767204285,0.4726804196834564,0.4525543749332428,-0.129450261592865,0.8781053423881531,179.9687615993198,0.5070613026618958,0.4498412013053894,138.26306807429626,149.28213870829148,0.6320780891173999,0.0003515880784977743,0.029934180066010094,-0.006954034361402142,0.2900647888559697,178.77885042268468,0.11605944429765716,83,1762115287.5587974
0.5036982893943787,0.20536509156227112,-0.2262360155582428,0.9999662637710571,0.5390360355377197,0.2764490246772766,-0.0891074687242508,0.9999260902404785,0.4753113389015198,0.2780015170574188,-0.09640272706747055,0.9998700618743896,0.5233443379402161,0.45187288522720337,-0.003832344664260745,0.99982750415802,0.4909023344516754,0.45137858390808105,0.0037720277905464172,0.9997292757034302,0.520416796207428,0.545976459980011,0.04324070364236832,0.9680165648460388,0.4918637275695801,0.5410290360450745,0.06928575038909912,0.9589620232582092,0.5132127404212952,0.6206411719322205,0.24423858523368835,0.9571816921234131,0.4971741735935211,0.6176270842552185,0.2610042691230774,0.9553021192550659,0.5430096387863159,0.44071972370147705,-0.09950485825538635,0.8664801716804504,0.4727185368537903,0.45307573676109314,-0.1287245899438858,0.8778144717216492,179.9834581800454,0.5071233361959457,0.4516257345676422,136.97130175650153,147.9229127836476,0.6328597803483919,0.0008796864487292619,0.025306146943771066,0.00748886851286429,-0.06562930976370272,178.6044081239469,0.053123828203747545,84,1762115287.6293151
0.5036612749099731,0.205416738986969,-0.23411734402179718,0.9999648332595825,0.5390580892562866,0.2768252193927765,-0.09276293218135834,0.9999218583106995,0.4753042757511139,0.2785700261592865,-0.10268368571996689,0.9998668432235718,0.5234361886978149,0.4527968168258667,-0.003515483345836401,0.9998306035995483,0.4909175932407379,0.45250260829925537,0.003448834642767906,0.9997334480285645,0.5205618739128113,0.5474392175674438,0.04417353868484497,0.9674743413925171,0.4919731020927429,0.541144609451294,0.06952632963657379,0.9590596556663513,0.5132437944412231,0.6207292675971985,0.25212362408638,0.9567410945892334,0.4971682131290436,0.6177939176559448,0.26576152443885803,0.9551090002059937,0.5431369543075562,0.44114717841148376,-0.10144265741109848,0.8600130081176758,0.47270846366882324,0.45432233810424805,-0.1347934752702713,0.8758428692817688,179.9985945477395,0.5071768909692764,0.45264971256256104,136.17453279360785,148.02742232850912,0.6437220146071727,0.0008413803694769489,0.016087361221401496,-0.0006018134539663095,-0.14483312793280786,178.43232725573404,0.004039151219907459,85,1762115287.6929662
0.5036236047744751,0.20555773377418518,-0.24140174686908722,0.9999616146087646,0.5391252636909485,0.2773319482803345,-0.09902162849903107,0.9999147057533264,0.4752873480319977,0.279053658246994,-0.10828455537557602,0.9998605251312256,0.5235528945922852,0.45335420966148376,-0.0034970887936651707,0.9998306035995483,0.4909072816371918,0.4530741274356842,0.0034283895511180162,0.999733567237854,0.5206395387649536,0.5482507944107056,0.04365025460720062,0.9666240811347961,0.4919888973236084,0.5414597988128662,0.07000193744897842,0.9587650895118713,0.513454794883728,0.6212687492370605,0.25343412160873413,0.9563766717910767,0.4971664845943451,0.6179494261741638,0.2701282203197479,0.9546557664871216,0.5432177782058716,0.44198790192604065,-0.10776052623987198,0.8501967787742615,0.4726858139038086,0.4559394121170044,-0.13876250386238098,0.8704276084899902,-179.99221453490085,0.5072300881147385,0.453214168548584,135.62820761380917,147.89544607897633,0.6516397920467115,0.0006624045172648222,0.007028538687392568,-0.002228585988156821,-0.11279937890483577,178.45510609016816,0.023673867075592363,86,1762115287.7732754
0.5035807490348816,0.20569255948066711,-0.2443692982196808,0.9999598264694214,0.5391958951950073,0.27762430906295776,-0.10338059812784195,0.9999109506607056,0.47527533769607544,0.2793847918510437,-0.11040741205215454,0.9998561143875122,0.5236859321594238,0.4534347653388977,-0.0035558845847845078,0.9998313188552856,0.4908991754055023,0.45322558283805847,0.0034888158552348614,0.9997339844703674,0.5206753015518188,0.5489938259124756,0.04326174780726433,0.9661284685134888,0.49199485778808594,0.5415018796920776,0.07217077165842056,0.9585263133049011,0.5135682225227356,0.621459424495697,0.25273633003234863,0.9561911225318909,0.4971746802330017,0.6180712580680847,0.2738629877567291,0.9543518424034119,0.543286919593811,0.44278979301452637,-0.11604771763086319,0.8460279703140259,0.4726707935333252,0.4567091763019562,-0.14263880252838135,0.8671980500221252,-179.9813398692982,0.5072925537824631,0.4533301740884781,135.20290690089584,148.66300742157304,0.6551238396371517,0.0009855848806765175,0.0018303383339853742,0.005099147924174392,-0.08201733626913693,178.4223738843945,0.05902515755441798,87,1762115287.8366547
0.50356525182724,0.20612074434757233,-0.23901650309562683,0.9999570250511169,0.5391902923583984,0.27811017632484436,-0.10132737457752228,0.999908983707428,0.47524866461753845,0.2798458933830261,-0.10414234548807144,0.9998505115509033,0.5237920880317688,0.45519721508026123,-0.004025364760309458,0.999833881855011,0.49089187383651733,0.4550244212150574,0.00396373774856329,0.9997363090515137,0.5206881761550903,0.5513865351676941,0.04311054199934006,0.9656097292900085,0.491985946893692,0.5427782535552979,0.0770096480846405,0.9581405520439148,0.5136787295341492,0.6214669346809387,0.25563275814056396,0.9556007981300354,0.49716949462890625,0.6180993318557739,0.2814738154411316,0.9536843299865723,0.5432751774787903,0.44321268796920776,-0.11440650373697281,0.8434000015258789,0.47256389260292053,0.45707249641418457,-0.1421850025653839,0.8643158078193665,-179.9601501101452,0.5073419809341431,0.4551108181476593,134.37600250269563,149.98628545928946,0.6547878427204455,0.0007801886188897378,0.02810678305440669,-0.0032421011602294784,0.4147635948857712,178.44506858626931,0.1340363486527365,88,1762115287.9000075
0.5034738779067993,0.20713478326797485,-0.24085672199726105,0.9999492764472961,0.5392739772796631,0.2790292203426361,-0.10018739849328995,0.99990314245224,0.475095272064209,0.28102409839630127,-0.10444710403680801,0.9998430013656616,0.523931622505188,0.45670974254608154,-0.003909648861736059,0.9998332858085632,0.4908890128135681,0.45625588297843933,0.003852191613987088,0.9997389912605286,0.5205594301223755,0.5547436475753784,0.042607225477695465,0.9642502665519714,0.49170199036598206,0.5433070063591003,0.05618437007069588,0.9574763774871826,0.513679563999176,0.621593713760376,0.2645037770271301,0.9540446996688843,0.49708622694015503,0.618118941783905,0.25852543115615845,0.952648401260376,0.5433088541030884,0.443348228931427,-0.12041084468364716,0.8343279361724854,0.4723268151283264,0.4574301838874817,-0.14185920357704163,0.8556676506996155,-179.9267169302629,0.507410317659378,0.45648281276226044,132.17137097470228,141.29429630489932,0.6501689525979263,0.0008573372816463268,0.017212737796123475,0.0009678898803380369,-0.13667425700825056,178.21963837025632,0.3014002863241111,89,1762115287.9797156
