nose_x,nose_y,nose_z,nose_visibility,left_shoulder_x,left_shoulder_y,left_shoulder_z,left_shoulder_visibility,right_shoulder_x,right_shoulder_y,right_shoulder_z,right_shoulder_visibility,left_hip_x,left_hip_y,left_hip_z,left_hip_visibility,right_hip_x,right_hip_y,right_hip_z,right_hip_visibility,left_knee_x,left_knee_y,left_knee_z,left_knee_visibility,right_knee_x,right_knee_y,right_knee_z,right_knee_visibility,left_ankle_x,left_ankle_y,left_ankle_z,left_ankle_visibility,right_ankle_x,right_ankle_y,right_ankle_z,right_ankle_visibility,left_wrist_x,left_wrist_y,left_wrist_z,left_wrist_visibility,right_wrist_x,right_wrist_y,right_wrist_z,right_wrist_visibility,trunk_lateral_inclination,center_mass_x,center_mass_y,left_knee_angle,right_knee_angle,person_height,center_mass_velocity_x,center_mass_velocity_y,center_mass_acceleration_x,center_mass_acceleration_y,body_orientation,torso_leg_ratio,frame,timestamp
0.5538461804389954,0.15894918143749237,-0.132505401968956,0.9999336004257202,0.5667122006416321,0.19280585646629333,-0.05974436551332474,0.9999229907989502,0.5371091365814209,0.19312793016433716,-0.049182090908288956,0.9998658895492554,0.5584384799003601,0.2754882276058197,-0.007631037384271622,0.9998195767402649,0.5425364971160889,0.2750667333602905,0.007585340645164251,0.9997169375419617,0.5575032830238342,0.32695239782333374,0.02332773618400097,0.9784144163131714,0.5450064539909363,0.323819637298584,0.056377846747636795,0.930160641670227,0.5572256445884705,0.3701631426811218,0.12511464953422546,0.9584408402442932,0.5467963218688965,0.36243003606796265,0.16255584359169006,0.9383049011230469,0.5697850584983826,0.27615636587142944,-0.07061681151390076,0.8083291053771973,0.5294023752212524,0.2791212797164917,-0.061862729489803314,0.8778174519538879,179.00943375810286,0.5504874885082245,0.2752774804830551,144.01380875588202,154.97346950157868,0.34548584566962043,0.0,0.0,0.0,0.0,179.37666129764244,1.8797416867838572,0,1761939728.2543063
0.5538292527198792,0.15916022658348083,-0.12783950567245483,0.9999392032623291,0.5667025446891785,0.19294002652168274,-0.0585542730987072,0.9999266862869263,0.537101686000824,0.19313788414001465,-0.05442547798156738,0.9998696446418762,0.5586434602737427,0.27174270153045654,-0.004871714860200882,0.9998095035552979,0.5423067808151245,0.27113327383995056,0.004809676203876734,0.9996998906135559,0.5576730966567993,0.3262287974357605,0.00908387266099453,0.9791566729545593,0.5450016260147095,0.32382604479789734,0.0236285962164402,0.933584451675415,0.5573734045028687,0.3700621724128723,0.08159060776233673,0.9607398509979248,0.547011137008667,0.3625866770744324,0.09601797163486481,0.9411547183990479,0.5691611170768738,0.2761980891227722,-0.06322760879993439,0.8203467130661011,0.529816210269928,0.2775273621082306,-0.06337349116802216,0.880958616733551,178.95723518973082,0.5504751205444336,0.27143798768520355,135.50482544206162,137.81512784240962,0.2997569328340438,-0.00022021522721966336,-0.06836329675461125,-0.003920996788098159,-1.2172285739861737,179.6170301082062,1.6672264227974496,1,1761939728.3104694
0.5537735223770142,0.15930412709712982,-0.12844392657279968,0.9999442100524902,0.5667028427124023,0.19298316538333893,-0.06074162572622299,0.9999297857284546,0.537099301815033,0.19323721528053284,-0.058255214244127274,0.9998725056648254,0.5587154626846313,0.2707046866416931,-0.004229861311614513,0.9998046159744263,0.5420709252357483,0.2699485421180725,0.004161668010056019,0.9996868968009949,0.5577051043510437,0.325290709733963,0.007880916818976402,0.979800820350647,0.5449924468994141,0.3238013684749603,0.02409912273287773,0.9365779161453247,0.5575722455978394,0.3689199984073639,0.08615906536579132,0.9628272652626038,0.5470893979072571,0.3625645041465759,0.1018129214644432,0.9437059164047241,0.5691097974777222,0.2764733135700226,-0.06522402167320251,0.8311914801597595,0.5298103094100952,0.2774454951286316,-0.06808582693338394,0.8840622305870056,178.88127319540288,0.5503931939601898,0.2703266143798828,131.62652104449464,136.81916937259876,0.3034696851512751,-0.0017433070706353274,-0.023648794334156897,-0.03240970930696761,0.9514751402008076,179.50831457527875,1.5338835702854134,2,1761939728.3574643
0.5538021326065063,0.1595463752746582,-0.12899519503116608,0.9999489784240723,0.56687331199646,0.19330300390720367,-0.0613386332988739,0.9999333024024963,0.53750079870224,0.19323794543743134,-0.058845292776823044,0.9998764395713806,0.5587853193283081,0.27060166001319885,-0.004074484575539827,0.9998050928115845,0.5420666933059692,0.2696759104728699,0.004004157148301601,0.9996832013130188,0.5576900243759155,0.3248596787452698,0.009761963970959187,0.9805282354354858,0.5450181365013123,0.32379332184791565,0.026154775172472,0.9398327469825745,0.5575687289237976,0.36864930391311646,0.08986055105924606,0.9649335741996765,0.547138512134552,0.36266618967056274,0.10529223829507828,0.9464475512504578,0.5691434741020203,0.27644044160842896,-0.06580556929111481,0.8428160548210144,0.5299544930458069,0.27682167291641235,-0.0693884938955307,0.8890724778175354,178.68758622679823,0.5504260063171387,0.27013878524303436,132.95282310814116,138.41158173011775,0.30629835278514117,0.0004140878633517573,-0.002370380344027657,0.027226055720811552,0.26853093785434046,-179.87309326898878,1.7600984196685627,3,1761939728.4376996
0.5537595748901367,0.1597810685634613,-0.12923040986061096,0.9999530911445618,0.5669094324111938,0.19407562911510468,-0.061899881809949875,0.9999354481697083,0.5375570058822632,0.1934073120355606,-0.05901671200990677,0.999880313873291,0.5588364005088806,0.27068766951560974,-0.004038895945996046,0.9998056888580322,0.5420355200767517,0.2696373760700226,0.003964283503592014,0.9996810555458069,0.557544469833374,0.32492223381996155,0.007778939791023731,0.9811350703239441,0.5449007749557495,0.3238097131252289,0.024068627506494522,0.9425640106201172,0.5574911236763,0.3686741590499878,0.08703814446926117,0.9667585492134094,0.547353982925415,0.36275622248649597,0.10355959832668304,0.948436439037323,0.5691536068916321,0.2768462002277374,-0.06618780642747879,0.8512094616889954,0.529960572719574,0.27672526240348816,-0.06944270431995392,0.8930425643920898,178.65277478549962,0.5504359602928162,0.27016252279281616,131.1693833167138,136.46854184439442,0.3046703931422934,0.00012794425001685494,0.0003051125602946855,-0.003677970611083295,0.034389669430581644,-178.6956739997098,1.4965547513935895,4,1761939728.5145037
0.5537055134773254,0.16003061830997467,-0.13055086135864258,0.9999570250511169,0.566869854927063,0.19494391977787018,-0.0633004754781723,0.9999376535415649,0.537550687789917,0.19366270303726196,-0.061459146440029144,0.9998853802680969,0.5588375329971313,0.2703186273574829,-0.004041542299091816,0.9998090267181396,0.5420396327972412,0.2695755958557129,0.003965291660279036,0.9996838569641113,0.556725263595581,0.3249600827693939,0.007273060269653797,0.9815706014633179,0.5447919964790344,0.32390642166137695,0.02153930999338627,0.9442745447158813,0.5568230748176575,0.369048148393631,0.0846293643116951,0.9683844447135925,0.5473505258560181,0.363037645816803,0.10428839921951294,0.9490234851837158,0.5691463351249695,0.2768835425376892,-0.06947677582502365,0.8573980331420898,0.5297642946243286,0.2767498195171356,-0.0735669806599617,0.8959052562713623,178.6582943264814,0.5504385828971863,0.2699471116065979,131.32977246687562,133.24550854633563,0.3050787828536742,2.92040567089683e-05,-0.0023987150215048054,-0.0010995231448840922,-0.030108519199415738,-177.49782665341627,1.3329281145765506,5,1761939728.6043065
0.5537495613098145,0.1603146195411682,-0.1332097351551056,0.9999604225158691,0.5668474435806274,0.19571340084075928,-0.0669572576880455,0.9999385476112366,0.5375927686691284,0.1940322071313858,-0.06398416310548782,0.9998882412910461,0.5588344931602478,0.270510733127594,-0.004214129876345396,0.9998080730438232,0.5420600175857544,0.2697823941707611,0.004139583557844162,0.9996796250343323,0.5561048984527588,0.3250649869441986,0.006577827036380768,0.9820791482925415,0.544490396976471,0.324008584022522,0.022901901975274086,0.9460230469703674,0.5564647912979126,0.3697569966316223,0.08256811648607254,0.9700295925140381,0.5469085574150085,0.36348626017570496,0.10297496616840363,0.9502699375152588,0.5691512227058411,0.27725502848625183,-0.07386276870965958,0.8632607460021973,0.5296303033828735,0.27678734064102173,-0.07560370862483978,0.898938775062561,178.65081681884743,0.5504472553730011,0.27014656364917755,131.56343898912894,135.33885487722637,0.30599734431684456,0.00014455403837288782,0.00332449450794004,0.0019226696080564955,0.09539525593392294,-176.71097096864634,1.2754077501153553,6,1761939728.6643012
0.5538470149040222,0.16132526099681854,-0.13755762577056885,0.999963641166687,0.566794753074646,0.1966252624988556,-0.06846719980239868,0.9999396204948425,0.5376244783401489,0.1944499909877777,-0.06804808974266052,0.9998932480812073,0.5588339567184448,0.2706249952316284,-0.004090111702680588,0.9998137354850769,0.5421994924545288,0.2699250876903534,0.0040136659517884254,0.9996844530105591,0.5559144616127014,0.32579028606414795,0.002003664616495371,0.9830375909805298,0.544467568397522,0.3247753083705902,0.02284955605864525,0.9480544924736023,0.5564871430397034,0.37176191806793213,0.07358092814683914,0.9719756245613098,0.5469234585762024,0.36377283930778503,0.10899324715137482,0.9511715173721313,0.569200873374939,0.27732059359550476,-0.07450012862682343,0.8646179437637329,0.5295829176902771,0.2769179940223694,-0.078550323843956,0.9023963212966919,178.7024045028056,0.5505167245864868,0.2702750414609909,128.9138654004006,133.31979412500112,0.30820908123571583,0.001699812152891212,0.0031436680356559483,0.03805493845823415,-0.004424564778124887,-175.7352606429833,1.117209121696016,7,1761939728.70517
0.5542105436325073,0.1629679650068283,-0.13611365854740143,0.9999666810035706,0.5667275786399841,0.19779103994369507,-0.0677495002746582,0.9999420046806335,0.5376970171928406,0.19513802230358124,-0.06642084568738937,0.9998984932899475,0.5588135719299316,0.27106156945228577,-0.003337590489536524,0.9998220801353455,0.5422477126121521,0.2707560360431671,0.0032680719159543514,0.9996922612190247,0.5557862520217896,0.3279181122779846,0.0004546851268969476,0.9838888645172119,0.5444713830947876,0.3265550136566162,0.022228578105568886,0.9498469829559326,0.5565077662467957,0.3754173815250397,0.06604128330945969,0.9735690355300903,0.5470000505447388,0.3642124533653259,0.11224658787250519,0.950143575668335,0.5694387555122375,0.27799007296562195,-0.07334216684103012,0.8681157231330872,0.5295825600624084,0.2773829698562622,-0.0778585821390152,0.9058293104171753,178.70593955612145,0.5505306422710419,0.27090880274772644,129.6144691479327,131.48180909737556,0.305831130702442,0.00030436460141923847,0.013859669018160204,-0.030516917963268234,0.23434726911264503,-174.77841116585003,1.034170789608533,8,1761939728.750897
0.5545265078544617,0.16457277536392212,-0.13570094108581543,0.9999693036079407,0.5667250752449036,0.19881433248519897,-0.06525488197803497,0.9999442100524902,0.5378845930099487,0.19583871960639954,-0.06525708734989166,0.9999035000801086,0.558730959892273,0.27171993255615234,-0.0032694670371711254,0.9998267292976379,0.5422961711883545,0.27195149660110474,0.003202263731509447,0.9996925592422485,0.5557003617286682,0.3291398882865906,-0.0017431406304240227,0.9843190312385559,0.5445780158042908,0.328313946723938,0.020662818104028702,0.9502139687538147,0.5567531585693359,0.3784676790237427,0.06164387986063957,0.974640429019928,0.5470176935195923,0.36757680773735046,0.10962845385074615,0.9466990828514099,0.5698909759521484,0.27824532985687256,-0.0727873370051384,0.8719661235809326,0.5296643376350403,0.27794820070266724,-0.07755552232265472,0.9107632637023926,178.6228226841864,0.5505135655403137,0.27183571457862854,129.28203828511556,131.03763041296418,0.3040530732971659,-0.0003656743468915766,0.019848522752219572,-0.014347948604213205,0.12824294138581077,-174.10935870557464,1.0252005321100957,9,1761939728.7975962
0.5547875165939331,0.16594089567661285,-0.1371934711933136,0.9999716281890869,0.5667244791984558,0.199173241853714,-0.06491102278232574,0.9999462366104126,0.5379768013954163,0.19667363166809082,-0.06619930267333984,0.9999082684516907,0.5587149858474731,0.27227991819381714,-0.0033966563642024994,0.9998303055763245,0.5423351526260376,0.2725740373134613,0.0033305406104773283,0.9996914267539978,0.5557435750961304,0.3297692537307739,-0.0024946106132119894,0.984735906124115,0.5447183847427368,0.3286163806915283,0.02375909313559532,0.9503592252731323,0.5569233894348145,0.3800208270549774,0.058434464037418365,0.9757972359657288,0.5469156503677368,0.36854663491249084,0.11186613887548447,0.945514976978302,0.5701316595077515,0.2784609794616699,-0.07423166930675507,0.8757550716400146,0.5296769142150879,0.2786608040332794,-0.07926937192678452,0.9155383706092834,178.59635408597975,0.5505250692367554,0.2724269777536392,130.27420179976332,134.41170838127567,0.30471579490562967,0.00019422360873503069,0.009982640636006844,0.00945308336470364,-0.16657143533686025,-175.03063092591958,1.0805136781612672,10,1761939728.8568254
0.5552195310592651,0.16699203848838806,-0.13709942996501923,0.9999735951423645,0.5666806101799011,0.19955429434776306,-0.0634319931268692,0.9999480247497559,0.5382016897201538,0.19734638929367065,-0.06575609743595123,0.9999118447303772,0.5586980581283569,0.27309805154800415,-0.0034580212086439133,0.999837338924408,0.5423479080200195,0.27349990606307983,0.0033974498510360718,0.9996931552886963,0.5561391115188599,0.33006441593170166,-0.009785609319806099,0.9852234125137329,0.545127272605896,0.3295224905014038,0.027153510600328445,0.9501351118087769,0.5577915906906128,0.3807119131088257,0.047404881566762924,0.9768846035003662,0.5468477606773376,0.3684022128582001,0.12513598799705505,0.9423976540565491,0.5702958106994629,0.2785645127296448,-0.07464118301868439,0.8770152926445007,0.5297380685806274,0.27997976541519165,-0.07916402816772461,0.9191471934318542,178.5319864135207,0.5505229830741882,0.273298978805542,125.06332148704232,134.60714266261974,0.304935640802974,-4.3837894979433764e-05,0.018323926973582032,-0.0050025416824512805,0.17528089144152506,-175.5668579646506,1.1367025144952754,11,1761939728.9044135
0.5558965802192688,0.16814428567886353,-0.14176133275032043,0.9999750256538391,0.5668240189552307,0.20008836686611176,-0.06501394510269165,0.9999489188194275,0.5384750366210938,0.1981360763311386,-0.06878978759050369,0.9999157786369324,0.5588732957839966,0.27433258295059204,-0.003490955103188753,0.999845564365387,0.5424654483795166,0.27490684390068054,0.0034481629263609648,0.9996956586837769,0.5574293732643127,0.3304445147514343,-0.017576206475496292,0.9857670068740845,0.545547604560852,0.330269455909729,0.0356033593416214,0.9501203894615173,0.5590606927871704,0.38312360644340515,0.03557930514216423,0.9781088829040527,0.546850323677063,0.368075430393219,0.14227958023548126,0.9383689165115356,0.5706409215927124,0.27865922451019287,-0.07741644978523254,0.8691912293434143,0.5299166440963745,0.2815101444721222,-0.08100411295890808,0.9218654632568359,178.49778394172404,0.5506693720817566,0.2746197134256363,120.58816555772594,139.619966747134,0.31026530158579696,0.004209487114444574,0.03797836638991917,0.12230642941106365,0.5651729650948543,-176.06046959129262,1.3488621573684756,12,1761939728.9391894
0.5563036799430847,0.16960296034812927,-0.1421164572238922,0.9999767541885376,0.5670430660247803,0.20106522738933563,-0.06554511934518814,0.9999512434005737,0.5386227369308472,0.1991395354270935,-0.0679161548614502,0.9999203085899353,0.5591155290603638,0.2759365439414978,-0.004253240302205086,0.9998565316200256,0.542592465877533,0.2767769396305084,0.00425140094012022,0.999701738357544,0.5582352876663208,0.3312968909740448,-0.03858237713575363,0.9864716529846191,0.5456579327583313,0.33248311281204224,0.04453389719128609,0.9500624537467957,0.559833288192749,0.3860853314399719,0.0028029282111674547,0.9795154333114624,0.5466668009757996,0.3678613007068634,0.15965238213539124,0.9314307570457458,0.5709497332572937,0.280277281999588,-0.08026184141635895,0.8671956658363342,0.529982328414917,0.28313952684402466,-0.08014928549528122,0.9257314205169678,178.5134305229876,0.5508539974689484,0.2763567417860031,111.09839926615231,142.9031894624587,0.304785796363639,0.004398083727587166,0.041378903964877804,0.004492684933296384,0.0810064596259423,-176.12370306040995,1.5170590804884712,13,1761939728.981168
0.5566327571868896,0.1702072024345398,-0.14409172534942627,0.9999781250953674,0.5673641562461853,0.20217609405517578,-0.06824678182601929,0.9999523162841797,0.5389517545700073,0.19963060319423676,-0.06914110481739044,0.9999241232872009,0.5593698024749756,0.27736368775367737,-0.0046535818837583065,0.9998652338981628,0.542664647102356,0.2778751254081726,0.004661275539547205,0.99970543384552,0.5585857033729553,0.3321693539619446,-0.03183192014694214,0.9869439005851746,0.545667827129364,0.33359387516975403,0.04776092618703842,0.94990074634552,0.5600484609603882,0.3871673047542572,0.011293158866465092,0.9807735681533813,0.5460923910140991,0.36871588230133057,0.15698961913585663,0.9286884665489197,0.5709823369979858,0.28325408697128296,-0.08118368685245514,0.8613635897636414,0.5300947427749634,0.2838810682296753,-0.08040570467710495,0.928102970123291,178.40159919624668,0.5510172247886658,0.277619406580925,115.49060466300661,145.47703537768206,0.3086367151403559,0.0033520613004308654,0.025930278104191146,-0.02148127717543763,-0.3172553527319893,-174.8804912111121,2.266136971358384,14,1761939729.0298626
0.5571787357330322,0.1706722527742386,-0.1538139283657074,0.9999790787696838,0.5686891674995422,0.20319241285324097,-0.08063393831253052,0.9999548196792603,0.5398905277252197,0.1997988224029541,-0.07442166656255722,0.9999259114265442,0.5597654581069946,0.27812886238098145,-0.005786057095974684,0.999875545501709,0.542982280254364,0.27786797285079956,0.005790228024125099,0.9997134208679199,0.5592197179794312,0.33223479986190796,-0.039856426417827606,0.9873068332672119,0.5461889505386353,0.33320266008377075,0.04955577105283737,0.9486479759216309,0.5604827404022217,0.38648080825805664,0.010868069715797901,0.9820135235786438,0.5461176037788391,0.3687742352485657,0.1614379733800888,0.926931619644165,0.5717059373855591,0.28644683957099915,-0.09636804461479187,0.8611044883728027,0.5308498740196228,0.2843590974807739,-0.08404326438903809,0.9291064739227295,177.81717246627383,0.5513738691806793,0.2779984176158905,104.70841292414885,145.87827616600683,0.3169063957464251,0.006737750772473808,0.007160302953867774,0.06396268206215645,-0.3546036819880815,-173.2793406041812,4.885713133141724,15,1761939729.082795
0.5576181411743164,0.17056864500045776,-0.15231700241565704,0.9999802708625793,0.5696063041687012,0.20328058302402496,-0.07755743712186813,0.9999570250511169,0.5405183434486389,0.19980250298976898,-0.07264543324708939,0.9999287128448486,0.5604439973831177,0.2788662314414978,-0.00571951549500227,0.9998852014541626,0.5434892177581787,0.2780270576477051,0.005717966705560684,0.9997243881225586,0.5598308444023132,0.3335972726345062,-0.03983169049024582,0.9880360960960388,0.5466249585151672,0.33358973264694214,0.04766349494457245,0.9506418108940125,0.5606679916381836,0.3866838812828064,0.01228752639144659,0.983325719833374,0.546148419380188,0.36867019534111023,0.1682504117488861,0.9272651076316833,0.5729269981384277,0.2870444059371948,-0.09333866089582443,0.8628309369087219,0.5314494967460632,0.28436610102653503,-0.0828511044383049,0.9307819604873657,177.69487637997284,0.5519666075706482,0.27844664454460144,103.58212112527528,143.16713651324537,0.31899774873828884,0.015287753194524726,0.011560551462901698,0.2205194214732192,0.11349005621893117,-173.18145201532377,17.074721885220406,16,1761939729.121567
0.5580587983131409,0.17025943100452423,-0.149870827794075,0.9999809861183167,0.5705705285072327,0.20345287024974823,-0.07452300190925598,0.9999589920043945,0.541103720664978,0.1997831165790558,-0.07149551063776016,0.9999297261238098,0.5608120560646057,0.2794598340988159,-0.005281821824610233,0.9998940825462341,0.54383385181427,0.2781892418861389,0.005287605803459883,0.9997329711914062,0.5602231025695801,0.3350389301776886,-0.04051504284143448,0.9885554909706116,0.5467043519020081,0.334262877702713,0.044400207698345184,0.9520033597946167,0.5605625510215759,0.38656044006347656,0.01786913350224495,0.9842605590820312,0.5460507273674011,0.3679742217063904,0.16985873878002167,0.9239219427108765,0.5735008716583252,0.2864445149898529,-0.08993880450725555,0.8638462424278259,0.5322877764701843,0.28459084033966064,-0.08269361406564713,0.9305718541145325,177.393896162441,0.5523229539394379,0.2788245379924774,99.05070179384857,139.84982720857172,0.319814772610238,0.008513665155278087,0.009028458155802136,-0.16184342636745158,-0.06049562012315683,-172.9010172242834,22.22919973988119,17,1761939729.1634228
0.5588305592536926,0.1699928641319275,-0.15839926898479462,0.999981701374054,0.5714765787124634,0.2031412273645401,-0.0803978368639946,0.9999613165855408,0.541675329208374,0.1993248015642166,-0.0763186365365982,0.999931275844574,0.5621004700660706,0.279065877199173,-0.0053437137976288795,0.9999021291732788,0.5447037220001221,0.2780951261520386,0.005346936173737049,0.9997396469116211,0.5605114698410034,0.33499881625175476,-0.036180999130010605,0.9892923831939697,0.5469752550125122,0.33412379026412964,0.04804939031600952,0.954305112361908,0.5606129169464111,0.3864566385746002,0.021994737908244133,0.9854676723480225,0.5457965731620789,0.36587944626808167,0.1796562224626541,0.9240793585777283,0.5743144750595093,0.28591546416282654,-0.09843344986438751,0.8668904900550842,0.5328735113143921,0.28434377908706665,-0.08790498971939087,0.932299017906189,177.65025717283365,0.5534020960330963,0.2785805016756058,102.61595943800529,140.80661011785048,0.3312662441457836,0.02180831329771088,-0.004931714262311669,0.26867069089121226,-0.28212022825665706,-172.70227424292716,5.8816822604187005,18,1761939729.212906
0.5595851540565491,0.16891707479953766,-0.15604475140571594,0.9999825954437256,0.5727515816688538,0.20278583467006683,-0.08017967641353607,0.9999631643295288,0.5425626039505005,0.19791820645332336,-0.07433592528104782,0.9999338984489441,0.5632615685462952,0.2788982093334198,-0.004444817081093788,0.9999087452888489,0.5455663800239563,0.2780008316040039,0.004426612518727779,0.9997491240501404,0.5608542561531067,0.33510297536849976,-0.023249901831150055,0.9900248646736145,0.5469302535057068,0.3338523805141449,0.04462220519781113,0.9574733376502991,0.5606399774551392,0.3860395550727844,0.04455176740884781,0.9865089058876038,0.5456763505935669,0.3643583059310913,0.1665976345539093,0.9273054599761963,0.5751668214797974,0.285497784614563,-0.08894754946231842,0.8675726652145386,0.5334199070930481,0.2832077145576477,-0.08073543012142181,0.9321975708007812,177.62207108273554,0.5544139742851257,0.27844952046871185,108.40334467984418,139.74160813288583,0.33322402083316716,0.02487938776467278,-0.003220478579970455,0.07550953127462755,0.04207472194636483,-170.84054185328776,4.411861095602231,19,1761939729.2535772
0.5599890947341919,0.16651882231235504,-0.1523742973804474,0.9999834299087524,0.5734547972679138,0.20116353034973145,-0.07876459509134293,0.9999645948410034,0.5432138442993164,0.19640600681304932,-0.07292687147855759,0.9999351501464844,0.5639630556106567,0.2787294387817383,-0.0034476853907108307,0.999915361404419,0.546281635761261,0.2774662673473358,0.003420565975829959,0.999758780002594,0.5611809492111206,0.33574438095092773,-0.02245948277413845,0.9907460808753967,0.5469161868095398,0.3334304392337799,0.04231978580355644,0.9605463743209839,0.5605984330177307,0.3858654797077179,0.047023121267557144,0.9875100255012512,0.5454725623130798,0.3621196448802948,0.17340834438800812,0.9294471740722656,0.5762290954589844,0.2853911817073822,-0.08829222619533539,0.8695162534713745,0.5335915088653564,0.28247326612472534,-0.08096854388713837,0.9323083758354187,177.680936127026,0.5551223456859589,0.27809785306453705,107.3594073037941,137.12546566701653,0.3347345653781934,0.017963053651104583,-0.008917667259162525,-0.1753860765763143,-0.14447069120016698,-171.05947413201295,3.167408566605937,20,1761939729.2930121
0.560327410697937,0.16445425152778625,-0.15555310249328613,0.9999842047691345,0.5743793249130249,0.20017188787460327,-0.07688800245523453,0.9999662041664124,0.5437783598899841,0.19483263790607452,-0.07379337400197983,0.9999357461929321,0.5648109316825867,0.2786140441894531,-0.0031599942594766617,0.9999220371246338,0.5468947291374207,0.277104914188385,0.0031257602386176586,0.999769926071167,0.5613683462142944,0.33606043457984924,-0.02223942242562771,0.9913321733474731,0.5470477938652039,0.33322852849960327,0.03698752075433731,0.963178813457489,0.5605612993240356,0.38574519753456116,0.05723901465535164,0.9883162379264832,0.5454999208450317,0.3589646518230438,0.18121449649333954,0.9283860921859741,0.5768017172813416,0.2853246331214905,-0.0891345739364624,0.8689290881156921,0.5337944030761719,0.28203660249710083,-0.08383037894964218,0.9297491908073425,177.7010444596257,0.5558528304100037,0.27785947918891907,103.64172628606735,131.21179702941353,0.3446446047677307,0.020711374144877375,-0.00675859516534624,0.07792290809502472,0.06121599599398386,-170.10267717149537,2.7374812162463793,21,1761939729.3282819
0.5608201622962952,0.16333697736263275,-0.14798136055469513,0.9999849796295166,0.5753011703491211,0.1993054449558258,-0.07008258253335953,0.9999678730964661,0.5445502400398254,0.19396530091762543,-0.06970873475074768,0.999937891960144,0.5652357339859009,0.2786217927932739,-0.0018204718362540007,0.9999274611473083,0.5474776029586792,0.276816189289093,0.001775011420249939,0.9997814297676086,0.5619460940361023,0.33668774366378784,-0.013070334680378437,0.9918185472488403,0.5475650429725647,0.33295026421546936,0.02797899767756462,0.9657909870147705,0.5609184503555298,0.385057270526886,0.07144945114850998,0.988929033279419,0.5460933446884155,0.3587294816970825,0.17170508205890656,0.929672360420227,0.5776194334030151,0.28516677021980286,-0.07988463342189789,0.8698241710662842,0.5343512296676636,0.28100112080574036,-0.08010588586330414,0.9280253648757935,177.47965330038753,0.55635666847229,0.27771899104118347,108.81799067511031,125.18476126818946,0.34089752625094033,0.011303764087916085,-0.0031518954164460205,-0.21106266611225918,0.08091743389236317,-170.14837941944594,2.8536975531695035,22,1761939729.3728545
0.5616350173950195,0.16254328191280365,-0.14710015058517456,0.9999856352806091,0.5759183764457703,0.19895148277282715,-0.06758876889944077,0.9999696016311646,0.5452411770820618,0.19336101412773132,-0.06975437700748444,0.9999393820762634,0.565829336643219,0.27866029739379883,0.0005829174187965691,0.9999324679374695,0.5479716062545776,0.2765862047672272,-0.0006399840349331498,0.9997928738594055,0.5623430013656616,0.3371982276439667,-0.007408551871776581,0.9920510649681091,0.5486758351325989,0.33289358019828796,0.019177138805389404,0.9680209755897522,0.5610692501068115,0.384996235370636,0.08199020475149155,0.9892448782920837,0.5465079545974731,0.3583068549633026,0.15577432513237,0.9295973181724548,0.5791811347007751,0.2854004502296448,-0.07721413671970367,0.8757033944129944,0.5351498126983643,0.2803088426589966,-0.08018718659877777,0.9272642135620117,177.41410012630618,0.5569004714488983,0.277623251080513,110.36092228719117,119.90595934523226,0.33842942744364335,0.014731955433554012,-0.0025936541256257064,0.09287180154222212,0.015123098201535972,-169.67202086218566,2.136874982658802,23,1761939729.4097676
0.5618311762809753,0.1612875759601593,-0.13834768533706665,0.9999864101409912,0.5763600468635559,0.19834770262241364,-0.059622250497341156,0.999971330165863,0.5456475615501404,0.19245567917823792,-0.0650029256939888,0.9999409317970276,0.5662753582000732,0.2786376178264618,0.0019132711458951235,0.999935507774353,0.5483150482177734,0.27622196078300476,-0.0019747489131987095,0.9998002052307129,0.5627100467681885,0.3376615643501282,-0.006027378141880035,0.9921585321426392,0.5495947599411011,0.33277589082717896,0.00782499648630619,0.9700212478637695,0.5612722635269165,0.3849514424800873,0.08004181832075119,0.9894589185714722,0.5468588471412659,0.3598916828632355,0.1269911378622055,0.9306647777557373,0.5802522301673889,0.2849779427051544,-0.06808914244174957,0.882108211517334,0.5350355505943298,0.2788858115673065,-0.07440999895334244,0.9257771968841553,177.41134334172858,0.5572952032089233,0.2774297893047333,111.13204080858124,112.60354369628728,0.3211481570309463,0.00986800932189752,-0.004836404870751056,-0.12159514493586887,-0.05606715116662138,-169.14006394000398,1.7762791934163273,24,1761939729.4497688
0.5620405077934265,0.16102081537246704,-0.13511165976524353,0.9999871850013733,0.57639479637146,0.1979694813489914,-0.05461036413908005,0.9999728202819824,0.5460000038146973,0.1920529305934906,-0.06085949391126633,0.9999430179595947,0.5663456916809082,0.27861011028289795,0.003647680627182126,0.9999371767044067,0.5486175417900085,0.2760657072067261,-0.003720867680385709,0.9998073577880859,0.5631649494171143,0.3388429880142212,-0.003943170420825481,0.9916912317276001,0.5514235496520996,0.3330185115337372,-0.005060363095253706,0.9716559648513794,0.5612421035766602,0.38531848788261414,0.08588434755802155,0.9891608953475952,0.5476986169815063,0.36779406666755676,0.10503269731998444,0.932115912437439,0.5811132788658142,0.28494250774383545,-0.06475662440061569,0.8880242109298706,0.535136878490448,0.27778106927871704,-0.07123690098524094,0.9243577122688293,177.4157314016597,0.5574816167354584,0.277337908744812,110.19822780582804,106.05679110153588,0.3157141925740169,0.005612241235751816,-0.002766193402050016,-0.1281258800625432,0.06232662611630142,-168.98473997711966,1.3153731072305,25,1761939729.4829843
0.5623949766159058,0.16047190129756927,-0.13263064622879028,0.9999879002571106,0.5771464705467224,0.19790855050086975,-0.05341329053044319,0.999973475933075,0.5465692281723022,0.19182826578617096,-0.058836884796619415,0.9999445676803589,0.566856324672699,0.2785724103450775,0.004196701105684042,0.9999328255653381,0.5491806268692017,0.2759397029876709,-0.004269836004823446,0.9998072981834412,0.5637015104293823,0.3388506770133972,0.004524917341768742,0.9903777241706848,0.5528011322021484,0.33301109075546265,-0.0015543157933279872,0.9728010892868042,0.5608389377593994,0.3842887878417969,0.09772122651338577,0.9881560206413269,0.5492197871208191,0.3761623501777649,0.0932663232088089,0.9358012676239014,0.5821560025215149,0.2849367558956146,-0.0605415478348732,0.8936474919319153,0.5357598066329956,0.27791303396224976,-0.06862083822488785,0.922459065914154,177.33187108175275,0.5580184757709503,0.2772560566663742,116.34183110285316,116.972712647486,0.3168385681111947,0.014287572492734863,-0.0021783511630563065,0.23087890123532076,0.015644402065838444,-168.75343730112638,1.191257393186686,26,1761939729.5205595
0.5627530813217163,0.16004222631454468,-0.13532473146915436,0.9999886751174927,0.5779582262039185,0.19736944139003754,-0.05751184746623039,0.9999738335609436,0.5468242764472961,0.19189198315143585,-0.05777991935610771,0.9999441504478455,0.5675405859947205,0.2784479260444641,0.0028578119818121195,0.9999176859855652,0.5496151447296143,0.27591389417648315,-0.0029406428802758455,0.999791145324707,0.5642920136451721,0.3388097286224365,-0.000596030498854816,0.9897429347038269,0.5536320209503174,0.33315250277519226,0.005396885331720114,0.9731853008270264,0.5611290335655212,0.3843396008014679,0.08759430795907974,0.9877261519432068,0.5511926412582397,0.38342174887657166,0.08906801044940948,0.9401818513870239,0.5830574035644531,0.2845638394355774,-0.0663851648569107,0.9001274108886719,0.5361260175704956,0.2780417203903198,-0.06867405027151108,0.9226295948028564,177.3551159276222,0.5585778653621674,0.27718091011047363,114.08425653058505,129.0217672738147,0.31649497018202716,0.011988278695225637,-0.0016104658886527143,-0.0492761668782095,0.012170349687152983,-170.02194946999586,1.3608640839500579,27,1761939729.567221
0.5629116296768188,0.15963608026504517,-0.13589024543762207,0.9999893307685852,0.5781383514404297,0.197254940867424,-0.06013929098844528,0.9999734163284302,0.5468672513961792,0.19202513992786407,-0.05951392650604248,0.9999432563781738,0.5675191283226013,0.27844059467315674,0.00012012569641228765,0.9998911023139954,0.5496307015419006,0.2759176790714264,-0.00018433554214425385,0.9997667670249939,0.5640819668769836,0.33976832032203674,-0.001502408878877759,0.9888665080070496,0.5532243847846985,0.33496543765068054,0.007921884767711163,0.9725211262702942,0.5611128807067871,0.38561421632766724,0.0850471556186676,0.9867145419120789,0.5527560710906982,0.3894084095954895,0.08846341073513031,0.9435400366783142,0.5831636190414429,0.2838515639305115,-0.0685201957821846,0.9063066840171814,0.5362210869789124,0.27834153175354004,-0.07087453454732895,0.9219221472740173,177.2754528256555,0.558574914932251,0.27717913687229156,116.44110183303125,131.74930436342942,0.3186438128315462,-6.225287495095228e-05,-3.741460666244102e-05,-0.25426133010834745,0.03319074423881426,-170.50567950083666,2.2840534053290535,28,1761939729.6146152
0.5628279447555542,0.15970377624034882,-0.13503806293010712,0.9999896287918091,0.5784732103347778,0.19727471470832825,-0.06013950705528259,0.9999722242355347,0.5468526482582092,0.1921561360359192,-0.05709581449627876,0.9999417066574097,0.5673251748085022,0.27918341755867004,-0.0008808130514807999,0.9998600482940674,0.5494288206100464,0.27696165442466736,0.0008238370646722615,0.9997362494468689,0.5639508366584778,0.34086525440216064,0.0031352390069514513,0.9880561232566833,0.5529407262802124,0.33767783641815186,0.009752010926604271,0.9717604517936707,0.5608066320419312,0.3880237638950348,0.08276959508657455,0.9859317541122437,0.5531519055366516,0.39348846673965454,0.08589150011539459,0.9463275671005249,0.5831863284111023,0.28302836418151855,-0.06872538477182388,0.9105281233787537,0.5361382365226746,0.27978551387786865,-0.06836163252592087,0.9192888140678406,177.05664298177027,0.5583769977092743,0.2780725359916687,124.39956545405016,134.51504841176035,0.31865651992364946,-0.004194054433660555,0.01893197813357315,-0.08755680978988387,0.40197949693042007,-170.80500546110855,2.9205414341376414,29,1761939729.6618052
0.5628636479377747,0.15991035103797913,-0.13352487981319427,0.9999901056289673,0.5787044167518616,0.19737721979618073,-0.058138348162174225,0.999972403049469,0.5469123125076294,0.19298875331878662,-0.056307267397642136,0.9999422430992126,0.5676196813583374,0.28043699264526367,-0.0014258681330829859,0.9998473525047302,0.5495484471321106,0.27852025628089905,0.0013745116302743554,0.9997196793556213,0.5640877485275269,0.34233328700065613,0.00048389550647698343,0.9866958260536194,0.5533748865127563,0.3405066132545471,0.0042886799201369286,0.9690892696380615,0.5594714879989624,0.3927653133869171,0.07413361221551895,0.9844455122947693,0.553839385509491,0.39420390129089355,0.08317454159259796,0.945136547088623,0.5835742354393005,0.2832106351852417,-0.06689739972352982,0.9144806861877441,0.5360434651374817,0.2825517952442169,-0.06819362938404083,0.9184247255325317,177.1311412232033,0.558584064245224,0.27947862446308136,126.24627643444217,126.8667207958755,0.3156190500686739,0.003897222808064581,0.026464150934929615,0.152286848612197,0.1417638803928213,-172.14076451022453,2.033963843206269,30,1761939729.714937
0.5629795789718628,0.16001999378204346,-0.1277659386396408,0.9999903440475464,0.5787971019744873,0.19783172011375427,-0.05421508103609085,0.9999712705612183,0.5470589399337769,0.19437704980373383,-0.05090980976819992,0.9999395608901978,0.5681277513504028,0.28128114342689514,-0.0019074769224971533,0.9998287558555603,0.5499290823936462,0.27953678369522095,0.0018797976663336158,0.9996825456619263,0.5645979046821594,0.34246712923049927,-0.032867684960365295,0.9835445880889893,0.5537282228469849,0.34114348888397217,-0.0051224688068032265,0.9587993621826172,0.5583754181861877,0.39522382616996765,0.017557192593812943,0.980499804019928,0.5543546080589294,0.3951433300971985,0.06153590604662895,0.9361862540245056,0.5839360952377319,0.28349873423576355,-0.06658545136451721,0.9176101088523865,0.5360416769981384,0.2839110791683197,-0.06228121370077133,0.9153396487236023,177.3516063954224,0.5590284168720245,0.28040896356105804,109.61670869749099,122.48056005038598,0.28868517889520645,0.008828628678891347,0.01848446019241792,0.09797973202480395,-0.1585446383996427,-173.787863103853,1.3931881129890133,31,1761939729.7652678
0.5629578232765198,0.1601143777370453,-0.1314026117324829,0.9999905228614807,0.5789265036582947,0.19972258806228638,-0.05635349079966545,0.9999678134918213,0.5469585657119751,0.19598034024238586,-0.05366846174001694,0.9999377131462097,0.5681245923042297,0.28249454498291016,-0.0015422541182488203,0.9997963905334473,0.5498711466789246,0.281189501285553,0.0015214948216453195,0.9996420741081238,0.5646815299987793,0.34322673082351685,-0.03307802230119705,0.9800739884376526,0.5539438128471375,0.3441791832447052,-0.01169928815215826,0.9517402648925781,0.5577771663665771,0.3970912992954254,0.020710226148366928,0.9762437343597412,0.5540059208869934,0.40050336718559265,0.05090947076678276,0.9306467175483704,0.583745002746582,0.2882402539253235,-0.07060067355632782,0.9193904995918274,0.5360097289085388,0.2863670289516449,-0.06425858289003372,0.9119464755058289,177.31104647335454,0.5589978694915771,0.28184202313423157,107.77184669200112,120.05223177726714,0.2915124223747049,-0.0008259361684297382,0.038746881587344566,-0.26103889044059525,0.5478527600380747,-173.32319902745178,1.152693712364859,32,1761939729.802253
0.5629051923751831,0.16039077937602997,-0.1327473670244217,0.9999905824661255,0.5788620114326477,0.20087337493896484,-0.057159967720508575,0.9999613761901855,0.5468718409538269,0.1973010152578354,-0.05492632836103439,0.999936580657959,0.5680013298988342,0.28402987122535706,-0.00034177833003923297,0.9997389912605286,0.5498107671737671,0.2827749252319336,0.0003246768028475344,0.9995956420898438,0.5647132992744446,0.34430256485939026,-0.02735884115099907,0.9756485223770142,0.5540059804916382,0.346420019865036,-0.013892737217247486,0.9471442103385925,0.5578160285949707,0.39767375588417053,0.029366344213485718,0.971383810043335,0.5536891222000122,0.4062437415122986,0.04197004437446594,0.9284102916717529,0.5834991335868835,0.290603905916214,-0.07224957644939423,0.919355571269989,0.5357168316841125,0.2886859178543091,-0.0659986287355423,0.9088044762611389,177.31039191205824,0.5589060485363007,0.2834023982286453,109.2712018731312,124.26301950566332,0.2945675559634395,-0.00308630845053492,0.05244771006130545,-0.07597618707635446,0.4605156042124296,-173.62814805401274,1.0977846080078983,33,1761939729.832004
0.5628846287727356,0.16050773859024048,-0.13293275237083435,0.9999908804893494,0.5790181159973145,0.20210407674312592,-0.05470266938209534,0.9999581575393677,0.5468173623085022,0.1986139565706253,-0.05560673400759697,0.9999381899833679,0.5680482983589172,0.2859553098678589,0.0033574483823031187,0.9996857643127441,0.5497912764549255,0.2844882011413574,-0.003401966765522957,0.9995841383934021,0.5647211074829102,0.3473615050315857,0.006383424159139395,0.973505973815918,0.5540087223052979,0.3487977385520935,-0.014082102105021477,0.9490033984184265,0.5579691529273987,0.3993619680404663,0.08181045949459076,0.9703347682952881,0.553397536277771,0.4101712107658386,0.04574519768357277,0.9320010542869568,0.5833176374435425,0.2934063673019409,-0.06811712682247162,0.9209474325180054,0.5355839729309082,0.2900509238243103,-0.06708483397960663,0.9061965346336365,177.30274411132527,0.5589197874069214,0.28522175550460815,127.50049840696403,126.17262516340266,0.31370256192089246,0.0003254160525409276,0.043092920753779344,0.08080940208237496,-0.2215756078388645,-173.81407095091004,1.085641665875078,34,1761939729.8742235
0.562840461730957,0.16183768212795258,-0.1356869637966156,0.9999913573265076,0.5792053937911987,0.20352208614349365,-0.060470230877399445,0.9999569058418274,0.5467935800552368,0.2000119388103485,-0.05768151208758354,0.9999393820762634,0.5679768919944763,0.2871081531047821,0.0026577378157526255,0.9996607303619385,0.5497801303863525,0.2854427397251129,-0.002697555348277092,0.999573826789856,0.5646673440933228,0.3491747975349426,0.0028612061869353056,0.9733147025108337,0.5538893938064575,0.3500508964061737,-0.007657860405743122,0.9514580368995667,0.5580655932426453,0.40073472261428833,0.07932861149311066,0.9707951545715332,0.5532306432723999,0.4077507555484772,0.05956805497407913,0.9359627962112427,0.5832992792129517,0.29604479670524597,-0.0741366595029831,0.9231823682785034,0.5354189872741699,0.2912353575229645,-0.07003764063119888,0.9061218500137329,177.20823570452131,0.5588785111904144,0.2862754464149475,124.28078531291402,126.1231466460416,0.31763568994826175,-0.0006361778983070777,0.01624022077440075,-0.014820758064687458,-0.4138725804452512,-173.81904856787065,1.134864012959814,35,1761939729.939105
0.5625889301300049,0.16252009570598602,-0.1337495744228363,0.9999916553497314,0.57917320728302,0.20456109941005707,-0.06035427376627922,0.999956488609314,0.5464977025985718,0.20120084285736084,-0.05490710213780403,0.9999391436576843,0.5679184198379517,0.28848785161972046,0.002204528544098139,0.9996488094329834,0.5494380593299866,0.2866691052913666,-0.0022556367330253124,0.9995691180229187,0.56448894739151,0.3508015275001526,0.0038241036236286163,0.9733265042304993,0.5534723997116089,0.3505038321018219,-0.006073806434869766,0.9538115859031677,0.5580672025680542,0.40257957577705383,0.08156128227710724,0.9714807271957397,0.553110659122467,0.4075775444507599,0.06260166317224503,0.9397090673446655,0.5832079648971558,0.2970353960990906,-0.07363535463809967,0.9255710244178772,0.5351123213768005,0.29171639680862427,-0.06722856312990189,0.90447998046875,177.19000123094838,0.5586782395839691,0.2875784784555435,125.25641308291004,126.19651263472242,0.3181980964992665,-0.002481800132362674,0.01614739676893259,-0.022871267605382915,-0.0011502910130209874,-174.12850388876123,1.225325854833809,36,1761939730.0198011
0.5625856518745422,0.16253843903541565,-0.13660933077335358,0.9999919533729553,0.5791810750961304,0.20447996258735657,-0.06297169625759125,0.9999567270278931,0.5463465452194214,0.20134153962135315,-0.055153876543045044,0.9999386072158813,0.5678736567497253,0.2896367311477661,0.0016254264628514647,0.999634861946106,0.5493842363357544,0.2875484228134155,-0.0016800938174128532,0.9995662569999695,0.5644615888595581,0.3531550168991089,0.011794830672442913,0.9738157391548157,0.5526609420776367,0.3520749509334564,-0.0014087909366935492,0.9564092755317688,0.5581297278404236,0.4020931124687195,0.09657617658376694,0.9721818566322327,0.5531718134880066,0.40773218870162964,0.06621824949979782,0.9434884786605835,0.5831927061080933,0.297690749168396,-0.07528963685035706,0.9290158748626709,0.5348607301712036,0.2923540472984314,-0.06745905429124832,0.9027839303016663,177.23714361572723,0.5586289465427399,0.2885925769805908,129.17346712648296,129.64701093728613,0.3260677907245508,-0.0009200420082058402,0.018927889621659148,0.029149815979064887,0.051897188005243976,-174.5400844849206,1.4201858127351956,37,1761939730.073378
0.5625389814376831,0.16251085698604584,-0.14283618330955505,0.999992311000824,0.5793502926826477,0.20450259745121002,-0.0666709691286087,0.9999574422836304,0.5461792349815369,0.2012149542570114,-0.060064204037189484,0.9999370574951172,0.5679615139961243,0.29030272364616394,0.0014780755154788494,0.9996346235275269,0.5493659973144531,0.28822845220565796,-0.0015272193122655153,0.9995591044425964,0.5645486116409302,0.35447943210601807,0.006783515214920044,0.9741386771202087,0.5523284077644348,0.3535909950733185,0.001997521612793207,0.9583125114440918,0.5581247210502625,0.40357261896133423,0.09845329076051712,0.9725753664970398,0.553124189376831,0.40852242708206177,0.08447771519422531,0.946311891078949,0.5833017826080322,0.29953521490097046,-0.07942381501197815,0.931159496307373,0.5346267223358154,0.29324600100517273,-0.07151256501674652,0.8995034098625183,177.28268801103113,0.5586637556552887,0.28926558792591095,122.99169149145759,126.72442942144872,0.33801656553128023,0.00066897294325185,0.012934145112144609,0.03053821057508211,-0.11518974808694296,-174.33979760240024,1.4568130715162997,38,1761939730.1254117
0.5625189542770386,0.16231712698936462,-0.14431773126125336,0.9999924898147583,0.5794283151626587,0.20432621240615845,-0.06547124683856964,0.9999582171440125,0.5459495186805725,0.20094288885593414,-0.06233740597963333,0.9999372363090515,0.5680842995643616,0.2907184958457947,0.0018553156405687332,0.9996311068534851,0.5493001341819763,0.2886154353618622,-0.0019086763495579362,0.9995585083961487,0.5647693872451782,0.35484766960144043,0.015893559902906418,0.9735267162322998,0.5520026087760925,0.35506707429885864,0.007168350275605917,0.9598217606544495,0.5580272674560547,0.4024937152862549,0.11655523627996445,0.9716588854789734,0.553073525428772,0.41016849875450134,0.09237240254878998,0.9486907720565796,0.583267867565155,0.2982729971408844,-0.077654629945755,0.9340714812278748,0.5342508554458618,0.29365092515945435,-0.07397527992725372,0.8999658823013306,177.37071206683046,0.558692216873169,0.28966696560382843,127.75468349567927,130.6511864493872,0.3485450375567578,0.00037964317516855364,0.005353962600178094,-0.0038593595076670977,-0.10111178549380231,-174.22935489117145,1.4089747722136907,39,1761939730.20038
0.5624895095825195,0.16222809255123138,-0.1454291045665741,0.9999926090240479,0.5794743299484253,0.20419242978096008,-0.06716454774141312,0.9999587535858154,0.545785665512085,0.2007627934217453,-0.06305032223463058,0.9999363422393799,0.5680938959121704,0.2904590368270874,0.0017484573181718588,0.9996267557144165,0.5491153597831726,0.2885288894176483,-0.0018010979983955622,0.9995572566986084,0.56491619348526,0.3551537096500397,0.014466710388660431,0.9727859497070312,0.5518209338188171,0.35540592670440674,0.008937622420489788,0.9608582854270935,0.5579953789710999,0.40179044008255005,0.11570070683956146,0.9696350693702698,0.5530243515968323,0.41070640087127686,0.09248287975788116,0.9502252340316772,0.5831459760665894,0.29893118143081665,-0.07782237976789474,0.9370388984680176,0.5340858697891235,0.2939484417438507,-0.07437609881162643,0.8998052477836609,177.35138979307717,0.5586046278476715,0.28949396312236786,125.93438270374567,132.60756448675116,0.34907780557777507,-0.0013313582662897732,-0.002629647749510763,-0.026007321120223328,-0.12135134023389639,-174.18709450836016,1.4076204426052084,40,1761939730.2661693
0.5625098347663879,0.16214047372341156,-0.15045130252838135,0.9999926686286926,0.5796937346458435,0.20407822728157043,-0.07061447948217392,0.9999595284461975,0.5456249117851257,0.200699120759964,-0.06611810624599457,0.9999361038208008,0.5683151483535767,0.2911361753940582,0.0016686295857653022,0.9996195435523987,0.5490983128547668,0.28910258412361145,-0.0017169900238513947,0.9995641112327576,0.565317690372467,0.3556019365787506,0.014757508412003517,0.9712112545967102,0.5512877702713013,0.3558899462223053,0.009533056989312172,0.960917592048645,0.5581063032150269,0.3977176249027252,0.13347259163856506,0.9628443121910095,0.5530608296394348,0.41039764881134033,0.09241699427366257,0.9504433274269104,0.583136796951294,0.2987487316131592,-0.0848315879702568,0.9403622150421143,0.5339867472648621,0.2943859398365021,-0.08037438988685608,0.9009848237037659,177.42035779794736,0.5587067306041718,0.29011937975883484,121.08775143420056,132.89290087882364,0.3577001399611166,0.0019623251892446707,0.012019957752158214,0.06330169950091616,0.281552534660057,-174.33566041720954,1.4530714928912827,41,1761939730.3182008
0.5625110268592834,0.16189511120319366,-0.15310856699943542,0.9999927282333374,0.5798884630203247,0.20397888123989105,-0.07184895128011703,0.9999600648880005,0.5455103516578674,0.20065133273601532,-0.07027234882116318,0.9999354481697083,0.5684444308280945,0.2910502851009369,0.0015765130519866943,0.999602198600769,0.5490788221359253,0.2892870306968689,-0.0016245736042037606,0.9995490312576294,0.5657976269721985,0.35529330372810364,0.011487462557852268,0.9692331552505493,0.5509647727012634,0.3557453155517578,0.01106712780892849,0.9599234461784363,0.5582476854324341,0.396764874458313,0.11870304495096207,0.957258939743042,0.5530775785446167,0.41011449694633484,0.09809908270835876,0.9495128989219666,0.5833338499069214,0.2982160449028015,-0.08355945348739624,0.9439981579780579,0.5336718559265137,0.29473844170570374,-0.08292090892791748,0.9040324091911316,177.43360043261717,0.5587616264820099,0.2901686578989029,119.99053830869663,132.81021571623302,0.35605894034364827,0.0015250566307673965,0.0013689908463484746,-0.012147712010329088,-0.29589339570603274,-174.47141217992342,1.4479435987171345,42,1761939730.3541968
0.5625065565109253,0.1616506725549698,-0.15462210774421692,0.9999929070472717,0.5799885392189026,0.20388348400592804,-0.07464470714330673,0.9999609589576721,0.5453523397445679,0.20059947669506073,-0.07059848308563232,0.9999331831932068,0.5684977769851685,0.291457861661911,0.0004964603576809168,0.9995977878570557,0.5490442514419556,0.28978297114372253,-0.0005455140490084887,0.9995412230491638,0.5657358765602112,0.35659247636795044,0.01014486700296402,0.9683294296264648,0.5506955981254578,0.3558320701122284,0.019967660307884216,0.9587929844856262,0.5585697293281555,0.3960416913032532,0.12405265867710114,0.9507849812507629,0.5530780553817749,0.4100600481033325,0.11152009665966034,0.9485242962837219,0.5839636921882629,0.29810288548469543,-0.08652740716934204,0.9473922848701477,0.5335149168968201,0.29498565196990967,-0.08369166404008865,0.9047605991363525,177.47365367484954,0.558771014213562,0.2906204164028168,117.60639266760758,137.89551332292342,0.36403996498771396,0.0002825639222384086,0.013597603857939419,-0.03739813086103215,0.36807239713932605,-174.58373184952353,1.629618837802572,43,1761939730.3874202
0.5625494122505188,0.16097427904605865,-0.16764923930168152,0.9999930262565613,0.5801299214363098,0.2040373533964157,-0.0874081701040268,0.9999600052833557,0.5451343059539795,0.2005462795495987,-0.07920359075069427,0.9999300241470337,0.5686765313148499,0.2916504740715027,-0.000815616745967418,0.9995918869972229,0.5490177869796753,0.2902788817882538,0.0007681978167966008,0.9995425343513489,0.5656915903091431,0.3562822937965393,0.016331683844327927,0.9681575298309326,0.5506085157394409,0.3558517396450043,0.029473954811692238,0.9591452479362488,0.5603790283203125,0.3957080543041229,0.136805921792984,0.9489927291870117,0.5530320405960083,0.4103738069534302,0.12584063410758972,0.9497594833374023,0.5844048857688904,0.2993670105934143,-0.10594888031482697,0.9484536647796631,0.5333374738693237,0.2955133318901062,-0.09292062371969223,0.9026763439178467,177.55584339367925,0.5588471591472626,0.29096467792987823,123.03322019553357,143.14213742975122,0.38472715109295247,0.002338595707601397,0.010573106973134067,0.06314572584500738,-0.09288963938525872,-174.303165902609,2.6184060423458577,44,1761939730.4199803
0.5625668168067932,0.16021525859832764,-0.16284064948558807,0.9999932646751404,0.5801445841789246,0.20398904383182526,-0.08322419226169586,0.9999600648880005,0.5448641777038574,0.20047453045845032,-0.07618633657693863,0.9999284148216248,0.5686620473861694,0.2914423942565918,-0.0018197497120127082,0.999592661857605,0.5488487482070923,0.2901405990123749,0.0017662703758105636,0.9995421767234802,0.5656723380088806,0.3562696576118469,0.010315507650375366,0.9689099788665771,0.5502458810806274,0.35576823353767395,0.025147447362542152,0.959773600101471,0.5619758367538452,0.3963432312011719,0.12480992078781128,0.9491972327232361,0.5530235171318054,0.41001442074775696,0.11895604431629181,0.9512532353401184,0.5844549536705017,0.29917237162590027,-0.09756140410900116,0.9494717717170715,0.532985508441925,0.29555022716522217,-0.08892092853784561,0.9011614918708801,177.57595482145504,0.5587553977966309,0.29079149663448334,119.93097652259253,139.64958653147463,0.3743320953635218,-0.0026291430991611333,-0.004961984588900729,-0.14233548342869162,-0.44511091536880615,-174.31115862416578,8.14230601624641,45,1761939730.454882
0.5626798868179321,0.15995441377162933,-0.16084840893745422,0.9999933242797852,0.5802193880081177,0.20408464968204498,-0.07949107885360718,0.9999600052833557,0.544724702835083,0.20029887557029724,-0.07487897574901581,0.9999258518218994,0.5686390399932861,0.29151204228401184,-0.0016378024592995644,0.9996051788330078,0.5485149025917053,0.29038727283477783,0.0015877652913331985,0.9995421767234802,0.565645694732666,0.35795140266418457,0.006487035658210516,0.9702627062797546,0.5501841306686401,0.35713836550712585,0.02037169225513935,0.9614014029502869,0.5630049109458923,0.4032602608203888,0.11892755329608917,0.9522120356559753,0.5528727173805237,0.41021424531936646,0.11608365923166275,0.9536377787590027,0.5844651460647583,0.30033811926841736,-0.09405247122049332,0.9478647112846375,0.532820999622345,0.29590633511543274,-0.08650253713130951,0.8988877534866333,177.48722960595754,0.5585769712924957,0.29094965755939484,118.94013086553767,134.73339036293152,0.37202850068338145,-0.0048534952948577435,0.004302238104194094,-0.0605060496379153,0.25200214211111005,-173.911991583385,156.41949224918957,46,1761939730.4916444
0.563103973865509,0.15977604687213898,-0.16015225648880005,0.9999932646751404,0.5802401900291443,0.20405705273151398,-0.07787827402353287,0.99996018409729,0.5446743965148926,0.19958288967609406,-0.0739031657576561,0.9999249577522278,0.5686450004577637,0.2917119264602661,-0.0016180267557501793,0.999617338180542,0.5484495162963867,0.2906627953052521,0.001560019445605576,0.9995404481887817,0.5656231641769409,0.35910242795944214,0.005863097496330738,0.9718554019927979,0.5502938032150269,0.35831159353256226,0.018491139635443687,0.9630919694900513,0.5641217231750488,0.40682098269462585,0.11811371147632599,0.9556487798690796,0.552868127822876,0.41080909967422485,0.11714936792850494,0.9561728835105896,0.5845417976379395,0.30001673102378845,-0.08890218287706375,0.9454344511032104,0.5326500535011292,0.2958557903766632,-0.08524277061223984,0.8978366255760193,177.49477173187466,0.5585472583770752,0.2911873608827591,119.36298182488032,132.07800290633685,0.3731025347559608,-0.0008793127778169759,0.007034502222535807,0.1176104538767668,0.08085759063442546,-172.82987849441395,7.275271244763113,47,1761939730.5254354
0.5634926557540894,0.1593421846628189,-0.16759130358695984,0.9999932050704956,0.5802446603775024,0.20398101210594177,-0.08288551867008209,0.9999604225158691,0.5446165800094604,0.198203906416893,-0.07938192784786224,0.9999254941940308,0.5686799883842468,0.2916979193687439,-0.0016646301373839378,0.9996355772018433,0.5483931303024292,0.29060477018356323,0.0015992609551176429,0.9995461702346802,0.5655094385147095,0.3596542477607727,0.005762361455708742,0.9729363322257996,0.5507852435112,0.35834595561027527,0.018311038613319397,0.9640504121780396,0.5644347071647644,0.4117226004600525,0.10928497463464737,0.9587219953536987,0.5531665086746216,0.4106011390686035,0.11757735162973404,0.9579116106033325,0.5845097303390503,0.29984286427497864,-0.0898243859410286,0.935890793800354,0.5326436758041382,0.29572805762290955,-0.08764265477657318,0.8926454782485962,177.52412700830706,0.558536559343338,0.29115134477615356,122.92118118998879,131.62900640966234,0.3773708996708935,-0.00031451940733680033,-0.001058765191550204,0.01660322609637423,-0.23791771603169806,-170.78963292581062,5.951792471907995,48,1761939730.5594525
0.5639165639877319,0.158501535654068,-0.1752413958311081,0.9999929070472717,0.5802448987960815,0.2036721557378769,-0.0885506123304367,0.9999620318412781,0.5445849895477295,0.19735397398471832,-0.0841396152973175,0.9999268651008606,0.5688726902008057,0.29167643189430237,-0.0020879232324659824,0.9996589422225952,0.5484132170677185,0.2905616760253906,0.002024619374424219,0.9995547533035278,0.5655038356781006,0.3605693280696869,0.0015113165136426687,0.9738864898681641,0.5510443449020386,0.3583928942680359,0.021297026425600052,0.964428186416626,0.5650573372840881,0.41879400610923767,0.09176492691040039,0.9616811275482178,0.5533548593521118,0.4104216992855072,0.12826892733573914,0.9582661390304565,0.5845402479171753,0.29938051104545593,-0.0962730199098587,0.9308069348335266,0.5326671600341797,0.2946033477783203,-0.09093151241540909,0.8905708193778992,177.61611327370528,0.5586429536342621,0.2911190539598465,125.77682990129009,131.80262098047965,0.3833861564153567,0.002919758175322891,-0.0008861506955076617,0.08875766106635702,0.004737026598157653,-169.95267008286658,4.04282752593909,49,1761939730.595892
0.5644417405128479,0.1579834669828415,-0.17027130722999573,0.9999924302101135,0.5804114937782288,0.20366694033145905,-0.08543404191732407,0.9999639391899109,0.5445894002914429,0.19694256782531738,-0.08053506165742874,0.9999279379844666,0.5690526962280273,0.2926182150840759,-0.0029915112536400557,0.9996841549873352,0.5484329462051392,0.29134637117385864,0.0029359173495322466,0.9995684027671814,0.5652987360954285,0.36331385374069214,-0.0034917935263365507,0.9751996994018555,0.5510711669921875,0.3583759665489197,0.02616635523736477,0.9649332165718079,0.5652486085891724,0.41910243034362793,0.08662396669387817,0.964479923248291,0.5533835291862488,0.40723469853401184,0.1447724997997284,0.957192063331604,0.5845844745635986,0.29928550124168396,-0.09513498842716217,0.926035463809967,0.5326846837997437,0.29408496618270874,-0.08913334459066391,0.8881755471229553,177.65290756689336,0.5587428212165833,0.2919822931289673,121.30317215759545,131.50597213683395,0.38330703692175744,0.0024842095898941377,0.02147310440945349,-0.010834286238224128,0.5561872497924797,-169.36840135066336,3.319113375031807,50,1761939730.636093
0.5648266077041626,0.15794692933559418,-0.17348608374595642,0.9999915957450867,0.5806854963302612,0.20383894443511963,-0.08746938407421112,0.9999658465385437,0.5446661710739136,0.1965518593788147,-0.07956608384847641,0.9999295473098755,0.5692117214202881,0.29389894008636475,-0.006783891469240189,0.9997074007987976,0.5485142469406128,0.29228147864341736,0.006769300904124975,0.999563455581665,0.5649004578590393,0.3641168475151062,-0.026362258940935135,0.9760819673538208,0.5508074164390564,0.3586448132991791,0.043272193521261215,0.9611655473709106,0.56663978099823,0.4272107779979706,0.03927784413099289,0.9669349193572998,0.5533995628356934,0.40674418210983276,0.17528393864631653,0.9455578923225403,0.5848678350448608,0.2993164360523224,-0.1041039451956749,0.9203220009803772,0.5326670408248901,0.2929019033908844,-0.091277115046978,0.8892386555671692,177.649625020933,0.5588629841804504,0.29309020936489105,118.14992720331266,138.83365406575516,0.3820340654487912,0.0022594209785444666,0.020832119193422576,-0.004226694214888736,-0.012052427781640047,-168.56283802485714,1.7597213918840935,51,1761939730.689276
0.5656217932701111,0.15797379612922668,-0.18032929301261902,0.999990701675415,0.5808984637260437,0.20429474115371704,-0.09130437672138214,0.9999670386314392,0.5447778105735779,0.1966286599636078,-0.0837487131357193,0.9999306797981262,0.5697094202041626,0.2963809669017792,-0.008350307121872902,0.9997279047966003,0.5486956834793091,0.29447266459465027,0.008344292640686035,0.9995507597923279,0.5647662878036499,0.3677319288253784,-0.03231532499194145,0.9760066270828247,0.5509523749351501,0.36116400361061096,0.05053029581904411,0.9508827328681946,0.5672937631607056,0.4350179433822632,0.027470776811242104,0.9685212969779968,0.5534013509750366,0.40861985087394714,0.18778151273727417,0.9220821857452393,0.5855724811553955,0.3012576103210449,-0.10831503570079803,0.9134672284126282,0.5326519012451172,0.29369622468948364,-0.09804612398147583,0.8919113278388977,177.80759472868993,0.5592025518417358,0.2954268157482147,119.60228314923701,141.3874147964215,0.39058979638446456,0.007380566193198012,0.05078657376938743,0.11130904250025768,0.6510656342897073,-168.01760704501848,1.4605285934128023,52,1761939730.7352843
0.5660415887832642,0.15867871046066284,-0.17705371975898743,0.9999905228614807,0.5816097259521484,0.20692312717437744,-0.08954162895679474,0.9999681115150452,0.5450361967086792,0.197189599275589,-0.08275377750396729,0.9999314546585083,0.5698245763778687,0.29954713582992554,-0.007925604470074177,0.9997473955154419,0.5487261414527893,0.2973363399505615,0.007907025516033173,0.999547004699707,0.5647593140602112,0.3698102831840515,-0.026421938091516495,0.9764832258224487,0.5509282350540161,0.36268824338912964,0.04909985139966011,0.9446965456008911,0.5676373839378357,0.44121861457824707,0.04288613796234131,0.969762921333313,0.5529940724372864,0.4086002707481384,0.18775461614131927,0.9027725458145142,0.5866779088973999,0.30774039030075073,-0.10301665216684341,0.9102237224578857,0.5326555371284485,0.2965485751628876,-0.09587323665618896,0.8943931460380554,177.5953368828068,0.559275358915329,0.29844173789024353,120.8698325425675,140.54011236322052,0.39546706656129793,0.0012782598503970296,0.052932410767730295,-0.10713702402620158,0.037674049307437334,-165.09698008331497,1.6367482047581206,53,1761939730.7922423
0.5665408372879028,0.15946796536445618,-0.17805184423923492,0.9999904036521912,0.5822200775146484,0.20747831463813782,-0.08948054909706116,0.999969482421875,0.5456855297088623,0.1983533650636673,-0.08277731388807297,0.9999321103096008,0.5704294443130493,0.30166512727737427,-0.007660614792257547,0.9997663497924805,0.5490220189094543,0.29932504892349243,0.007634127978235483,0.9995530247688293,0.5648768544197083,0.37064242362976074,-0.022278020158410072,0.9774725437164307,0.551193356513977,0.3642257750034332,0.0497402548789978,0.9424648284912109,0.5684176683425903,0.437137633562088,0.05286670848727226,0.9714124798774719,0.5528704524040222,0.4083918333053589,0.19335129857063293,0.8914071321487427,0.5874611735343933,0.3095240592956543,-0.10465296357870102,0.9092879295349121,0.5326842069625854,0.2988809645175934,-0.09766183793544769,0.8970420956611633,177.5195334812623,0.5597257316112518,0.30049508810043335,119.23382267387834,140.06018541266917,0.4000722638251188,0.010470246541326712,0.04773620410606598,0.21369494138941741,-0.12080120602299843,-165.97657992402338,1.6195957983929465,54,1761939730.8352568
0.5669074058532715,0.16013941168785095,-0.18721523880958557,0.9999901652336121,0.5830725431442261,0.2081233114004135,-0.09376409649848938,0.9999709129333496,0.5462178587913513,0.19912134110927582,-0.08655574172735214,0.9999300837516785,0.5711171627044678,0.30358201265335083,-0.007215097546577454,0.9997859597206116,0.5493471622467041,0.3006711006164551,0.007190728094428778,0.9995612502098083,0.5653811097145081,0.3733612895011902,-0.030310899019241333,0.9790586829185486,0.5515514016151428,0.36800262331962585,0.05481655150651932,0.9441218972206116,0.5686484575271606,0.43779343366622925,0.04557085782289505,0.9735960960388184,0.5526321530342102,0.40699630975723267,0.2218264639377594,0.8826015591621399,0.5878994464874268,0.31032875180244446,-0.11172427237033844,0.9099465608596802,0.5326970219612122,0.3000873029232025,-0.10121474415063858,0.8986905813217163,177.43483584287918,0.5602321624755859,0.30212655663490295,111.7779626271594,138.40074186097002,0.41449117466613355,0.01202550457157415,0.038740198714863984,0.03693053458996774,-0.2136155427652509,-166.27393141562797,2.0289369309204943,55,1761939730.8773699
0.5676291584968567,0.16023479402065277,-0.18807454407215118,0.9999903440475464,0.5838037133216858,0.20803314447402954,-0.09124419093132019,0.9999725222587585,0.5467837452888489,0.1993444859981537,-0.08639588207006454,0.9999310970306396,0.571946918964386,0.3049633502960205,-0.006880993954837322,0.9998045563697815,0.5498306155204773,0.3021908402442932,0.006852815393358469,0.999575138092041,0.5667296648025513,0.375069797039032,-0.0390952043235302,0.9807304739952087,0.5521324276924133,0.3699372708797455,0.05500449985265732,0.9463808536529541,0.5689201951026917,0.4405261278152466,0.03763013333082199,0.9757503867149353,0.5525892972946167,0.4058260917663574,0.2335197478532791,0.8744855523109436,0.5883651971817017,0.30990248918533325,-0.11186651885509491,0.9094207882881165,0.5327531695365906,0.30203738808631897,-0.10357558727264404,0.9023206233978271,177.47495582248408,0.5608887672424316,0.30357709527015686,105.65937425984433,136.74931264268562,0.4170544113263716,0.01416987383975797,0.031303381423779045,0.0462766088982098,-0.16049040169208423,-166.79163347536078,3.3252526800041875,56,1761939730.923708
0.5680379867553711,0.15999150276184082,-0.18409967422485352,0.9999905228614807,0.5845541954040527,0.20791040360927582,-0.0869445651769638,0.999973475933075,0.5469873547554016,0.1993328034877777,-0.08490178734064102,0.9999327659606934,0.5734237432479858,0.3045881688594818,-0.004694645293056965,0.9998199939727783,0.5507354140281677,0.30225372314453125,0.004657427780330181,0.9995893239974976,0.5693536996841431,0.37605053186416626,-0.029233122244477272,0.9820770025253296,0.552648663520813,0.37146127223968506,0.04959907382726669,0.9491588473320007,0.5691423416137695,0.4401857256889343,0.05123838782310486,0.9773069620132446,0.5520859956741333,0.405852735042572,0.2085270881652832,0.8710994720458984,0.5892700552940369,0.3105820417404175,-0.10003127157688141,0.9091936349868774,0.5328730344772339,0.30297642946243286,-0.10224948823451996,0.9055115580558777,177.88181351202564,0.5620795786380768,0.30342094600200653,109.57785141177055,135.18235147433077,0.4096628537550375,0.028582199306421894,-0.00374793986700697,0.3459288015412677,-0.8413119447382427,-167.1381982157653,9.513075170651124,57,1761939730.9653707
0.5683139562606812,0.1595831960439682,-0.17864635586738586,0.9999906420707703,0.5849360227584839,0.20745807886123657,-0.08395544439554214,0.9999751448631287,0.5470948815345764,0.1988336741924286,-0.08430483937263489,0.99993497133255,0.5739017724990845,0.30455484986305237,-0.003471373813226819,0.9998346567153931,0.5510855913162231,0.302367627620697,0.003430065466091037,0.9996102452278137,0.570042073726654,0.3779532015323639,-0.020539136603474617,0.9833840727806091,0.5523980855941772,0.3737097382545471,0.04721974581480026,0.9520728588104248,0.5693284273147583,0.43902409076690674,0.07054457068443298,0.9786509871482849,0.5514886975288391,0.4053153693675995,0.19796626269817352,0.8717193007469177,0.5900620222091675,0.3113090395927429,-0.0931214839220047,0.9132305383682251,0.5332115888595581,0.3035762906074524,-0.0984983965754509,0.9077920913696289,177.98934351777658,0.5624936819076538,0.3034612387418747,110.73973640454761,133.36361226576852,0.4085605247359064,0.008241673507542362,0.0008019246190858059,-0.4048264887580779,0.09055349318115845,-167.16097562474792,4.33439448604322,58,1761939731.0156157
0.5687219500541687,0.15870188176631927,-0.186129629611969,0.9999907612800598,0.5856689214706421,0.2065543234348297,-0.08891122788190842,0.9999766945838928,0.5471707582473755,0.1984827220439911,-0.08798408508300781,0.999937117099762,0.5746517777442932,0.3050723671913147,-0.0033713667653501034,0.9998493194580078,0.551544725894928,0.3028273582458496,0.003330852137878537,0.9996349811553955,0.5706068277359009,0.3799336850643158,-0.02047552540898323,0.9847979545593262,0.5523636937141418,0.3754553198814392,0.047952063381671906,0.9555053114891052,0.5694535970687866,0.4402177631855011,0.07638882100582123,0.9803774356842041,0.5514899492263794,0.4006095826625824,0.2234504520893097,0.8758786916732788,0.5905823111534119,0.31202706694602966,-0.10515309870243073,0.9158347249031067,0.5336350202560425,0.30460572242736816,-0.10388137400150299,0.9105030298233032,178.12439635842603,0.5630982518196106,0.30394986271858215,109.02800341239181,129.71298495525312,0.426016708987259,0.015910488404778638,0.012859135001505873,0.20182048111847267,0.31731004502450816,-168.1587708684218,3.2741534872072204,59,1761939731.053614
0.5689682364463806,0.1581917703151703,-0.18352197110652924,0.9999909400939941,0.58616703748703,0.206216961145401,-0.08906879276037216,0.9999781250953674,0.5471994876861572,0.19828684628009796,-0.08648696541786194,0.9999386072158813,0.5753177404403687,0.30583956837654114,-0.0034415838308632374,0.999862551689148,0.552130401134491,0.3035952150821686,0.003401137888431549,0.9996582865715027,0.5702005624771118,0.38263261318206787,-0.013209683820605278,0.9859267473220825,0.552338719367981,0.37607622146606445,0.04923119768500328,0.958082914352417,0.5692429542541504,0.44190138578414917,0.08881864696741104,0.981744110584259,0.5515271425247192,0.3979896903038025,0.22217194736003876,0.8783389329910278,0.5912342071533203,0.31290364265441895,-0.10577581822872162,0.9193171262741089,0.5341912508010864,0.30472949147224426,-0.1016288623213768,0.9118319153785706,178.34576411695738,0.5637240707874298,0.30471739172935486,112.88055301977103,129.52220626575846,0.4283939941489281,0.018123959980390666,0.02222793777489315,0.06410299514238055,0.2713241612358668,-168.49706714682577,3.341482327957932,60,1761939731.0881438
0.5690886974334717,0.15766890347003937,-0.18124717473983765,0.999991238117218,0.5862698554992676,0.20603984594345093,-0.08689753711223602,0.9999794960021973,0.5471895933151245,0.19828660786151886,-0.08455086499452591,0.9999399781227112,0.5758640766143799,0.30687347054481506,-0.0029935494530946016,0.9998745322227478,0.5523790121078491,0.30480942130088806,0.002941320650279522,0.9996809363365173,0.5698448419570923,0.38560032844543457,-0.0060640061274170876,0.9867020845413208,0.5524320006370544,0.37779033184051514,0.04199496656656265,0.9598064422607422,0.5691922307014465,0.44362419843673706,0.1022300273180008,0.9825316071510315,0.5517255067825317,0.3988431692123413,0.20849671959877014,0.8759989738464355,0.592185914516449,0.314464807510376,-0.10331566631793976,0.9233362078666687,0.5345277786254883,0.3054050803184509,-0.10130144655704498,0.9125996828079224,178.5589432535262,0.5641215443611145,0.30584144592285156,115.89041655222216,125.35506293449043,0.4276067452050638,0.009203872292735173,0.026028526000231873,-0.20655297195256628,0.08800617444580011,-168.77864527574803,3.832444719509931,61,1761939731.1313293
0.5691415071487427,0.15738706290721893,-0.1754530519247055,0.9999913573265076,0.5867627859115601,0.20686058700084686,-0.08176544308662415,0.9999801516532898,0.5471644997596741,0.1991734355688095,-0.0821562111377716,0.9999394416809082,0.5764709115028381,0.30847764015197754,-0.00033415984944440424,0.9998846650123596,0.5524627566337585,0.3071414828300476,0.0002575093531049788,0.9997010827064514,0.5697665810585022,0.3871000111103058,-0.0007153662154451013,0.9868817925453186,0.5537103414535522,0.38220393657684326,0.026895541697740555,0.9612162113189697,0.5686633586883545,0.4429669976234436,0.12079717218875885,0.9822219014167786,0.5517919063568115,0.40827229619026184,0.1945256143808365,0.8743212819099426,0.5930036306381226,0.31609731912612915,-0.08908222615718842,0.9263302683830261,0.5347756147384644,0.3084598779678345,-0.09275193512439728,0.9109971523284912,178.63511725741634,0.5644668340682983,0.3078095614910126,114.36015822283284,118.35840759805754,0.4277772900554757,0.006618997998190145,0.03772760303836345,-0.04955050042096228,0.22426433769957962,-169.01390919574564,1.6515156195176637,62,1761939731.1834958
0.5692634582519531,0.15740139782428741,-0.17907121777534485,0.9999914765357971,0.5868490934371948,0.20681703090667725,-0.08205142617225647,0.9999809861183167,0.5471698641777039,0.20021413266658783,-0.08383691310882568,0.9999378323554993,0.5766181945800781,0.3089979588985443,0.0014779668999835849,0.999893844127655,0.5527652502059937,0.3076329231262207,-0.0015624387888237834,0.9997190237045288,0.5698737502098083,0.38595059514045715,0.0006915265694260597,0.9869117140769958,0.5555628538131714,0.3812548816204071,0.018159933388233185,0.9626606702804565,0.5674451589584351,0.44174453616142273,0.12930059432983398,0.9820705056190491,0.5518273711204529,0.4148583710193634,0.18764647841453552,0.8743988871574402,0.5938553810119629,0.31676992774009705,-0.09283509105443954,0.9295042753219604,0.5348538756370544,0.3107638359069824,-0.09538084268569946,0.9088866710662842,178.733051584715,0.5646917223930359,0.3083154410123825,112.86284230875873,116.13276760289888,0.4329156778354722,0.004358443574732348,0.009804187709951529,-0.043810628736509885,-0.5411691792569943,-170.5521586876482,0.7517770417379693,63,1761939731.235094
0.5695613026618958,0.15742266178131104,-0.18667006492614746,0.9999916553497314,0.5869792103767395,0.20674438774585724,-0.08269160240888596,0.9999814629554749,0.5473340749740601,0.20094189047813416,-0.08910197019577026,0.9999357461929321,0.5767847299575806,0.30914929509162903,0.002440317999571562,0.999900758266449,0.5532289743423462,0.30764228105545044,-0.002524168696254492,0.999731183052063,0.5707687139511108,0.3852503001689911,-0.003004875034093857,0.986007571220398,0.55718994140625,0.38192930817604065,0.011808672919869423,0.9620822668075562,0.5658668279647827,0.44207653403282166,0.1251218318939209,0.9798776507377625,0.5529453158378601,0.42631182074546814,0.17786505818367004,0.8704331517219543,0.5946946144104004,0.31664544343948364,-0.09413179755210876,0.9326295256614685,0.535030722618103,0.31232866644859314,-0.10079097747802734,0.9082913994789124,178.8220617003122,0.5650068521499634,0.30839578807353973,109.91431173641638,115.7535377606441,0.43710428965576165,0.00875406491949638,0.0022319802367091208,0.12210701708643236,-0.21035016321836003,-171.6732599966757,0.46997602015985296,64,1761939731.2710922
0.5697577595710754,0.1574326902627945,-0.18444176018238068,0.9999920725822449,0.5877503156661987,0.20824120938777924,-0.0828416720032692,0.9999816417694092,0.5474861860275269,0.2025524377822876,-0.08826626092195511,0.9999361634254456,0.5771622061729431,0.31077536940574646,0.0028802978340536356,0.9999055862426758,0.5535929799079895,0.30884063243865967,-0.0029853391461074352,0.999741792678833,0.5713457465171814,0.3886842429637909,0.006734905298799276,0.9852302074432373,0.5582243800163269,0.38410595059394836,0.010862053371965885,0.9631414413452148,0.5659449100494385,0.4467903971672058,0.13149085640907288,0.9798091650009155,0.5535151958465576,0.43676233291625977,0.14825136959552765,0.8784872889518738,0.5954592823982239,0.31832751631736755,-0.0919579416513443,0.9335798025131226,0.5351302027702332,0.3145691752433777,-0.09996767342090607,0.906597912311554,178.77062459455885,0.5653775930404663,0.30980800092220306,117.8858628217655,121.18052462578322,0.4314286963105399,0.00973530001001703,0.03708335420214364,0.025766291853094755,0.9151636358604495,-171.9581172101094,0.44316717433989306,65,1761939731.3091743
0.5698033571243286,0.1590842604637146,-0.18429331481456757,0.9999920725822449,0.5882348418235779,0.21126018464565277,-0.08306523412466049,0.9999793767929077,0.5474885106086731,0.20406502485275269,-0.08771859854459763,0.9999351501464844,0.5769213438034058,0.31342312693595886,0.0025548983830958605,0.9998985528945923,0.553458571434021,0.3109866678714752,-0.0026570141781121492,0.9997340440750122,0.5712036490440369,0.3911582827568054,0.015716763213276863,0.983369767665863,0.5581730604171753,0.3871794044971466,0.01313083153218031,0.9632802605628967,0.5649275183677673,0.4490277171134949,0.13385729491710663,0.9786614179611206,0.5536832213401794,0.44719165563583374,0.12853482365608215,0.8862167000770569,0.5960381627082825,0.32000094652175903,-0.08935490995645523,0.9290986061096191,0.5351136326789856,0.31694334745407104,-0.09455431997776031,0.9021889567375183,178.53604811637967,0.5651899576187134,0.31220489740371704,125.79201007604294,128.91034687428822,0.42799468423156534,-0.0036039418973128423,0.046037552891396334,-0.2562088348729751,0.1719846472035212,-169.9857054065113,0.4962344171893522,66,1761939731.3612382
0.5698776245117188,0.16047580540180206,-0.17448648810386658,0.9999922513961792,0.5886462926864624,0.21198438107967377,-0.07971853017807007,0.9999746680259705,0.5475186705589294,0.20554371178150177,-0.08015145361423492,0.9999352693557739,0.5767531394958496,0.3159630596637726,0.0010587015422061086,0.9998583793640137,0.5534127354621887,0.31383663415908813,-0.001155071659013629,0.9996958374977112,0.5710656046867371,0.3941255807876587,0.010436663404107094,0.9816475510597229,0.5579609274864197,0.3930170238018036,0.014769596047699451,0.9616485238075256,0.5638302564620972,0.453917533159256,0.12160204350948334,0.9765827059745789,0.5563898682594299,0.4566331207752228,0.11078252643346786,0.8919439911842346,0.59660404920578,0.32143351435661316,-0.0868581160902977,0.9264903664588928,0.5350862741470337,0.3191426694393158,-0.0880410224199295,0.9029188752174377,178.38117312417467,0.5650829374790192,0.31489984691143036,125.23017956133042,134.73563256034893,0.41412113240230786,-0.0024358313436075537,0.061338384523551115,0.02658677429915513,0.34825450031513633,-171.09965251594815,0.6810638949545446,67,1761939731.405174
0.5699431300163269,0.1612386554479599,-0.1668960154056549,0.999992311000824,0.5892149209976196,0.21305371820926666,-0.07189745455980301,0.9999685883522034,0.5477230548858643,0.2074040025472641,-0.0773807018995285,0.9999367594718933,0.5767906308174133,0.31929153203964233,0.0011272605042904615,0.9998244643211365,0.5537207126617432,0.3163186013698578,-0.001214518561027944,0.9996575117111206,0.5710506439208984,0.4013983905315399,0.006365054287016392,0.9737057089805603,0.5591980218887329,0.4001603126525879,0.0015181739581748843,0.9523031115531921,0.560874342918396,0.47079038619995117,0.08063369244337082,0.9692174196243286,0.5592259168624878,0.46440061926841736,0.08731238543987274,0.8862124681472778,0.5972217321395874,0.32345345616340637,-0.08067373186349869,0.9225900173187256,0.5350449085235596,0.3211202323436737,-0.0876060351729393,0.9060903191566467,178.28907584208378,0.5652556717395782,0.31780506670475006,136.82886058262577,128.5903742628821,0.39609048430850063,0.004594574026863514,0.07727620080412972,0.18700238047124207,0.4239313989631038,-172.24604046402573,0.6331404267106312,68,1761939731.4427693
0.5701321363449097,0.16269062459468842,-0.17019279301166534,0.9999906420707703,0.5895534753799438,0.21309319138526917,-0.07096311450004578,0.9999554753303528,0.5479093790054321,0.2086566537618637,-0.07845865935087204,0.9999377131462097,0.5770195722579956,0.3214074373245239,0.00263543170876801,0.9996101260185242,0.5539700984954834,0.31859472393989563,-0.002679701428860426,0.9994800686836243,0.5709517002105713,0.40439796447753906,-0.006162166129797697,0.9316612482070923,0.5596736669540405,0.4029194414615631,-0.031953345984220505,0.9128779172897339,0.5612713694572449,0.4825632870197296,0.058496564626693726,0.9260568618774414,0.5582802891731262,0.4832557737827301,0.0385344997048378,0.8532989025115967,0.5976743698120117,0.3251221477985382,-0.08056279271841049,0.9186922907829285,0.5348925590515137,0.3237367272377014,-0.08941193670034409,0.908480167388916,178.30115247327473,0.5654948353767395,0.3200010806322098,134.49657037743145,119.46428417224934,0.3879184608047798,0.005397701285493669,0.04956199587824131,0.018125836719066604,-0.6254838792823699,-173.91895304250718,0.5844487160243542,69,1761939731.4870777
0.5702751278877258,0.16410166025161743,-0.1831953227519989,0.999987006187439,0.5896850824356079,0.21363630890846252,-0.07289781421422958,0.9999381899833679,0.5479246973991394,0.2102058380842209,-0.08084137737751007,0.9999359250068665,0.5772734880447388,0.3237449824810028,0.0023691863752901554,0.9993043541908264,0.5541683435440063,0.32128456234931946,-0.0024107813369482756,0.9992451071739197,0.5708816051483154,0.40562719106674194,-0.014245748519897461,0.8736214637756348,0.5599255561828613,0.4044751524925232,-0.03840268403291702,0.8528030514717102,0.5602906942367554,0.4798279106616974,0.04928641766309738,0.86603844165802,0.5589505434036255,0.4904260039329529,0.030707836151123047,0.8101098537445068,0.5980842113494873,0.32736238837242126,-0.08567724376916885,0.9143205285072327,0.534662127494812,0.3262082040309906,-0.09305305778980255,0.9091187715530396,178.40268547223798,0.5657209157943726,0.32251477241516113,128.16130831152174,117.70165548947223,0.3911337744194293,0.006383845320084288,0.07097925460653431,0.0278458039226033,0.6047603252554161,-175.3038946369764,0.5331940641093413,70,1761939731.5224922
0.5703229308128357,0.16525571048259735,-0.19540412724018097,0.9999842643737793,0.5897601842880249,0.21462967991828918,-0.08362560719251633,0.9999222159385681,0.5479203462600708,0.2118721455335617,-0.08638185262680054,0.9999346733093262,0.5772773027420044,0.3253431022167206,0.0024727522395551205,0.9990041851997375,0.5541369915008545,0.3234117925167084,-0.0024962578900158405,0.9990944266319275,0.5708309412002563,0.406078040599823,-0.015220028348267078,0.8207855820655823,0.5599374175071716,0.40708228945732117,-0.04779769480228424,0.8051885366439819,0.5607402324676514,0.47532913088798523,0.05173756554722786,0.8087405562400818,0.559461236000061,0.4910200834274292,0.009679244831204414,0.7748265862464905,0.5983428359031677,0.3301719129085541,-0.0980280339717865,0.9100471138954163,0.5341219305992126,0.3283889889717102,-0.0964876040816307,0.9079585075378418,178.3850220456626,0.5657071471214294,0.3243774473667145,123.83489392782506,117.08991498326398,0.39026118880520727,-0.00034824610597536046,0.04711196941464503,-0.17027237366166573,-0.6036666832466908,-176.22926565345608,0.5928944442709483,71,1761939731.5620294
0.5703476667404175,0.16614879667758942,-0.19252222776412964,0.9999824166297913,0.5901979207992554,0.2168256938457489,-0.08351967483758926,0.9999133348464966,0.5479282736778259,0.2136116474866867,-0.0828649252653122,0.9999331831932068,0.5774427652359009,0.32829031348228455,0.0029724999330937862,0.9988394379615784,0.5541231036186218,0.3260299861431122,-0.0029846951365470886,0.999028742313385,0.5708033442497253,0.4081651568412781,-0.02714569866657257,0.7874203324317932,0.5599002242088318,0.4092904031276703,-0.07002526521682739,0.7811290621757507,0.5611003041267395,0.4731522798538208,0.05989120528101921,0.7677677273750305,0.5597324371337891,0.48834797739982605,-0.0011785769602283835,0.7563152313232422,0.5986208915710449,0.333135187625885,-0.09965255111455917,0.906059205532074,0.5339857935905457,0.3287774622440338,-0.08954125642776489,0.9056016206741333,178.32157191561203,0.5657829344272614,0.32716014981269836,106.38220583171736,100.08771950585134,0.3851009167389931,0.0019978568016693066,0.07335583377328607,0.0618464741555777,0.6918240770728408,-175.65178243578845,0.6644829784794146,72,1761939731.5999637
0.5703473091125488,0.16629265248775482,-0.1923162043094635,0.9999778866767883,0.5907419323921204,0.21861085295677185,-0.08810825645923615,0.9998992085456848,0.5479243397712708,0.21430577337741852,-0.08641958236694336,0.9999334216117859,0.577595591545105,0.32985368371009827,0.0028664516285061836,0.9987408518791199,0.5541051626205444,0.32759889960289,-0.002884505782276392,0.998969316482544,0.5702364444732666,0.41238898038864136,-0.01432934869080782,0.7590861320495605,0.5601855516433716,0.40940016508102417,-0.04926596209406853,0.7580316662788391,0.5613411664962769,0.4777459502220154,0.07399489730596542,0.7383100390434265,0.560338020324707,0.48454102873802185,0.03412127494812012,0.7394116520881653,0.5986901521682739,0.335316002368927,-0.0981847494840622,0.8981528282165527,0.5336626768112183,0.3306119740009308,-0.09038187563419342,0.9063636660575867,178.2231494719539,0.5658503770828247,0.32872629165649414,114.9856173253999,102.44647445492605,0.3999021595349194,0.0020725568922819924,0.048128562636460884,0.0022955826154854742,-0.7752505329357621,-174.25851173395134,0.7965317209608207,73,1761939731.6325045
0.5703763961791992,0.1659822016954422,-0.19651232659816742,0.9999775886535645,0.5907981395721436,0.21860453486442566,-0.09336727112531662,0.9998985528945923,0.5476850271224976,0.21461452543735504,-0.09062914550304413,0.9999351501464844,0.5776997804641724,0.3301834762096405,0.0024372637271881104,0.9987689256668091,0.5540837049484253,0.32795584201812744,-0.0024693659506738186,0.9990097880363464,0.5702625513076782,0.4130385220050812,0.003929573111236095,0.7630521655082703,0.5600197911262512,0.40960243344306946,-0.03495732694864273,0.763958215713501,0.5613912343978882,0.4763473868370056,0.12008506059646606,0.73777836561203,0.5604876279830933,0.48187586665153503,0.056903112679719925,0.7486019134521484,0.5984511375427246,0.3374442756175995,-0.10310516506433487,0.8976037502288818,0.533341109752655,0.332833856344223,-0.09723539650440216,0.9092825055122375,178.2938397967273,0.5658917427062988,0.32906965911388397,119.81207727481639,106.47243163685312,0.423518297981806,0.0012518940760516632,0.010391712966303484,-0.024836635635804422,-1.1420724404281684,-174.71248223381804,0.7970611124933575,74,1761939731.665547
0.5703763961791992,0.16587971150875092,-0.18724143505096436,0.9999786019325256,0.5906871557235718,0.21801696717739105,-0.08290939033031464,0.9999014735221863,0.547322690486908,0.21399661898612976,-0.08276543766260147,0.9999352097511292,0.5779870748519897,0.3305574059486389,0.002376094926148653,0.9988235831260681,0.554071307182312,0.3286092281341553,-0.0024094602558761835,0.9990628361701965,0.5722323656082153,0.4119921326637268,-0.0002952387440018356,0.7792865633964539,0.5597872734069824,0.41176214814186096,-0.03086213208734989,0.7816259264945984,0.5615257024765015,0.4740940034389496,0.1300177276134491,0.7500916123390198,0.5601793527603149,0.48236191272735596,0.05807236582040787,0.7663615345954895,0.598406195640564,0.3379910886287689,-0.09013800323009491,0.9025205969810486,0.5331039428710938,0.3325296640396118,-0.09337124228477478,0.9119426012039185,178.4991802262211,0.5660291910171509,0.3295833170413971,113.79498315093568,109.52296932862252,0.420445259261923,0.004655764183323238,0.01739905108015344,0.11529873617128687,0.2373584193844,-174.70321160896682,0.5768832303431118,75,1761939731.695069
0.5703610181808472,0.16371901333332062,-0.18410524725914001,0.9999792575836182,0.5907663106918335,0.21775074303150177,-0.07953646779060364,0.9999022483825684,0.546798586845398,0.21357841789722443,-0.08208589255809784,0.9999315738677979,0.5782303810119629,0.33007529377937317,0.0023820060305297375,0.9988871216773987,0.5540550947189331,0.32814785838127136,-0.002420437755063176,0.9990951418876648,0.5738312005996704,0.41087982058525085,-0.013723338954150677,0.794731855392456,0.5595804452896118,0.4114902913570404,-0.020668311044573784,0.7965909838676453,0.5616229176521301,0.4728066623210907,0.12159621715545654,0.7617301940917969,0.559998095035553,0.4796214699745178,0.09937790781259537,0.7802087068557739,0.5983575582504272,0.33805668354034424,-0.08476430922746658,0.9037912487983704,0.5328811407089233,0.3331027030944824,-0.092753566801548,0.912943422794342,178.66706908506728,0.566142737865448,0.32911157608032227,103.50938760817274,107.1996523870032,0.4295683871861256,0.003777573310700943,-0.015694280297922632,-0.029216402320902838,-1.1009771495275753,-174.5791395018894,0.44768812156555005,76,1761939731.7251272
0.5703019499778748,0.16150054335594177,-0.18357422947883606,0.9999799132347107,0.59104984998703,0.21754100918769836,-0.0776512548327446,0.9999026656150818,0.5465415120124817,0.2130327820777893,-0.07734175771474838,0.999932050704956,0.5783716440200806,0.32990679144859314,0.0023728623054921627,0.998931348323822,0.5540300607681274,0.3278600573539734,-0.002413894748315215,0.9991618990898132,0.5754603147506714,0.4123154580593109,-0.01746853068470955,0.8069595694541931,0.5592597723007202,0.4113762378692627,-0.05070532485842705,0.8113783597946167,0.5639499425888062,0.46116796135902405,0.15183581411838531,0.7540838122367859,0.5598371624946594,0.48101261258125305,0.05642431229352951,0.7949408292770386,0.5983175039291382,0.3380136787891388,-0.08666297048330307,0.9034218192100525,0.5326676964759827,0.3329963982105255,-0.09187764674425125,0.9109582901000977,178.6914487684867,0.566200852394104,0.32888342440128326,92.67926757477461,92.99631644500987,0.4227177196756785,0.001962576188214076,-0.007704872825063004,-0.06129396928183928,0.2698089656200536,-174.21626508806582,0.4745922056868287,77,1761939731.7547386
0.5702961683273315,0.15978305041790009,-0.19413939118385315,0.9999805092811584,0.5910358428955078,0.2173546701669693,-0.08451714366674423,0.9999038577079773,0.5457229018211365,0.21239854395389557,-0.08482056856155396,0.9999311566352844,0.5784834623336792,0.33025479316711426,0.0023626829497516155,0.9989873170852661,0.5539207458496094,0.3285125494003296,-0.0024051100481301546,0.9992145895957947,0.5757653713226318,0.4131048023700714,-0.016392584890127182,0.8184536695480347,0.5587887167930603,0.41296249628067017,-0.01789829507470131,0.823499858379364,0.5649799108505249,0.4549334645271301,0.16916024684906006,0.7481319308280945,0.5597603917121887,0.48178207874298096,0.10268469154834747,0.8078288435935974,0.5982531309127808,0.3377256691455841,-0.09560076892375946,0.9057272672653198,0.5321332216262817,0.3333985507488251,-0.10037972778081894,0.910750150680542,178.91069382731402,0.5662021040916443,0.3293836712837219,90.05211226543449,109.3082291331967,0.45190929620849,4.157329173364586e-05,0.016614964009407443,-0.06380328415320712,0.8077475900490703,-173.75805656042888,0.443625883007842,78,1761939731.7848468
0.5702325105667114,0.15765322744846344,-0.20600004494190216,0.9999819397926331,0.5908151865005493,0.2151268869638443,-0.09413523972034454,0.9999098181724548,0.5447779297828674,0.21124643087387085,-0.09660006314516068,0.9999344944953918,0.578454315662384,0.3298068046569824,0.002526265336200595,0.9990512728691101,0.5536885261535645,0.3283931016921997,-0.0025775760877877474,0.9992761611938477,0.5759831070899963,0.4122186005115509,0.009433368220925331,0.8297502398490906,0.5579923391342163,0.4130533039569855,-0.0032559852115809917,0.8366934657096863,0.5694947242736816,0.4423924386501312,0.2003188580274582,0.7406116724014282,0.5596659183502197,0.48265329003334045,0.11038098484277725,0.8214133977890015,0.59815514087677,0.33700937032699585,-0.11044609546661377,0.9115635752677917,0.5311894416809082,0.33329567313194275,-0.11634480953216553,0.9137234687805176,179.1473300267656,0.5660714209079742,0.32909995317459106,103.81754636737949,121.01979595054111,0.47281205668159604,-0.0037604624039517015,-0.00816410537870472,-0.1094051421964588,-0.713027921589163,-175.1819576961075,0.7162995948693637,79,1761939731.8195987
0.5700806379318237,0.1569957584142685,-0.21044787764549255,0.999983012676239,0.5904991030693054,0.21380172669887543,-0.10352162271738052,0.9999136328697205,0.5438506007194519,0.21070140600204468,-0.0985085591673851,0.9999333620071411,0.5784093141555786,0.32953816652297974,-0.0004344343615230173,0.9990962147712708,0.552872896194458,0.32852888107299805,0.0003673655155580491,0.9993054270744324,0.5758920907974243,0.414124071598053,0.00805957056581974,0.8424400687217712,0.5575586557388306,0.41453099250793457,0.02507551945745945,0.8471701741218567,0.5696478486061096,0.4472047686576843,0.18390753865242004,0.7488271594047546,0.5596347451210022,0.48335596919059753,0.14517150819301605,0.8331582546234131,0.5980862379074097,0.33759018778800964,-0.11532218754291534,0.9155904650688171,0.5301405191421509,0.334177702665329,-0.11221053451299667,0.9142464995384216,179.2475536139955,0.5656411051750183,0.3290335237979889,106.4312817023272,135.81787864213345,0.48547351984260867,-0.011490530001591597,-0.001773834155658125,-0.20641256371193,0.17063657585172193,-176.1976391851334,0.7355829819941415,80,1761939731.8570483
0.5697935819625854,0.1562894880771637,-0.21765771508216858,0.999984085559845,0.5903764963150024,0.21337488293647766,-0.11129684746265411,0.9999178051948547,0.543218731880188,0.20987394452095032,-0.1020994782447815,0.9999309778213501,0.5780282616615295,0.3294864594936371,-0.0037585669197142124,0.999147891998291,0.5517415404319763,0.3288130462169647,0.0036817651707679033,0.9993299245834351,0.5754619836807251,0.4163658022880554,0.010628297924995422,0.8561290502548218,0.5566717386245728,0.4161452353000641,0.03845891356468201,0.8579740524291992,0.5705193877220154,0.45725250244140625,0.17592622339725494,0.7672154903411865,0.5595921277999878,0.48380589485168457,0.16523246467113495,0.845329999923706,0.5978872179985046,0.3402949869632721,-0.1252247393131256,0.9203749299049377,0.5287901759147644,0.33512911200523376,-0.11964470148086548,0.916461169719696,179.06759927889698,0.5648849010467529,0.3291497528553009,113.32618635748511,139.78510596090072,0.49949680354154086,-0.01856290053551049,0.002853129663769643,-0.17360882579754863,0.11358027012952428,-175.75421560930226,1.8898395822279372,81,1761939731.8977857
0.5693036317825317,0.15616601705551147,-0.21761107444763184,0.9999852776527405,0.5902402400970459,0.21343453228473663,-0.10917618125677109,0.9999212622642517,0.5423682928085327,0.20939627289772034,-0.10515085607767105,0.9999326467514038,0.5774005651473999,0.33000466227531433,-0.0030132902320474386,0.9991994500160217,0.5504198670387268,0.32999181747436523,0.0029369089752435684,0.9993607401847839,0.575229823589325,0.4176574647426605,0.0209219828248024,0.8682300448417664,0.5561020970344543,0.41783320903778076,0.036732446402311325,0.8687423467636108,0.5710442662239075,0.46581509709358215,0.1784554421901703,0.7853475213050842,0.5595928430557251,0.48505252599716187,0.1662127822637558,0.8570622205734253,0.5976765751838684,0.3418155312538147,-0.1210612878203392,0.9241065979003906,0.5277091264724731,0.33627673983573914,-0.12389900535345078,0.9198564291000366,178.84342158575345,0.5639102160930634,0.3299982398748398,122.28832691244982,138.46315248971646,0.5039891408045791,-0.03133167023045854,0.02727498294744748,-0.41045763537886854,0.7850510573743138,-175.17820447937416,6.871444846115575,82,1761939731.9288943
0.5682225227355957,0.15630421042442322,-0.2109302282333374,0.999986469745636,0.5898915529251099,0.21395714581012726,-0.10320043563842773,0.9999261498451233,0.5416539311408997,0.20871859788894653,-0.10145564377307892,0.9999357461929321,0.5763368010520935,0.33163535594940186,-0.0026069022715091705,0.9992697834968567,0.549040675163269,0.3320392370223999,0.0025529915001243353,0.9994080066680908,0.5749553442001343,0.4196147620677948,0.030940573662519455,0.8798702955245972,0.5553628206253052,0.42040663957595825,0.04182121902704239,0.8799891471862793,0.5717183947563171,0.47675400972366333,0.18373921513557434,0.8046350479125977,0.5585057139396667,0.4853561818599701,0.17940305173397064,0.8689268231391907,0.596750795841217,0.3440966010093689,-0.11066938936710358,0.925925076007843,0.5270774364471436,0.3358418643474579,-0.11946364492177963,0.9227387309074402,178.5339196152139,0.5626887381076813,0.3318372964859009,131.37929880771304,139.18820585953605,0.5094409990095189,-0.031989322843495364,0.048163107614498456,-0.017223283603201925,0.5470397105523435,-173.8020364845154,64.21253787349579,83,1761939731.9670782
0.5678766369819641,0.15648895502090454,-0.2076081782579422,0.9999874830245972,0.5896033048629761,0.21426016092300415,-0.09669137746095657,0.9999313950538635,0.5412299633026123,0.20864936709403992,-0.0987568125128746,0.9999375343322754,0.5757216811180115,0.3335050940513611,-0.002392690861597657,0.9993329644203186,0.5483976602554321,0.33333128690719604,0.002357927616685629,0.9994459748268127,0.5735594034194946,0.4219227731227875,0.022612007334828377,0.890034556388855,0.5546644926071167,0.42179811000823975,0.033237479627132416,0.8894615173339844,0.5719974040985107,0.4847331941127777,0.17033632099628448,0.8217642307281494,0.5577279329299927,0.48580142855644226,0.1664874255657196,0.8789848685264587,0.5963079929351807,0.3453975319862366,-0.10094942897558212,0.9283854961395264,0.5266118049621582,0.33578261733055115,-0.1186782494187355,0.9248374104499817,178.42336927835,0.5620596706867218,0.33341819047927856,128.82433109980644,134.86605523476345,0.4994951158375991,-0.016606036956850107,0.04173222647399426,0.40608590659772764,-0.16976153322555082,-173.3838625834665,4.465706857598839,84,1761939732.00496
0.5676954984664917,0.15670625865459442,-0.2044859677553177,0.9999881386756897,0.5893047451972961,0.21512722969055176,-0.09508085250854492,0.9999362230300903,0.5408276319503784,0.20865808427333832,-0.09372669458389282,0.9999373555183411,0.5748401880264282,0.3361261487007141,-0.002113072667270899,0.999390721321106,0.5476817488670349,0.33577319979667664,0.0020650369115173817,0.9994792342185974,0.5716427564620972,0.4241839647293091,0.027034785598516464,0.8985340595245361,0.5545850396156311,0.4234323799610138,0.037538643926382065,0.8971918821334839,0.5717600584030151,0.48916926980018616,0.16766826808452606,0.8369702696800232,0.5575459003448486,0.4862033724784851,0.1697615683078766,0.8872032165527344,0.5962615013122559,0.3477725386619568,-0.1015072911977768,0.9315498471260071,0.5261902213096619,0.33553045988082886,-0.10999508947134018,0.9255892634391785,178.24310851847264,0.5612609684467316,0.3359496742486954,133.0785214613388,137.36940622097006,0.49883460180688194,-0.019769726941711762,0.06266007577411759,-0.07830864118987305,0.5180126528076227,-172.3989345397366,2.4707916656481776,85,1761939732.0453603
0.5675297379493713,0.15744668245315552,-0.2043972909450531,0.9999889135360718,0.5887637734413147,0.21651072800159454,-0.09442870318889618,0.9999407529830933,0.5400079488754272,0.20917682349681854,-0.0957520604133606,0.9999396800994873,0.5742000937461853,0.3385685980319977,-0.0007513989694416523,0.9994449019432068,0.5472015738487244,0.3384183645248413,0.0006691649905405939,0.9995149374008179,0.5699757933616638,0.4294174909591675,0.02694687619805336,0.9059382081031799,0.5544942617416382,0.4260207712650299,0.038416095077991486,0.9037774801254272,0.5703867673873901,0.4969422221183777,0.15673081576824188,0.8500239253044128,0.5574690699577332,0.48842892050743103,0.17384503781795502,0.8922959566116333,0.5961410999298096,0.34972989559173584,-0.09948145598173141,0.9354152083396912,0.5258025527000427,0.33587318658828735,-0.11063499748706818,0.9282649159431458,178.32012330363636,0.5607008337974548,0.3384934812784195,134.37315561403935,137.97958029774605,0.499064370517598,-0.015282177541581834,0.06940279575627874,0.12243400180288264,0.18396191703836162,-171.44563981003898,2.175480652460737,86,1761939732.0820131
0.5676584243774414,0.15900470316410065,-0.20640864968299866,0.9999894499778748,0.5885783433914185,0.21829766035079956,-0.09552866965532303,0.9999442100524902,0.5395044088363647,0.2105821669101715,-0.10057830810546875,0.9999411106109619,0.5733676552772522,0.34081417322158813,-0.0006453170790337026,0.9994914531707764,0.5465143918991089,0.34034204483032227,0.0005617152201011777,0.9995396137237549,0.5688880085945129,0.43155813217163086,0.023941803723573685,0.9112398624420166,0.55401211977005,0.4268234968185425,0.04440755769610405,0.905571460723877,0.5686116814613342,0.501249372959137,0.1321537047624588,0.859523355960846,0.5576339960098267,0.4906506836414337,0.18890568614006042,0.8893551826477051,0.5961285829544067,0.352417528629303,-0.1026366576552391,0.9381318092346191,0.5258113741874695,0.33704137802124023,-0.11322160810232162,0.9306188821792603,178.13815161049175,0.5599410235881805,0.3405781090259552,137.87433225269498,140.64530152237404,0.49819320830187147,-0.01969906291337512,0.05404667198259343,-0.11451346896644822,-0.3981273805366823,-171.06499458907018,2.4497639288573305,87,1761939732.120584
0.5678970217704773,0.16058588027954102,-0.20573198795318604,0.9999898672103882,0.5885891318321228,0.22020627558231354,-0.0949229747056961,0.9999471306800842,0.5393558144569397,0.21231013536453247,-0.10086772590875626,0.9999428391456604,0.5728975534439087,0.3430841565132141,0.0002905392029788345,0.9995251893997192,0.5457659959793091,0.34307169914245605,-0.0003823377483058721,0.9995533227920532,0.5678788423538208,0.43247029185295105,0.02483457140624523,0.9123575091362,0.5533201098442078,0.4291021227836609,0.035218529403209686,0.9039396047592163,0.5686122179031372,0.5037630796432495,0.1341685801744461,0.8659334182739258,0.5579835176467896,0.5022714138031006,0.17120292782783508,0.8870675563812256,0.5961295962333679,0.355634480714798,-0.10130949318408966,0.941199541091919,0.5253504514694214,0.3407074511051178,-0.1127791628241539,0.9327703714370728,177.90431768461363,0.5593317747116089,0.3430779278278351,138.33402137118551,140.71864981767675,0.4957253984713383,-0.020542920766608786,0.08428998649430831,-0.028453569114166386,1.0197573399394158,-170.88838106371128,1.7191645340947825,88,1761939732.1502414
0.5680928230285645,0.16186386346817017,-0.21071739494800568,0.9999898076057434,0.5885939598083496,0.22117428481578827,-0.10212685167789459,0.9999494552612305,0.5393558740615845,0.21380530297756195,-0.10814724862575531,0.9999426603317261,0.5728169679641724,0.3458719551563263,-0.0015323539264500141,0.999565839767456,0.5458292365074158,0.3452591300010681,0.0014546830207109451,0.9995736479759216,0.5673667192459106,0.4359339475631714,0.0048116156831383705,0.9173216819763184,0.5522112250328064,0.43130192160606384,0.05471917986869812,0.8989983797073364,0.5684190392494202,0.5104963779449463,0.10066983848810196,0.8744711875915527,0.555565595626831,0.4982661008834839,0.21305003762245178,0.8687871098518372,0.5961859226226807,0.35816875100135803,-0.10529518127441406,0.9434098601341248,0.52513587474823,0.3471640944480896,-0.11768964678049088,0.9350502490997314,177.919885358282,0.5593231022357941,0.3455655425786972,131.76641771599037,144.62619041442633,0.5024624013110128,-0.0002125962162256939,0.060981142496449425,0.49837556959988083,-0.5713907013810456,-171.48827594040245,2.110293111417152,89,1761939732.1910346
0.5682865381240845,0.1630249172449112,-0.2014392614364624,0.9999898076057434,0.5886864066123962,0.22294466197490692,-0.09898180514574051,0.9999508261680603,0.5391858816146851,0.21609249711036682,-0.10855613648891449,0.9999426603317261,0.5729998350143433,0.34982481598854065,-0.000326070497976616,0.9996016025543213,0.5461225509643555,0.34930169582366943,0.0002245109499199316,0.9995936155319214,0.56736159324646,0.4405807554721832,0.006678106728941202,0.9167985916137695,0.5522770881652832,0.43503451347351074,0.051634639501571655,0.8885665535926819,0.567517876625061,0.5253217220306396,0.1011802926659584,0.8778702616691589,0.5548403859138489,0.49873512983322144,0.19426032900810242,0.8494285941123962,0.5962809920310974,0.360410213470459,-0.0899142473936081,0.9459180235862732,0.5248866081237793,0.35314440727233887,-0.11662964522838593,0.9385110139846802,178.0731873077335,0.5595611929893494,0.34956325590610504,136.16992410210474,144.94595679330808,0.49372702095212095,0.005815256951521327,0.09764230601252001,0.14722753619387977,0.8954320266711832,-172.11885269808377,3.2150069535099597,90,1761939732.231977
0.5684753656387329,0.16422878205776215,-0.21400973200798035,0.9999903440475464,0.5888736248016357,0.22393730282783508,-0.09912377595901489,0.9999545216560364,0.5391963124275208,0.2183280736207962,-0.10960026830434799,0.999944269657135,0.5730885863304138,0.35509181022644043,0.00025817102869041264,0.9996382594108582,0.5463110208511353,0.3549428880214691,-0.0003640104259829968,0.999621570110321,0.5672707557678223,0.45066994428634644,0.0053415969014167786,0.9219628572463989,0.5524108409881592,0.4465113878250122,0.04399960860610008,0.8907742500305176,0.566251277923584,0.5272386074066162,0.11722569167613983,0.8852900862693787,0.5545836687088013,0.4993932843208313,0.21359983086585999,0.8343404531478882,0.5966083407402039,0.3615807890892029,-0.09945033490657806,0.9494030475616455,0.5246692895889282,0.35932981967926025,-0.12245998531579971,0.9415035247802734,178.1454193118284,0.5596998035907745,0.3550173491239548,127.37806826565031,133.1213843583251,0.5156434872746961,0.004630514603394582,0.18220293421901507,-0.03957826232521246,2.8248865509308025,-173.55783003541254,7.504505972333733,91,1761939732.2619112
0.5690606236457825,0.16467896103858948,-0.21471551060676575,0.9999907612800598,0.5897688269615173,0.2266891747713089,-0.09924189746379852,0.9999576210975647,0.5392014980316162,0.2190323770046234,-0.11160390079021454,0.9999461770057678,0.5732709169387817,0.3597683906555176,0.003975389525294304,0.9996699094772339,0.5464414358139038,0.3591946065425873,-0.0040886555798351765,0.999647319316864,0.5673054456710815,0.4555839002132416,0.02106277085840702,0.9262118339538574,0.5525414943695068,0.45346200466156006,0.04129372909665108,0.8961090445518494,0.5662011504173279,0.5280959010124207,0.14800025522708893,0.8920347094535828,0.554706871509552,0.5067867636680603,0.20031948387622833,0.8354792594909668,0.5972006320953369,0.3662835359573364,-0.10230635106563568,0.9524383544921875,0.5244945287704468,0.3624288737773895,-0.12608101963996887,0.9429406523704529,178.05944557975664,0.5598561763763428,0.35948149859905243,129.7886590120662,134.20227588289663,0.5251089655315235,0.004308023251995139,0.12298597655095406,-0.008884539821603919,-1.63140938891247,-171.38980004340695,8.708616297417942,92,1761939732.2982092
0.569717526435852,0.16535529494285583,-0.21252372860908508,0.9999911785125732,0.5908433198928833,0.2269642949104309,-0.09846451878547668,0.9999613165855408,0.539279580116272,0.2191832810640335,-0.10208366066217422,0.999947190284729,0.5741127133369446,0.36287686228752136,0.0021750398445874453,0.9997003674507141,0.5465430617332458,0.362212210893631,-0.0022640908136963844,0.99966961145401,0.5681514739990234,0.46107614040374756,0.008570483885705471,0.932385265827179,0.551586389541626,0.4580168128013611,0.03984994441270828,0.9020411372184753,0.5665879845619202,0.5368080735206604,0.13456840813159943,0.8999829292297363,0.5544341206550598,0.5054857730865479,0.21136829257011414,0.8305321335792542,0.5978227853775024,0.36928752064704895,-0.11009714752435684,0.9557124972343445,0.5242587327957153,0.3632175922393799,-0.12209340184926987,0.9444475173950195,178.05615807948826,0.5603278875350952,0.36254453659057617,124.70168996042422,129.19356687576857,0.5246680711771823,0.009500645861444713,0.06169207295113062,0.10458363680644221,-1.2345090014566882,-171.41876011998437,7.36030025552661,93,1761939732.3478596
0.569919228553772,0.16515640914440155,-0.21843573451042175,0.9999914169311523,0.5920088887214661,0.22758041322231293,-0.10501138865947723,0.9999644756317139,0.539339542388916,0.21868108212947845,-0.10482966899871826,0.999948263168335,0.5750261545181274,0.3638158142566681,-0.00010647093586158007,0.9997270703315735,0.5466185808181763,0.3624308705329895,4.1845392843242735e-05,0.9996860027313232,0.568777859210968,0.46301940083503723,0.002986385952681303,0.9380972981452942,0.5505197048187256,0.456926554441452,0.051324330270290375,0.9059851169586182,0.5671242475509644,0.5400729179382324,0.12367954105138779,0.9073694348335266,0.553774356842041,0.5034307241439819,0.24074354767799377,0.8212975859642029,0.5987316966056824,0.37099674344062805,-0.12615814805030823,0.958166778087616,0.5241130590438843,0.36426472663879395,-0.1239684596657753,0.9456290602684021,178.01504370314458,0.5608223676681519,0.3631233423948288,124.3085598909335,132.2852130574963,0.5364403129529187,0.009981231050579912,0.011683370229558688,0.009700757404738065,-1.009440790509168,-170.4095418294685,6.053307200594265,94,1761939732.3974006
0.5703138113021851,0.16498421132564545,-0.21533572673797607,0.9999911785125732,0.592171847820282,0.2275373488664627,-0.10350785404443741,0.9999671578407288,0.5393478870391846,0.21841846406459808,-0.10480328649282455,0.9999486207962036,0.5766147375106812,0.36514341831207275,0.0005418029031716287,0.9997513294219971,0.5467292070388794,0.3645273447036743,-0.0006011892110109329,0.9997016787528992,0.5700114369392395,0.46406733989715576,0.004793507978320122,0.9429298639297485,0.5493338108062744,0.4604915976524353,0.031960584223270416,0.9111623167991638,0.5673841238021851,0.5409435629844666,0.13383308053016663,0.9133094549179077,0.5514974594116211,0.4970957338809967,0.22551825642585754,0.8048450946807861,0.5993243455886841,0.3723750710487366,-0.11988242715597153,0.9601622223854065,0.523947536945343,0.36454662680625916,-0.12202443182468414,0.9465249180793762,178.3493690503333,0.5616719722747803,0.36483538150787354,123.23393147325342,119.45585076222494,0.5305594364775554,0.019417713793742304,0.03912865495482732,0.21567081875116878,0.6272619988466152,-170.20568497765788,17.55725367341671,95,1761939732.4411547
0.570504367351532,0.1647605299949646,-0.21473328769207,0.9999909400939941,0.592658281326294,0.227689728140831,-0.10316254943609238,0.9999696016311646,0.5391784310340881,0.21855208277702332,-0.10264725983142853,0.9999471306800842,0.5775001049041748,0.3672809898853302,0.00048317312030121684,0.9997732639312744,0.5467445850372314,0.36645469069480896,-0.0005436652572825551,0.9997159838676453,0.5702228546142578,0.46839603781700134,0.004837780725210905,0.947243869304657,0.5480231642723083,0.46536174416542053,0.01696745492517948,0.9159305095672607,0.5674004554748535,0.5420085191726685,0.14715325832366943,0.9179723858833313,0.5515680313110352,0.48768705129623413,0.22767123579978943,0.7795180082321167,0.600277304649353,0.37421515583992004,-0.11654764413833618,0.9620558619499207,0.5233134627342224,0.3644721210002899,-0.1160714253783226,0.9466544389724731,178.4873076767609,0.5621223449707031,0.3668678402900696,119.80793376183539,106.09649015601661,0.5332950032914235,0.012226932910450176,0.055178161105537395,-0.19521875155775723,0.43571965336061275,-170.30398981554129,10.479446261284389,96,1761939732.4779892
0.5707258582115173,0.16466790437698364,-0.21848194301128387,0.9999906420707703,0.593616247177124,0.22996273636817932,-0.10664790868759155,0.9999716281890869,0.5391846895217896,0.21917755901813507,-0.10265642404556274,0.9999465942382812,0.5779696106910706,0.3701363801956177,0.00025030772667378187,0.9997931718826294,0.5467836260795593,0.3682825267314911,-0.0003172512224409729,0.9997316002845764,0.5702949166297913,0.4726864695549011,0.009217062965035439,0.9513716101646423,0.5473760962486267,0.46707695722579956,0.02367258444428444,0.9216206073760986,0.5670887231826782,0.5454586744308472,0.1574283391237259,0.923640787601471,0.5509818196296692,0.48687002062797546,0.23539316654205322,0.7729098796844482,0.6012305617332458,0.3783261477947235,-0.12186692655086517,0.9636510610580444,0.5223435163497925,0.3658105134963989,-0.11199605464935303,0.9469549655914307,178.40644858580671,0.5623766183853149,0.3692094534635544,121.14054711691784,108.99150027931204,0.5438955491944266,0.007140226960800723,0.06575461118735983,-0.14283929375314497,0.2969962634083497,-168.79246546958944,20.042590223666437,97,1761939732.5136006
0.5708698034286499,0.16456803679466248,-0.22052030265331268,0.9999904632568359,0.5943571329116821,0.2306300699710846,-0.10931015014648438,0.9999734163284302,0.5391739010810852,0.21946226060390472,-0.10453031212091446,0.9999458193778992,0.5783054232597351,0.3704024851322174,-0.0002599014842417091,0.9998105764389038,0.5468143820762634,0.36806347966194153,0.00017804390517994761,0.99974524974823,0.5702900886535645,0.47489941120147705,0.015704113990068436,0.9549692869186401,0.5465866327285767,0.46569374203681946,0.02827967330813408,0.9268749356269836,0.5662866830825806,0.5452938079833984,0.16757310926914215,0.9287481307983398,0.5497595071792603,0.48756319284439087,0.233191579580307,0.775550365447998,0.6022684574127197,0.3802017271518707,-0.1227530688047409,0.9650132060050964,0.521538496017456,0.3669450879096985,-0.11241929233074188,0.9463092088699341,178.3292810210422,0.5625599026679993,0.36923298239707947,123.55716122283492,112.14361594994342,0.5487530064516519,0.004949013094364402,0.0006353245265041781,-0.05916680884319806,-1.7583406370709147,-168.5591811975765,10.103200290861054,98,1761939732.550635
0.5708814263343811,0.1643403172492981,-0.23349900543689728,0.9999905228614807,0.5950139760971069,0.23019665479660034,-0.11454935371875763,0.9999752044677734,0.5391829013824463,0.21944047510623932,-0.11092392355203629,0.9999457597732544,0.5787182450294495,0.3698629140853882,-0.00033151789102703333,0.9998257160186768,0.5468229651451111,0.36716288328170776,0.00024175885482691228,0.9997580647468567,0.5701740384101868,0.4759351909160614,0.017062049359083176,0.9581044912338257,0.5464468002319336,0.4655078053474426,0.022837869822978973,0.9321855306625366,0.5661226511001587,0.540615439414978,0.1898157149553299,0.9329491257667542,0.5488395094871521,0.4960854947566986,0.22663764655590057,0.7832780480384827,0.602988600730896,0.38098111748695374,-0.1289643943309784,0.966151773929596,0.520610511302948,0.36832207441329956,-0.12369047105312347,0.9449458122253418,178.2748681936158,0.5627706050872803,0.368512898683548,119.84070197737206,111.46738039503478,0.5662369974697404,0.007192502706090127,-0.024580657763019754,0.07658338788175938,-0.8607685733889964,-169.09524106154623,5.2121284314708545,99,1761939732.5799298
0.5708881616592407,0.16412708163261414,-0.2436852902173996,0.9999904632568359,0.5954036116600037,0.23077493906021118,-0.12070424854755402,0.9999765157699585,0.5391896963119507,0.21954551339149475,-0.11512267589569092,0.9999452829360962,0.579171895980835,0.3712528645992279,-0.0005138769629411399,0.9998389482498169,0.5468697547912598,0.36814743280410767,0.0004210603074170649,0.9997686147689819,0.5703061819076538,0.4744602143764496,0.019257189705967903,0.9601244926452637,0.5467280149459839,0.4680578410625458,0.035670939832925797,0.9354734420776367,0.5656932592391968,0.5400513410568237,0.1961323767900467,0.9355286359786987,0.5491152405738831,0.5088691115379333,0.24038545787334442,0.7909275889396667,0.6043024063110352,0.3836958110332489,-0.1381550282239914,0.9662145376205444,0.519990861415863,0.3688950836658478,-0.12860481441020966,0.9414696097373962,178.30555114379627,0.5630208253860474,0.3697001487016678,121.19377998142106,120.70329025726434,0.5860155645614834,0.007673522508755639,0.03640947510035169,0.014751466212366582,1.870388452276249,-168.70315896106635,3.838788239229383,100,1761939732.612538
0.5709198117256165,0.16407297551631927,-0.24970845878124237,0.9999906420707703,0.5959622859954834,0.23076370358467102,-0.12792840600013733,0.9999779462814331,0.5391923189163208,0.21988362073898315,-0.11523260921239853,0.9999423623085022,0.5795648694038391,0.3721621632575989,-0.0022556898184120655,0.9998499155044556,0.5468994379043579,0.3687247335910797,0.0021263654343783855,0.9997743964195251,0.5704585313796997,0.4769103527069092,0.01941518485546112,0.9622654914855957,0.5469623804092407,0.47061923146247864,0.03451862931251526,0.9392961263656616,0.5660715103149414,0.5407217144966125,0.2112341821193695,0.9387986063957214,0.5487656593322754,0.5226987600326538,0.23083201050758362,0.8030486106872559,0.6053767800331116,0.38643643260002136,-0.1394023299217224,0.9661431908607483,0.5199747085571289,0.3705531656742096,-0.12185399234294891,0.9355995655059814,178.28497315243388,0.5632321536540985,0.3704434484243393,120.08210759010728,122.49032149383184,0.5974420901197471,0.006409074475777296,0.022542480115690527,-0.03834764600515687,-0.42055236827291576,-169.1507009541239,3.3608523693759746,101,1761939732.6455114
0.5709132552146912,0.16404370963573456,-0.25257816910743713,0.9999906420707703,0.5967755317687988,0.2329651117324829,-0.12880419194698334,0.9999778866767883,0.5391411781311035,0.22103248536586761,-0.11638130992650986,0.9999400973320007,0.5794281363487244,0.37528952956199646,-0.0022185957059264183,0.9998324513435364,0.5468462109565735,0.37071090936660767,0.002097978023812175,0.9997432231903076,0.5704623460769653,0.4777218699455261,0.018525633960962296,0.961884081363678,0.5480251908302307,0.47515419125556946,0.031783577054739,0.9400027394294739,0.5660576224327087,0.5421149730682373,0.20157761871814728,0.9374955296516418,0.5488811135292053,0.5461750626564026,0.19313962757587433,0.8147744536399841,0.6061839461326599,0.3898606598377228,-0.1425010710954666,0.9666919112205505,0.5195558071136475,0.37225082516670227,-0.1222209483385086,0.9335810542106628,178.1086964681661,0.5631371736526489,0.37300021946430206,120.8229274686668,129.6213643666743,0.5891526624260789,-0.003171093793531645,0.08536282009440646,-0.31985272348010835,2.097380366116266,-168.30274011739033,2.7155458002838726,102,1761939732.6754632
0.5708605051040649,0.1641792207956314,-0.24969950318336487,0.999989926815033,0.5978466868400574,0.23505045473575592,-0.12688201665878296,0.9999737739562988,0.5391080975532532,0.22281330823898315,-0.11537124216556549,0.9999387860298157,0.5794442892074585,0.3782777190208435,-0.0018804084975272417,0.9997529983520508,0.5468423962593079,0.3734290599822998,0.001791408285498619,0.9996901154518127,0.5704396963119507,0.48089277744293213,0.01794195920228958,0.9550527334213257,0.5492530465126038,0.48021435737609863,0.004610341973602772,0.93756502866745,0.5638858079910278,0.5512048602104187,0.19847680628299713,0.9275418519973755,0.5495260953903198,0.5620061755180359,0.13306739926338196,0.8215563893318176,0.6065365076065063,0.3908190429210663,-0.1425388902425766,0.9657578468322754,0.5190525054931641,0.37392115592956543,-0.12187258899211884,0.9315170645713806,177.92076493668003,0.5631433427333832,0.37585338950157166,122.25343307213967,123.98860080582863,0.5716777111007747,0.00018311324359899793,0.084688990559495,0.09956098108123651,-0.020000891070423688,-168.23176679005994,1.6979741441712137,103,1761939732.7091532
0.5706827044487,0.16457046568393707,-0.25020235776901245,0.9999891519546509,0.5985076427459717,0.2368444800376892,-0.12945125997066498,0.9999719262123108,0.53902268409729,0.22575098276138306,-0.11609157174825668,0.9999358057975769,0.5795698165893555,0.38212230801582336,-0.0019921192433685064,0.9997376203536987,0.546791136264801,0.3769875466823578,0.0019079024204984307,0.9996662735939026,0.570481538772583,0.4876534342765808,0.017627861350774765,0.9532549977302551,0.5510876178741455,0.488139271736145,0.00985485129058361,0.9367250800132751,0.5610411167144775,0.5669628381729126,0.1753341257572174,0.9270971417427063,0.5510059595108032,0.5645899176597595,0.1441422700881958,0.8295788764953613,0.6070812940597534,0.3932977318763733,-0.14366266131401062,0.9637232422828674,0.5185306668281555,0.37742042541503906,-0.12320536375045776,0.9269383549690247,177.84275038408103,0.5631804764270782,0.3795549273490906,127.33436703592231,123.71056958614982,0.5737877084503772,0.0010170498697261966,0.10138093496757847,0.022840580953981768,0.4571734776810749,-169.4361211733275,1.172750910833591,104,1761939732.7456644
0.5704624652862549,0.16478702425956726,-0.2513323128223419,0.99998939037323,0.5984711050987244,0.23841822147369385,-0.1267043650150299,0.9999708533287048,0.5387318134307861,0.22795535624027252,-0.11701275408267975,0.9999372959136963,0.5795154571533203,0.3852093517780304,-0.0014569635968655348,0.9997254014015198,0.5467658638954163,0.3804265856742859,0.0013760060537606478,0.9996614456176758,0.5704881548881531,0.49194788932800293,0.030469249933958054,0.9520420432090759,0.5522108674049377,0.4942145347595215,0.01371049415320158,0.9375123977661133,0.5604134798049927,0.5708626508712769,0.17734132707118988,0.927268385887146,0.551139771938324,0.5750937461853027,0.14286477863788605,0.8395649790763855,0.6071656942367554,0.3974038362503052,-0.1405506432056427,0.9639256596565247,0.5177079439163208,0.3811664879322052,-0.1256903111934662,0.9270150065422058,177.9099147365539,0.5631406605243683,0.38281796872615814,135.0024512215481,128.16330244927835,0.579754058855872,-0.0013821414087910814,0.11327093695945442,-0.08328384861206628,0.41274121607366965,-170.06585466343316,0.9797113630935984,105,1761939732.7754655
