nose_x,nose_y,nose_z,nose_visibility,left_shoulder_x,left_shoulder_y,left_shoulder_z,left_shoulder_visibility,right_shoulder_x,right_shoulder_y,right_shoulder_z,right_shoulder_visibility,left_hip_x,left_hip_y,left_hip_z,left_hip_visibility,right_hip_x,right_hip_y,right_hip_z,right_hip_visibility,left_knee_x,left_knee_y,left_knee_z,left_knee_visibility,right_knee_x,right_knee_y,right_knee_z,right_knee_visibility,left_ankle_x,left_ankle_y,left_ankle_z,left_ankle_visibility,right_ankle_x,right_ankle_y,right_ankle_z,right_ankle_visibility,left_wrist_x,left_wrist_y,left_wrist_z,left_wrist_visibility,right_wrist_x,right_wrist_y,right_wrist_z,right_wrist_visibility,trunk_lateral_inclination,center_mass_x,center_mass_y,left_knee_angle,right_knee_angle,person_height,center_mass_velocity_x,center_mass_velocity_y,center_mass_acceleration_x,center_mass_acceleration_y,body_orientation,torso_leg_ratio,frame,timestamp
0.507422149181366,0.2038608193397522,0.04729689285159111,0.999262273311615,0.4557952284812927,0.31422507762908936,-0.056885987520217896,0.9997524619102478,0.5396238565444946,0.31174391508102417,-0.08570640534162521,0.9994910955429077,0.47550544142723083,0.5302600860595703,-0.00042622716864570975,0.999940037727356,0.5204576849937439,0.5323861837387085,0.0003607017861213535,0.9994378685951233,0.471405565738678,0.6998188495635986,0.02510855719447136,0.9731259942054749,0.5149857401847839,0.6615370512008667,0.11814118921756744,0.6535898447036743,0.4706045985221863,0.8607879877090454,0.05981181189417839,0.9347789287567139,0.5168588757514954,0.7700391411781311,0.22483758628368378,0.43956056237220764,0.4525752067565918,0.5423747301101685,0.011241170577704906,0.35065513849258423,0.557081401348114,0.5569758415222168,-0.01374865509569645,0.8639050722122192,-179.92861717031698,0.49798156321048737,0.5313231348991394,176.2060687019633,176.66326877651514,0.6190431902414142,0.0,0.0,0.0,0.0,-1.695347455314238,0.5064768432956449,0,1761939716.3906684
0.512125551700592,0.20372842252254486,0.0302291177213192,0.9993013739585876,0.4567342698574066,0.3109939694404602,-0.056925706565380096,0.9997411966323853,0.5416957139968872,0.30927976965904236,-0.08456064760684967,0.9995120167732239,0.4763876497745514,0.5295990705490112,-0.0015466068871319294,0.9999398589134216,0.5223944187164307,0.5321585536003113,0.0014568731421604753,0.9994550347328186,0.47336727380752563,0.6905462741851807,0.024682458490133286,0.973872721195221,0.5164164900779724,0.6615353226661682,0.11915703117847443,0.6666525602340698,0.47165364027023315,0.857699990272522,0.054985255002975464,0.9375003576278687,0.5169957876205444,0.7658432126045227,0.23954060673713684,0.4545353651046753,0.4525302052497864,0.5406251549720764,-0.007809189148247242,0.34066981077194214,0.5579972267150879,0.5483396053314209,-0.026454949751496315,0.8614422678947449,-179.95430646481103,0.49939103424549103,0.5308788120746613,178.7714270308992,172.8500301518527,0.619459676388357,0.0327071392214575,-0.010310625843716113,0.7589776089645035,-0.2392607343860063,-1.1558547488730386,0.3098420170830248,1,1761939716.433762
0.5151270031929016,0.203683540225029,0.04717216640710831,0.9993339776992798,0.45879077911376953,0.30914029479026794,-0.06249895691871643,0.9997456669807434,0.5446591973304749,0.3076971173286438,-0.07939863204956055,0.9995378851890564,0.4776904582977295,0.5272825360298157,-0.004318089224398136,0.9999414682388306,0.5237025618553162,0.5296453833580017,0.004206791985780001,0.9994831085205078,0.4758734107017517,0.6783720850944519,0.03355928510427475,0.9736029505729675,0.516388475894928,0.6532285809516907,0.13319283723831177,0.6806013584136963,0.4725606441497803,0.8413127660751343,0.08006711304187775,0.9399855136871338,0.5174807906150818,0.7653796076774597,0.23634286224842072,0.4858418107032776,0.4525885581970215,0.5308423638343811,-0.00843518041074276,0.3356444835662842,0.5607605576515198,0.5425605773925781,-0.02506856620311737,0.859634518623352,179.73220495787749,0.5006965100765228,0.5284639596939087,178.02556337261538,175.4254673969998,0.6101867254455595,0.03504741315855165,-0.06483025353158424,0.062828085842618,-1.4636593580724688,-0.9628708091696097,0.9255347007977464,2,1761939716.471011
0.519201934337616,0.20108580589294434,0.07398208230733871,0.999381422996521,0.46657460927963257,0.2967647910118103,-0.06201247498393059,0.9997602105140686,0.5485264658927917,0.3056018352508545,-0.06640560925006866,0.9995710253715515,0.48040589690208435,0.5218222737312317,-0.006999681703746319,0.9999449849128723,0.5262224078178406,0.5246099233627319,0.006826167460530996,0.9995220899581909,0.47829684615135193,0.6679370403289795,0.05549982190132141,0.9736601710319519,0.5195913314819336,0.6505646109580994,0.14525693655014038,0.6976582407951355,0.47411400079727173,0.8289196491241455,0.12036828696727753,0.9433323740959167,0.5178526043891907,0.7662052512168884,0.24822548031806946,0.5234416127204895,0.453287273645401,0.5199235677719116,-0.0019417137373238802,0.3455159366130829,0.5642264485359192,0.5374054312705994,0.0042504058219492435,0.861875593662262,178.9069292392635,0.5033141523599625,0.5232160985469818,178.5545328670614,173.80676610492893,0.6070361170658379,0.08265033235721438,-0.16569776195243865,1.5030308449072025,-3.1848251947065496,6.154545603091588,1.4303480760235208,3,1761939716.5026822
0.5217140913009644,0.1987142115831375,0.07028573751449585,0.9994148015975952,0.46974119544029236,0.2908470332622528,-0.08253399282693863,0.9997703433036804,0.5521755814552307,0.3028954267501831,-0.06727097928524017,0.9995985627174377,0.48266807198524475,0.516277015209198,-0.010058467276394367,0.999946117401123,0.5288128852844238,0.518846333026886,0.009870287030935287,0.9995539784431458,0.48201799392700195,0.652963399887085,0.07974804937839508,0.9736602902412415,0.521477222442627,0.6501151323318481,0.1445309817790985,0.7152286171913147,0.4762182831764221,0.8103340864181519,0.17244186997413635,0.946783185005188,0.5182604789733887,0.7692636847496033,0.24849657714366913,0.5604255795478821,0.45424437522888184,0.5150814056396484,-0.003551500616595149,0.3496750593185425,0.5688831210136414,0.5315809845924377,-0.0020353137515485287,0.8601203560829163,178.6455756106115,0.5057404786348343,0.517561674118042,176.7398960865512,175.2333116574184,0.6079732831619932,0.06934469459511025,-0.16160412521464199,-0.38027671569233545,0.11699662667207827,8.31532372850252,1.1571627877116353,4,1761939716.5376716
0.522698163986206,0.19553294777870178,0.06769828498363495,0.999442458152771,0.47287964820861816,0.2872069180011749,-0.07862742245197296,0.9997731447219849,0.5539754629135132,0.3008941113948822,-0.0710829496383667,0.9996201992034912,0.48569154739379883,0.506829559803009,-0.01015293039381504,0.9999454021453857,0.5314856767654419,0.5097631812095642,0.009970462881028652,0.9995811581611633,0.48531684279441833,0.6362429261207581,0.08757209777832031,0.9730451107025146,0.5219918489456177,0.6442645788192749,0.14403942227363586,0.7311354279518127,0.4776604175567627,0.7896997332572937,0.18431536853313446,0.9492232799530029,0.5182551741600037,0.769278883934021,0.24926145374774933,0.5926281809806824,0.4564734995365143,0.5098157525062561,-0.0025486801750957966,0.35034725069999695,0.5725759863853455,0.5264162421226501,0.0022348673082888126,0.8526157736778259,178.70614109206886,0.5085886120796204,0.5082963705062866,174.63813260436206,174.91768546334183,0.6031956422846034,0.06974630277270152,-0.2268926942905352,0.009834751809663794,-1.5988142390939546,9.57998550828754,0.8493025022270669,5,1761939716.5785072
0.5242518186569214,0.19397729635238647,0.06664951145648956,0.9994676113128662,0.47499895095825195,0.2844492495059967,-0.07538873702287674,0.999772310256958,0.5548132658004761,0.29823312163352966,-0.07236234098672867,0.9996424913406372,0.4883382320404053,0.4991312623023987,-0.0038435892201960087,0.9999441504478455,0.5330039262771606,0.502441942691803,0.003617835696786642,0.9996084570884705,0.4879608750343323,0.624187707901001,0.11243933439254761,0.9706705212593079,0.5242012739181519,0.6386832594871521,0.14149434864521027,0.7479936480522156,0.4774312973022461,0.7672020792961121,0.2209264487028122,0.949919581413269,0.5184601545333862,0.7689006328582764,0.25368258357048035,0.6235312223434448,0.4594362676143646,0.5037365555763245,0.009102921932935715,0.3472554385662079,0.5736821889877319,0.5175249576568604,0.01703421026468277,0.8450618982315063,178.84162545770957,0.510671079158783,0.5007866024971008,173.4045986834918,175.33599472462396,0.5994799139141401,0.051912584544795366,-0.18720654486668964,-0.44456616602386695,0.9893124399600198,9.798289462981293,0.5205073492328829,6,1761939716.618622
0.5284068584442139,0.19312350451946259,0.0542297288775444,0.9994796514511108,0.47859057784080505,0.2794812023639679,-0.07660405337810516,0.9997669458389282,0.5560228824615479,0.2951003909111023,-0.08665541559457779,0.9996557831764221,0.49151310324668884,0.49589067697525024,-0.00198771758005023,0.9999405145645142,0.5349715948104858,0.5006542205810547,0.0017615776741877198,0.9996302127838135,0.491455078125,0.61512690782547,0.12609592080116272,0.9674608111381531,0.52692711353302,0.6330179572105408,0.14690668880939484,0.7599302530288696,0.4853248596191406,0.7524685263633728,0.24827036261558533,0.9497637748718262,0.5207465887069702,0.7596845030784607,0.27188602089881897,0.648036777973175,0.46249786019325256,0.49339333176612854,0.008699236437678337,0.3471279442310333,0.5752649307250977,0.5062689781188965,0.024102414026856422,0.8242707848548889,178.89638230675544,0.5132423490285873,0.49827244877815247,174.26770968229832,176.92941927691191,0.5999444772806138,0.08290110384269472,-0.08105960443074463,0.9991103953790537,3.422316200646055,11.404335278329746,0.6601909928644472,7,1761939716.6496382
0.5302220582962036,0.19223816692829132,0.04728700593113899,0.9994818568229675,0.4814024567604065,0.2763592302799225,-0.07678534090518951,0.9997517466545105,0.5572863221168518,0.2917889356613159,-0.08936072885990143,0.9996568560600281,0.49384188652038574,0.4887858033180237,0.0008522673742845654,0.9999296069145203,0.536548912525177,0.4956924319267273,-0.001042287447489798,0.9996405839920044,0.4952542185783386,0.6069695949554443,0.12853702902793884,0.964425802230835,0.5283605456352234,0.62482750415802,0.14613986015319824,0.7744871973991394,0.4915701746940613,0.7387055158615112,0.25095218420028687,0.949273943901062,0.5208710432052612,0.7537879347801208,0.2618564963340759,0.672636866569519,0.46667036414146423,0.487678200006485,-0.003628351492807269,0.3463868498802185,0.5761369466781616,0.49606090784072876,0.022661088034510612,0.7957786917686462,178.8581745205328,0.5151953995227814,0.4922391176223755,175.36351104048921,173.1565366475228,0.5926479662183194,0.06615536038764386,-0.20436604078336362,-0.567225832881031,-4.176738778272039,11.493444438540365,0.7425122314711856,8,1761939716.6791604
0.5311572551727295,0.19144897162914276,0.04643912985920906,0.9994826316833496,0.4844109117984772,0.27607426047325134,-0.07728428393602371,0.999740481376648,0.5581368207931519,0.28927138447761536,-0.08818773925304413,0.9996606111526489,0.49451011419296265,0.47954636812210083,0.002384747378528118,0.999918520450592,0.5364218354225159,0.4880104064941406,-0.002569512464106083,0.999651312828064,0.4980226159095764,0.5979043245315552,0.13332179188728333,0.9554125666618347,0.5303813219070435,0.616779088973999,0.14354154467582703,0.7814952731132507,0.494771808385849,0.7251687049865723,0.2642495334148407,0.944351315498352,0.5207992792129517,0.7468212842941284,0.2655032277107239,0.690412700176239,0.46954622864723206,0.4832458794116974,-0.009460723027586937,0.3456748425960541,0.5766342282295227,0.4887414276599884,0.018966833129525185,0.7694770693778992,178.34576829128594,0.5154659748077393,0.4837783873081207,176.9705667298896,174.38849184650786,0.5871894418028789,0.007390866878105646,-0.23110806832908937,-1.605174503487637,-0.7304686592933141,10.1486066888343,0.9050189740448848,9,1761939716.7157698
0.530974268913269,0.1901858001947403,0.031110158190131187,0.9994292259216309,0.48294758796691895,0.2778909206390381,-0.07612469792366028,0.9997162818908691,0.5573934316635132,0.28502991795539856,-0.09281148761510849,0.9996606111526489,0.4953007698059082,0.47093674540519714,0.010163681581616402,0.9998930096626282,0.536153256893158,0.4783596396446228,-0.010340305976569653,0.9996463060379028,0.5008090734481812,0.5918732285499573,0.13027256727218628,0.9456077218055725,0.5319470167160034,0.6097157597541809,0.11410846561193466,0.7911386489868164,0.49817004799842834,0.7140816450119019,0.24537751078605652,0.9389607310295105,0.5220850706100464,0.7413992881774902,0.22756969928741455,0.7054784297943115,0.4718084931373596,0.4753822386264801,-0.01569359377026558,0.3313772976398468,0.5755249857902527,0.4727504253387451,0.025595352053642273,0.7299420237541199,178.68237670101706,0.5157270133495331,0.47464819252491,176.82142092952415,176.65649169898217,0.5758244089743062,0.0064530435910130374,-0.22570439033877926,-0.02318360541967652,0.13358245638228566,5.477639282808666,0.7107904622327536,10,1761939716.7562218
0.5317899584770203,0.19059953093528748,0.03663402795791626,0.9991690516471863,0.48404717445373535,0.27765345573425293,-0.04802178218960762,0.9996398687362671,0.5574035048484802,0.283356636762619,-0.09232304990291595,0.9996477961540222,0.4950370192527771,0.46956154704093933,0.018881741911172867,0.9997938275337219,0.535821259021759,0.4748513400554657,-0.0189998559653759,0.999580979347229,0.49990540742874146,0.5804668068885803,0.140326589345932,0.9095531105995178,0.5323648452758789,0.5985941290855408,0.10355959832668304,0.7846787571907043,0.5005074739456177,0.6995426416397095,0.2527927756309509,0.9050715565681458,0.5220246911048889,0.7245557904243469,0.2166304588317871,0.6989649534225464,0.488288551568985,0.4586337208747864,0.016956564038991928,0.30456337332725525,0.575346827507019,0.45941299200057983,0.020758572965860367,0.7028923034667969,178.41747232024042,0.5154291391372681,0.4722064435482025,175.48836694601286,176.30172869262512,0.5581807368083892,-0.009145962050891628,-0.07497172483968259,-0.478953557435092,4.628112074562408,4.445590406481873,1.0875057190276614,11,1761939716.7887907
0.5315191745758057,0.19230397045612335,0.04942464083433151,0.9988906383514404,0.486735999584198,0.2764926254749298,-0.0242139995098114,0.9995896220207214,0.5580853223800659,0.283512145280838,-0.07997278869152069,0.9996386170387268,0.49614325165748596,0.4709537625312805,0.025252576917409897,0.9996901154518127,0.5368557572364807,0.4759448170661926,-0.025433186441659927,0.9994990825653076,0.5031200647354126,0.5758131146430969,0.15933595597743988,0.8715623021125793,0.5332528352737427,0.6049308776855469,0.09588395059108734,0.7845632433891296,0.5022565126419067,0.6892921924591064,0.2317034751176834,0.8749732971191406,0.5220915675163269,0.7252745628356934,0.17096281051635742,0.7026606202125549,0.4946363866329193,0.4555903971195221,0.028403649106621742,0.28049054741859436,0.5733686089515686,0.44815734028816223,0.027410928159952164,0.674884557723999,178.24975763613602,0.5164995044469833,0.4734492897987366,160.36251373440334,168.23559463081983,0.5372654995757667,0.03142939401576567,0.036493993363296506,1.191423938700137,3.272994691488694,5.618816246529931,0.9829957725184751,12,1761939716.822847
0.5317785739898682,0.19682765007019043,0.05330889672040939,0.9986990094184875,0.48790058493614197,0.27727916836738586,-0.0203606728464365,0.999539852142334,0.5594182014465332,0.28458723425865173,-0.07486682385206223,0.9996441006660461,0.49699729681015015,0.46934857964515686,0.031777240335941315,0.9994897246360779,0.5371444225311279,0.4749094545841217,-0.03191126883029938,0.999402642250061,0.504054844379425,0.5758290886878967,0.14419487118721008,0.8265917897224426,0.5336629748344421,0.6050939559936523,0.06676166504621506,0.7924382090568542,0.507891058921814,0.6799001693725586,0.2313959151506424,0.8341835737228394,0.5227624773979187,0.7287989854812622,0.15652453899383545,0.7113127708435059,0.49785441160202026,0.44493305683135986,0.0407283790409565,0.2575395703315735,0.573210597038269,0.4464409649372101,0.030611734837293625,0.6522933840751648,178.02639065106632,0.517070859670639,0.4721290171146393,173.31314564910835,176.86041688015942,0.5269079287624047,0.01686100303245643,-0.038961964131176606,-0.42992113203398247,-2.2267462962723905,5.834548220930993,1.8647805697582422,13,1761939716.856733
0.531415581703186,0.1985875517129898,0.06628791242837906,0.9985485672950745,0.49020594358444214,0.2769934833049774,-0.017582176253199577,0.9994897842407227,0.5591632723808289,0.2846297323703766,-0.06556827574968338,0.9996484518051147,0.49766412377357483,0.467194527387619,0.03068261407315731,0.9992819428443909,0.5373912453651428,0.4740231931209564,-0.030812595039606094,0.9993211627006531,0.5061565041542053,0.5772950649261475,0.13837453722953796,0.780925452709198,0.5330737829208374,0.6081032752990723,0.06316488981246948,0.795108437538147,0.5118182897567749,0.6821291446685791,0.2270883023738861,0.7875139117240906,0.5226697325706482,0.7321897745132446,0.1506558358669281,0.7171167731285095,0.4962683320045471,0.4372837543487549,0.058970820158720016,0.2390470951795578,0.5711824893951416,0.44633424282073975,0.04787039756774902,0.6265600323677063,177.84049922165576,0.5175276845693588,0.4706088602542877,175.76467176313292,177.53121143597883,0.5233288587170027,0.013435587016429308,-0.0447090336650048,-0.10074423500071256,-0.16902592881344178,6.319116895817154,3.0170843298184664,14,1761939716.8907342
0.5286376476287842,0.20013362169265747,0.07420368492603302,0.9984680414199829,0.4909537732601166,0.2774519920349121,-0.014658106490969658,0.9994153380393982,0.558904767036438,0.284665584564209,-0.05941615253686905,0.9996490478515625,0.49827370047569275,0.46686241030693054,0.031601227819919586,0.9990136623382568,0.5372822880744934,0.474295973777771,-0.031710416078567505,0.999226450920105,0.5076262950897217,0.5776123404502869,0.13816463947296143,0.7372729778289795,0.5328201055526733,0.6110347509384155,0.056114889681339264,0.8036390542984009,0.5122984647750854,0.6765540838241577,0.22496795654296875,0.7477626204490662,0.5226019620895386,0.7326644659042358,0.13540014624595642,0.7319579124450684,0.4999122619628906,0.43002721667289734,0.06851746886968613,0.22081246972084045,0.5703156590461731,0.44564881920814514,0.04704615846276283,0.5949603915214539,177.8390525812756,0.5177779942750931,0.47057919204235077,176.9418342472294,177.46164012947767,0.5156090392957965,0.008244724711203952,-0.0009772143648057547,-0.17097711251270964,1.4404427914315494,6.059752493018968,2.577977531846722,15,1761939716.9210942
0.5296902656555176,0.20112501084804535,0.07575656473636627,0.9984775185585022,0.4915827214717865,0.2770181894302368,-0.004201624542474747,0.9993845224380493,0.5588499903678894,0.28307926654815674,-0.06289417296648026,0.9996662735939026,0.4988704323768616,0.46392613649368286,0.035937804728746414,0.998845636844635,0.5371130704879761,0.4710386395454407,-0.03606079891324043,0.9991844296455383,0.507990300655365,0.576318621635437,0.13489043712615967,0.7009211778640747,0.5332079529762268,0.6107460856437683,0.038831911981105804,0.8113619685173035,0.513541042804718,0.6818398833274841,0.2140079289674759,0.7179989218711853,0.5227141380310059,0.7343016862869263,0.10384663194417953,0.7452495694160461,0.4992291331291199,0.4348177909851074,0.060573458671569824,0.20576216280460358,0.5696266293525696,0.44487541913986206,0.04039311036467552,0.5853353142738342,177.79263484040086,0.5179917514324188,0.46748238801956177,175.3439239197664,177.02931382593837,0.5138531708056209,0.006034857031313104,-0.08742991236100267,-0.06238965596804678,-2.4407588447823207,5.148698300787587,2.92194060053311,16,1761939716.9565146
0.5294190645217896,0.2027442455291748,0.07081436365842819,0.9983969330787659,0.49199825525283813,0.277551531791687,-0.016312872990965843,0.9993187189102173,0.558809220790863,0.28350603580474854,-0.06310699880123138,0.9996744990348816,0.4997832775115967,0.4617130160331726,0.03312229365110397,0.9986510276794434,0.5371680855751038,0.4687366187572479,-0.03324542194604874,0.9991327524185181,0.5078770518302917,0.5656391978263855,0.13335372507572174,0.6683301329612732,0.5337255597114563,0.6033831834793091,0.046179719269275665,0.8180763721466064,0.5128850340843201,0.6690112352371216,0.21331730484962463,0.691425621509552,0.5226885676383972,0.726331353187561,0.1158624067902565,0.7558738589286804,0.498656690120697,0.431171715259552,0.058289967477321625,0.19105838239192963,0.5691035985946655,0.4482773542404175,0.03862353786826134,0.5654652714729309,177.85180888238048,0.5184756815433502,0.46522481739521027,173.6583486528359,176.60230788991547,0.5038669824529378,0.01374927180848902,-0.06414139446980884,0.21917955344971787,0.6616661275460005,5.093009883050734,2.2974780961685677,17,1761939716.9917114
0.526856005191803,0.20512637495994568,0.07817570865154266,0.9984683990478516,0.4917706549167633,0.2803812325000763,-0.016570772975683212,0.9993236660957336,0.5585053563117981,0.28375717997550964,-0.0539490282535553,0.9996948838233948,0.4999704360961914,0.4617767632007599,0.03185000270605087,0.9986346960067749,0.5371066331863403,0.46793875098228455,-0.03197519853711128,0.9991730451583862,0.5079518556594849,0.5669307708740234,0.13671046495437622,0.6523661613464355,0.5334588289260864,0.5997479557991028,0.04082963615655899,0.8292784094810486,0.512234091758728,0.6699473261833191,0.23234868049621582,0.6715289354324341,0.5223528146743774,0.7266072630882263,0.09629710018634796,0.7662756443023682,0.4874112606048584,0.4528811573982239,0.01956881955265999,0.20140600204467773,0.5691713094711304,0.4541722536087036,0.041358791291713715,0.556544303894043,177.93226838902714,0.5185385346412659,0.4648577570915222,177.49614837800323,173.79348480542188,0.5007101046418759,0.0017238729843192132,-0.01006736918509606,-0.3298208178453024,1.483089210126283,2.8959865056291876,1.9336904381021423,18,1761939717.0281718
0.5263773202896118,0.20567037165164948,0.07390202581882477,0.9985734820365906,0.4911987781524658,0.2818529009819031,-0.031734663993120193,0.9993475675582886,0.5584007501602173,0.28358933329582214,-0.05713838338851929,0.9997180104255676,0.4997634291648865,0.46002089977264404,0.02995602786540985,0.9986720681190491,0.5370507836341858,0.46526607871055603,-0.030085723847150803,0.9992310404777527,0.5075368285179138,0.5636228919029236,0.1483091413974762,0.6440003514289856,0.5332607626914978,0.5946213006973267,0.03773558884859085,0.8420730233192444,0.5126157999038696,0.6644430160522461,0.25860148668289185,0.6612346172332764,0.5216808319091797,0.7208284735679626,0.09473428875207901,0.7806693315505981,0.4819185137748718,0.46450796723365784,0.005730854347348213,0.21373984217643738,0.5698428750038147,0.4637259542942047,0.029515590518712997,0.5557387471199036,177.9651318739795,0.5184071063995361,0.46264348924160004,178.3950253268073,175.2626754071406,0.49777632682664896,-0.004435370318220219,-0.07472593233294444,-0.20785886326438713,-2.1820627593456416,1.4801367756577681,1.9660764790816359,19,1761939717.0578036
0.5254752039909363,0.20548397302627563,0.07406273484230042,0.9986798763275146,0.49088042974472046,0.28158438205718994,-0.044836003333330154,0.9993804097175598,0.5582624673843384,0.28088656067848206,-0.05227344483137131,0.9997374415397644,0.4995575547218323,0.4581170082092285,0.02544369362294674,0.9987239241600037,0.5370011925697327,0.4638805389404297,-0.02556380070745945,0.9992833733558655,0.5070379972457886,0.562080442905426,0.14439354836940765,0.6478343605995178,0.5331332087516785,0.5912865400314331,0.04737355560064316,0.8547695875167847,0.5122780799865723,0.6642201542854309,0.2523459196090698,0.6646537780761719,0.5217065811157227,0.7210962772369385,0.10811152309179306,0.7965103387832642,0.47960034012794495,0.4659862220287323,-0.006254659034311771,0.24648991227149963,0.5699102282524109,0.4660806357860565,0.0243394635617733,0.5609989166259766,177.99535157547126,0.5182793736457825,0.4609987735748291,177.57876355312604,174.363042175687,0.49868017668378617,-0.0033817050231653894,-0.0435435944857536,0.02789562673872757,0.8255476017940486,-0.5933449324531274,2.0334585998254924,20,1761939717.0955753
0.5250361561775208,0.20532898604869843,0.0731622576713562,0.9987758994102478,0.4906708598136902,0.2784020006656647,-0.059237290173769,0.99941486120224,0.5574824810028076,0.27644094824790955,-0.047905828803777695,0.999752402305603,0.49959444999694824,0.4556932747364044,0.013932710513472557,0.9987725615501404,0.5369625091552734,0.4622156322002411,-0.014045645482838154,0.9993287920951843,0.5063813924789429,0.5529388785362244,0.13529717922210693,0.6603944301605225,0.5330328941345215,0.5846282839775085,0.052607376128435135,0.8660258650779724,0.5121618509292603,0.656140148639679,0.24329915642738342,0.6750481128692627,0.5217127203941345,0.7179675698280334,0.11556913703680038,0.8110300898551941,0.47653430700302124,0.4666558504104614,-0.025782853364944458,0.2892225980758667,0.5695396661758423,0.4657154381275177,0.023117611184716225,0.5687150359153748,178.1705860655187,0.5182784795761108,0.45895445346832275,174.9743925687774,175.66153531156004,0.49337425911109883,-2.0064312810662443e-05,-0.0458777200520067,0.07544044151121018,-0.05238140492478632,-1.6812610461764552,2.0925617894979447,21,1761939717.1401355
0.5220693349838257,0.20322905480861664,0.07252348959445953,0.9988538026809692,0.4900595247745514,0.2772950828075409,-0.07082093507051468,0.9994479417800903,0.5548908710479736,0.2718941867351532,-0.0457732267677784,0.9997589588165283,0.4994688630104065,0.45330479741096497,0.0039480035193264484,0.9988269805908203,0.5361026525497437,0.45790112018585205,-0.0040542082861065865,0.9993592500686646,0.5061606168746948,0.556475818157196,0.11685065925121307,0.6746930480003357,0.533004879951477,0.5774535536766052,0.07140421867370605,0.8730409145355225,0.5123975872993469,0.6614164710044861,0.22186334431171417,0.686257541179657,0.5216134786605835,0.707368791103363,0.14404281973838806,0.8216285705566406,0.47621577978134155,0.466424822807312,-0.0445920005440712,0.3352137506008148,0.5686084032058716,0.46406984329223633,0.015231138095259666,0.5803576111793518,178.51595201163514,0.5177857577800751,0.4556029587984085,177.38553896768218,175.60442159642122,0.4936990217534314,-0.01181488934751911,-0.0803649016390631,-0.2828260364766019,-0.826962065890205,-4.7621355000906345,1.8188705532303944,22,1761939717.181839
0.5213302373886108,0.2009853571653366,0.04536027833819389,0.9989351630210876,0.4899446964263916,0.2730857729911804,-0.0911397933959961,0.9994734525680542,0.5541951060295105,0.26790013909339905,-0.0537547767162323,0.9997636079788208,0.4993821978569031,0.4465806186199188,-0.00035569554893299937,0.998897135257721,0.5359233617782593,0.4490245282649994,0.00018450096831656992,0.9993948936462402,0.5051740407943726,0.5505003333091736,0.12094666808843613,0.6955428719520569,0.5329655408859253,0.5614925622940063,0.10113487392663956,0.8806571364402771,0.5120619535446167,0.6558661460876465,0.22344741225242615,0.709312379360199,0.5210837721824646,0.6812384724617004,0.18398353457450867,0.8347019553184509,0.47603854537010193,0.46030116081237793,-0.06021805480122566,0.37320879101753235,0.5678716897964478,0.4585208594799042,-0.02931237779557705,0.5867395997047424,178.57294780163275,0.5176527798175812,0.4478025734424591,174.73976373957234,171.93684591328878,0.4936778859990739,-0.003709356690143187,-0.2175880203241489,0.22609995841372188,-3.8277732925874726,-4.614325517416909,1.7683141594688834,23,1761939717.2176883
0.5209311246871948,0.19915145635604858,0.05185241252183914,0.9990054368972778,0.48985305428504944,0.26990148425102234,-0.07449662685394287,0.9995065927505493,0.5530182719230652,0.26544997096061707,-0.05249316617846489,0.9997744560241699,0.49933117628097534,0.44411689043045044,-0.0016482658684253693,0.9989877939224243,0.535386860370636,0.4458325207233429,0.0014168454799801111,0.9994345307350159,0.5042048096656799,0.5446122288703918,0.12797020375728607,0.7095679044723511,0.5325862169265747,0.5527536869049072,0.13208909332752228,0.8811009526252747,0.5118207335472107,0.650756299495697,0.19902119040489197,0.7303903698921204,0.5192416906356812,0.6577038764953613,0.20439937710762024,0.8438259959220886,0.4759843945503235,0.4546918272972107,-0.041521020233631134,0.39933863282203674,0.5665436387062073,0.4529676139354706,-0.019956573843955994,0.5995123386383057,178.6828271996139,0.5173590183258057,0.44497470557689667,161.51636843233314,163.11801284415918,0.4791483085661629,-0.006680501637424364,-0.06430923192869072,-0.06756753094277274,3.485750261783078,-4.031204808011346,1.4227630838918888,24,1761939717.2616613
0.5206217765808105,0.19834880530834198,0.052130572497844696,0.9990673661231995,0.48978471755981445,0.26903024315834045,-0.07321806252002716,0.9995294213294983,0.5520588755607605,0.26395341753959656,-0.058222897350788116,0.9997820854187012,0.4992932379245758,0.44067445397377014,0.0006408380577340722,0.9990735650062561,0.5342051386833191,0.4416583180427551,-0.0009083080221898854,0.9994732141494751,0.503940224647522,0.5409021377563477,0.14167173206806183,0.7246988415718079,0.5325734615325928,0.5426146984100342,0.13950946927070618,0.8825721144676208,0.511400043964386,0.6429336667060852,0.20625047385692596,0.7507373094558716,0.518945574760437,0.6453580856323242,0.21135732531547546,0.8526204824447632,0.4762006402015686,0.4477007985115051,-0.03448205813765526,0.41351476311683655,0.5655574202537537,0.44858288764953613,-0.025757860392332077,0.6076976656913757,178.63158441636918,0.5167491883039474,0.44116638600826263,157.65867536851616,159.89990607875038,0.47255819858807574,-0.016004332999624577,-0.09994525090727067,-0.24469392552747965,-0.9352289885241761,-4.660662431816417,1.352532459839283,25,1761939717.2997653
0.5208804607391357,0.1978217214345932,0.053285907953977585,0.9991240501403809,0.48986750841140747,0.2668765187263489,-0.06896170973777771,0.9995500445365906,0.5515211224555969,0.26345744729042053,-0.0625443384051323,0.9997862577438354,0.4992563724517822,0.4351681172847748,0.0023500099778175354,0.9991579651832581,0.5335319638252258,0.4354877173900604,-0.0026289778761565685,0.9995113611221313,0.5039156675338745,0.5400003790855408,0.13922977447509766,0.7398905754089355,0.5325742363929749,0.5361489057540894,0.13596192002296448,0.8793073296546936,0.5105456113815308,0.6425394415855408,0.17506608366966248,0.7703201174736023,0.518539309501648,0.6341303586959839,0.18904517590999603,0.8606480956077576,0.4760245382785797,0.44357824325561523,-0.028314733877778053,0.4250076413154602,0.5650603175163269,0.4462985098361969,-0.031346745789051056,0.6260060667991638,178.5523829895577,0.516394168138504,0.4353279173374176,146.68472337275014,153.5977228038433,0.4589920174940601,-0.008878476114383839,-0.14601059231081112,0.17820607477636463,-1.1520191616198532,-3.1741515084660405,1.1611062883889522,26,1761939717.339752
0.5221866369247437,0.1967082917690277,0.04826086759567261,0.9991968274116516,0.48980435729026794,0.2669762074947357,-0.06923235952854156,0.9995813369750977,0.5512465238571167,0.26422399282455444,-0.06974178552627563,0.9997950792312622,0.4991671144962311,0.4333816170692444,0.00017076177755370736,0.9992376565933228,0.5330319404602051,0.43440520763397217,-0.0004399764002300799,0.9995505213737488,0.5035288333892822,0.5385385751724243,0.12714388966560364,0.7623011469841003,0.5325334668159485,0.5303053259849548,0.1389564424753189,0.8854359984397888,0.5091038346290588,0.6449839472770691,0.21543677151203156,0.790217399597168,0.5195530652999878,0.6247313618659973,0.2483835518360138,0.8696823716163635,0.4758060872554779,0.44261106848716736,-0.026306550949811935,0.4436132609844208,0.5642319321632385,0.44482219219207764,-0.01938570663332939,0.6450678706169128,178.4935366744322,0.5160995274782181,0.4338934123516083,169.26897350522006,171.99785017838684,0.4751459548833597,-0.007808205546183445,-0.038015492414908605,0.028362998434869207,2.8619537342519066,-2.564768689546271,1.194997686220421,27,1761939717.3774867
0.5245742797851562,0.19676508009433746,0.04776493459939957,0.9992586970329285,0.4900307059288025,0.2647894322872162,-0.06804107129573822,0.9996068477630615,0.5509289503097534,0.2645060122013092,-0.06922797858715057,0.9997990727424622,0.4990379810333252,0.43034812808036804,-0.0025624874979257584,0.9993088245391846,0.5327761769294739,0.4311571419239044,0.0022951788268983364,0.9995840191841125,0.5032374858856201,0.5341712236404419,0.11745909601449966,0.783462405204773,0.5323957800865173,0.5208156704902649,0.13762475550174713,0.8915345072746277,0.5078129768371582,0.6421778798103333,0.21348242461681366,0.8087065815925598,0.5205851197242737,0.6206938624382019,0.24507355690002441,0.8782055974006653,0.4760643541812897,0.43641743063926697,-0.024659734219312668,0.4573761522769928,0.5636939406394958,0.4419816732406616,-0.01682388409972191,0.6604222059249878,178.42308655574993,0.5159070789813995,0.43075263500213623,172.47806154438007,169.60313139412074,0.4711616830341186,-0.0049840848888257705,-0.08134072848295493,0.0731398650820789,-1.1220490570792203,-0.2666523095397498,1.2636844264317453,28,1761939717.4160993
0.5267837047576904,0.19689767062664032,0.044363945722579956,0.9993062615394592,0.4902411103248596,0.2642681896686554,-0.06803041696548462,0.9996230006217957,0.5505837202072144,0.2644921541213989,-0.06772137433290482,0.9997971057891846,0.4992500841617584,0.42977195978164673,-0.0036927207838743925,0.9993698000907898,0.5328112244606018,0.4308420419692993,0.003453310579061508,0.9996084570884705,0.5031307935714722,0.5333126783370972,0.11482000350952148,0.8029679656028748,0.5323914289474487,0.5187302231788635,0.1341039091348648,0.8977355360984802,0.5067811608314514,0.638931155204773,0.21717584133148193,0.8254324197769165,0.5212287306785583,0.619266927242279,0.2496482878923416,0.8855237364768982,0.4761268198490143,0.43517574667930603,-0.0240950770676136,0.45926517248153687,0.5633423328399658,0.4382677674293518,-0.00819323118776083,0.6649363040924072,178.48729662560243,0.5160306543111801,0.430307000875473,175.21568874582334,171.8335774002412,0.47191155175845206,0.0037445184548364025,-0.013503384650951097,0.26448981656229004,2.0555736032188427,0.21265502113519497,1.1662411330191889,29,1761939717.449101
0.5285497903823853,0.1970468908548355,0.03669191524386406,0.9993611574172974,0.4903516173362732,0.26333385705947876,-0.0678630992770195,0.9996468424797058,0.5502226948738098,0.26440003514289856,-0.07383904606103897,0.9998036623001099,0.499624639749527,0.42774462699890137,-0.002712205983698368,0.9994267225265503,0.5329427123069763,0.4296703636646271,0.0024965531192719936,0.9996339082717896,0.5030346512794495,0.5326263904571533,0.11829398572444916,0.82076495885849,0.5318837761878967,0.5172834396362305,0.14024925231933594,0.90372633934021,0.5058157444000244,0.6374911069869995,0.2328568398952484,0.8409310579299927,0.5216661691665649,0.617794394493103,0.26238223910331726,0.893549382686615,0.4763495922088623,0.43090397119522095,-0.014479552395641804,0.4805651009082794,0.5631439089775085,0.43607795238494873,4.5389933802653104e-05,0.6838591694831848,178.60873172421196,0.5162836760282516,0.4287074953317642,178.35373204954405,172.2428668053714,0.4797109116716953,0.007047889119852302,-0.04455403215630541,0.09201498763927324,-0.8649120053812841,1.0202096028312773,1.0764193305822873,30,1761939717.4850013
0.5281559228897095,0.19708019495010376,0.04034210741519928,0.999404788017273,0.4904112219810486,0.26360252499580383,-0.06814868748188019,0.9996671676635742,0.5494474768638611,0.26373720169067383,-0.07196690142154694,0.9998078346252441,0.5001810193061829,0.4235441982746124,-0.005933121312409639,0.9994785189628601,0.5335723161697388,0.42572933435440063,0.005714562721550465,0.9996570348739624,0.5031799077987671,0.5292364954948425,0.09945328533649445,0.8362468481063843,0.5318998098373413,0.5146223306655884,0.13486652076244354,0.9041395783424377,0.5059166550636292,0.6348639726638794,0.20039770007133484,0.8531327843666077,0.5233812928199768,0.6159687042236328,0.24505777657032013,0.8947159647941589,0.4776863157749176,0.4330691993236542,-0.015108168125152588,0.48298555612564087,0.5631899237632751,0.4338684380054474,-0.005334918387234211,0.691037118434906,178.91353558245038,0.5168766677379608,0.42463676631450653,178.6642371337536,171.49925454849088,0.46574543245612204,0.014155795926033431,-0.09717574174307489,0.1696787266366881,-1.2561763849188425,0.1307060016676115,1.0556027695166206,31,1761939717.5268917
0.5281113386154175,0.19710320234298706,0.0420423224568367,0.9994480013847351,0.49052852392196655,0.26357895135879517,-0.06296853721141815,0.999687910079956,0.5494908094406128,0.26397180557250977,-0.06994988024234772,0.9998123645782471,0.5007452368736267,0.42213231325149536,-0.005714298225939274,0.9995277523994446,0.5338829755783081,0.4238899350166321,0.005513058975338936,0.9996808767318726,0.5039927363395691,0.5286036133766174,0.08320625126361847,0.8503300547599792,0.5321870446205139,0.5101876854896545,0.13418710231781006,0.9015823006629944,0.5059942007064819,0.6352375745773315,0.168600931763649,0.8643617033958435,0.5274196863174438,0.6015231609344482,0.24096152186393738,0.8931552171707153,0.47948122024536133,0.4296489655971527,-0.008429142646491528,0.47900184988975525,0.5632882714271545,0.4328354001045227,-0.004314698278903961,0.6981527209281921,179.0301832868169,0.5173141062259674,0.4230111241340637,178.59037140080062,173.15639435366955,0.451761509335743,0.011822528368268779,-0.04393577913667674,-0.06306057342631023,1.4389016638842858,0.3817449602207041,1.9477339215277996,32,1761939717.5638921
0.5279511213302612,0.19713348150253296,0.041318684816360474,0.999488353729248,0.4906248450279236,0.2639901638031006,-0.05803236365318298,0.9997042417526245,0.5490332841873169,0.2640100121498108,-0.07041063904762268,0.9998188018798828,0.5009430646896362,0.42311710119247437,-0.004678461700677872,0.9995731115341187,0.5339003205299377,0.42430949211120605,0.004466360434889793,0.9997052550315857,0.5039995908737183,0.5304356217384338,0.09615664184093475,0.8638575077056885,0.532131552696228,0.503248393535614,0.15350106358528137,0.8995694518089294,0.5060209035873413,0.6345515847206116,0.17354808747768402,0.8756477236747742,0.5307230353355408,0.5872262716293335,0.2597653269767761,0.8926677107810974,0.4819197654724121,0.4271654486656189,-0.003493143245577812,0.4656825661659241,0.5633147954940796,0.4322945773601532,-0.014858895912766457,0.7058157324790955,179.136440800493,0.517421692609787,0.4237132966518402,173.37674205759842,169.57725931548254,0.44947608602081435,0.00330392443988871,0.021563369453799972,-0.26160209790027994,2.011446338626672,0.019470242132802053,7.831458017167793,33,1761939717.5964553
0.5280044078826904,0.19747336208820343,0.04240304231643677,0.9995080232620239,0.49092769622802734,0.2642183005809784,-0.036212049424648285,0.9997081756591797,0.5490046739578247,0.2641347348690033,-0.06997062265872955,0.9998176097869873,0.5013740062713623,0.42278292775154114,-0.0005247423541732132,0.9996129870414734,0.5339471101760864,0.42278343439102173,0.00031212344765663147,0.9997230768203735,0.5039868950843811,0.5313495993614197,0.08393553644418716,0.8755846619606018,0.5310476422309875,0.5069831013679504,0.15150858461856842,0.89080411195755,0.5061013102531433,0.6360701322555542,0.15252552926540375,0.8848679661750793,0.5292658805847168,0.5897724628448486,0.246567964553833,0.8823782205581665,0.48427096009254456,0.420957088470459,0.02120281010866165,0.4491298496723175,0.5634137392044067,0.4299708604812622,-0.006584989372640848,0.7133076190948486,179.16716371221446,0.5176605582237244,0.42278318107128143,175.3011879831097,168.04769530411752,0.4442945533571368,0.005090698915169838,-0.019822603592388403,0.038079699848934404,-0.8820169827571459,-0.08244160579726341,13.779187812138037,34,1761939717.6433773
0.5279852151870728,0.19792386889457703,0.04440569132566452,0.9995293617248535,0.4923848509788513,0.2641987204551697,-0.03200218454003334,0.99970942735672,0.5495083928108215,0.26472628116607666,-0.06384214013814926,0.9998140335083008,0.5023928284645081,0.4206894338130951,0.0015700766816735268,0.9996492862701416,0.5341854691505432,0.42048513889312744,-0.001808428787626326,0.9997401833534241,0.5044012069702148,0.5302855968475342,0.08295650035142899,0.8866458535194397,0.5312486290931702,0.5014267563819885,0.14241914451122284,0.8881061673164368,0.5061607956886292,0.635399341583252,0.14346320927143097,0.8946087956428528,0.5341436862945557,0.5726951360702515,0.2442236691713333,0.8820319771766663,0.48691001534461975,0.4173453450202942,0.023349903523921967,0.4293035864830017,0.5639058351516724,0.4276871681213379,-0.00677771121263504,0.718643069267273,179.02483587648072,0.5182891488075256,0.42058728635311127,173.2995584761472,173.81540734037205,0.4328154197645425,0.014463059267548768,-0.050524707611963225,0.21564593353204947,-0.7064158476385072,0.5291363570980337,1.1413679000206394,35,1761939717.686839
0.5287854671478271,0.199027419090271,0.04488802328705788,0.999535083770752,0.4940144419670105,0.26459720730781555,-0.039919205009937286,0.999708354473114,0.5499745011329651,0.2647472321987152,-0.06411649286746979,0.9998037815093994,0.5045374631881714,0.42034438252449036,0.000983316684141755,0.9996805787086487,0.5356605648994446,0.41968002915382385,-0.0011812325101345778,0.9997496604919434,0.5057166814804077,0.5269086360931396,0.06730947643518448,0.8958597779273987,0.5316089987754822,0.5029283165931702,0.1288309544324875,0.8830190896987915,0.5065430402755737,0.6318150162696838,0.13408777117729187,0.9013206958770752,0.5338650345802307,0.5797337293624878,0.235112264752388,0.8737313151359558,0.48819947242736816,0.4199902415275574,0.01674158312380314,0.4170459806919098,0.5644084215164185,0.424571692943573,-0.014015300199389458,0.7179232239723206,179.30091196275913,0.520099014043808,0.4200122058391571,179.11550955575893,175.88904281949186,0.4301583042998388,0.058392820055230346,-0.01855418419858309,1.4173334927486403,1.0314850980748915,0.15360549300580073,1.2290629131774002,36,1761939717.7178338
0.5316425561904907,0.20099981129169464,0.05545419454574585,0.9995519518852234,0.4959185719490051,0.26406461000442505,-0.03507663682103157,0.9997168183326721,0.5506316423416138,0.26492050290107727,-0.05618331581354141,0.9997989535331726,0.505708634853363,0.4181872010231018,-0.0014420985244214535,0.9997093081474304,0.5369772911071777,0.41810640692710876,0.001275163027457893,0.9997603893280029,0.5063495635986328,0.519445538520813,0.07298092544078827,0.9046786427497864,0.5318286418914795,0.498121440410614,0.13614454865455627,0.8797455430030823,0.506666362285614,0.6276417970657349,0.12393434345722198,0.9080255031585693,0.5344582796096802,0.5706764459609985,0.2296592891216278,0.8692871928215027,0.49099111557006836,0.41570281982421875,0.010023819282650948,0.3961707055568695,0.5648372769355774,0.42258134484291077,-0.001477128709666431,0.7146048545837402,179.27956516958727,0.5213429629802704,0.4181468039751053,168.88196960162315,172.18504406587087,0.41638640681566924,0.04047303220001086,-0.06069257949159511,-0.5830369154414101,-1.3710117670914608,0.8962218856990621,1.3106229197572747,37,1761939717.748569
0.5332996845245361,0.20257869362831116,0.043612055480480194,0.9995444416999817,0.4962318539619446,0.2643895149230957,-0.0383312851190567,0.9997115731239319,0.5508792996406555,0.2649737298488617,-0.0670495331287384,0.9997899532318115,0.5064880847930908,0.4185660481452942,0.0015732176834717393,0.9997323751449585,0.5371872782707214,0.41857922077178955,-0.0017188135534524918,0.9997618198394775,0.5065551996231079,0.5198363661766052,0.07213929295539856,0.9099857211112976,0.5323524475097656,0.5000700950622559,0.12513244152069092,0.8682605028152466,0.5067113637924194,0.6266961693763733,0.13014067709445953,0.9110714793205261,0.5337984561920166,0.5780025720596313,0.22052082419395447,0.8556467294692993,0.4911137521266937,0.4181842505931854,-0.0004534210020210594,0.377594530582428,0.5649169087409973,0.4219391345977783,-0.01063450612127781,0.7104619741439819,179.36043009235394,0.5218376815319061,0.41857263445854187,173.58889412673162,172.97863669359668,0.4211134942731994,0.013331106128454041,0.011474789754000937,-0.7313893845181532,1.9446832047097706,0.6125039156522948,2.1417832470118823,38,1761939717.785679
0.5359293818473816,0.20348624885082245,0.04407525062561035,0.9995635747909546,0.4981721341609955,0.2644282281398773,-0.0366683155298233,0.9997155666351318,0.5516204833984375,0.2650299668312073,-0.06515227258205414,0.9997885227203369,0.5082091093063354,0.4187585711479187,0.0008692602859809995,0.9997552633285522,0.5383840203285217,0.4182658791542053,-0.00100962002761662,0.9997701644897461,0.5069839954376221,0.5177295207977295,0.06831245124340057,0.9177145957946777,0.5327321290969849,0.49950486421585083,0.12626907229423523,0.8718163967132568,0.5067305564880371,0.6265097856521606,0.12970979511737823,0.9172931909561157,0.5340442657470703,0.5804510116577148,0.22382354736328125,0.8572178483009338,0.49326103925704956,0.4174554944038391,-0.00036801741225644946,0.36085474491119385,0.565847635269165,0.42115795612335205,-0.010905183851718903,0.7074868083000183,179.40399657167498,0.5232965648174286,0.418512225151062,175.10126002504038,172.33698521444316,0.42171540858312995,0.04077675078801288,-0.0016884800181259621,0.7671238841415575,-0.36792207874338395,0.6450270463154006,3.0163994162202226,39,1761939717.8214564
0.5386353135108948,0.2028062641620636,0.04488714784383774,0.9995850324630737,0.5006099343299866,0.26152297854423523,-0.03892359510064125,0.9997227191925049,0.553338885307312,0.26425793766975403,-0.05944262817502022,0.9997826814651489,0.5099326372146606,0.413162499666214,-0.003161835018545389,0.9997768402099609,0.5409126877784729,0.41481661796569824,0.0029832208529114723,0.99978107213974,0.5077536702156067,0.5091494917869568,0.06507672369480133,0.9251828193664551,0.5327553749084473,0.4978688955307007,0.13197104632854462,0.8783754706382751,0.5066928267478943,0.622265636920929,0.1265912652015686,0.9241310358047485,0.5339369177818298,0.5801599621772766,0.23342876136302948,0.8642499446868896,0.4946817457675934,0.41226595640182495,-0.0003659104404505342,0.347906231880188,0.5666942000389099,0.41767942905426025,-0.011435248889029026,0.7003623843193054,179.4116083646122,0.5254226624965668,0.4139895588159561,173.0729195041281,172.7698546318613,0.42109570737642765,0.04474590048772655,-0.09518413935331071,0.08353481555761326,-1.9677117893954736,2.969171828203462,25.293477398804097,40,1761939717.8689713
0.5403981804847717,0.1999051570892334,0.045287489891052246,0.9996054172515869,0.5027108192443848,0.258205771446228,-0.038878075778484344,0.9997228980064392,0.5545752048492432,0.262677401304245,-0.05982918292284012,0.9997767210006714,0.5114076137542725,0.40656036138534546,-0.002892743330448866,0.9997957944869995,0.5422259569168091,0.4088965654373169,0.002716665156185627,0.9997915625572205,0.5092516541481018,0.5000543594360352,0.07092924416065216,0.9319449067115784,0.534534215927124,0.49051183462142944,0.13180875778198242,0.8862277269363403,0.5067158937454224,0.6105607151985168,0.12713316082954407,0.9304041266441345,0.5340024828910828,0.5783535838127136,0.2333526909351349,0.8729610443115234,0.4946628212928772,0.40785548090934753,0.002212692052125931,0.3385072350502014,0.567594051361084,0.4141165018081665,-0.013820256106555462,0.6956101059913635,179.289619527143,0.5268167853355408,0.4077284634113312,168.64573871636006,171.023689597481,0.41747551500702995,0.029066111594383,-0.13053777805393313,-0.3269084194085072,-0.7370891423714447,4.927726367827934,1.189920583139819,41,1761939717.9169352
0.5413280129432678,0.19340193271636963,0.06761171668767929,0.999620795249939,0.5066604018211365,0.2514609098434448,-0.036975711584091187,0.9997243881225586,0.5558270812034607,0.2583954930305481,-0.044261958450078964,0.9997715353965759,0.5138972997665405,0.39684659242630005,-0.006278847344219685,0.9998117089271545,0.543948769569397,0.400375097990036,0.006078396458178759,0.999798595905304,0.5113294720649719,0.4905771017074585,0.06393863260746002,0.9383112192153931,0.5355514287948608,0.4876655042171478,0.12345534563064575,0.895325779914856,0.5082334876060486,0.6019335985183716,0.12745870649814606,0.9364550113677979,0.5342703461647034,0.5766392350196838,0.21240048110485077,0.8830400109291077,0.4948212206363678,0.3984425365924835,0.0020207390189170837,0.3403887450695038,0.5684897303581238,0.40951600670814514,-0.016460459679365158,0.70196133852005,179.07466104856113,0.5289230346679688,0.39861084520816803,172.8332722971564,171.18801972511545,0.40938554239694835,0.04015586434483793,-0.1738283469470316,0.211427298852468,-0.8253392345901501,8.028175262335338,1.059909244193362,42,1761939717.969387
0.5418500304222107,0.18943378329277039,0.061094969511032104,0.9996435046195984,0.5074232220649719,0.2519361674785614,-0.041136737912893295,0.9997284412384033,0.5577052235603333,0.2557430565357208,-0.04445108771324158,0.9997759461402893,0.5158330202102661,0.3965134620666504,-0.004845424089580774,0.9998257160186768,0.5459996461868286,0.39920106530189514,0.004613344557583332,0.9998078346252441,0.513468861579895,0.48466163873672485,0.08899442851543427,0.9436694979667664,0.5375095009803772,0.487903892993927,0.12003668397665024,0.9033926725387573,0.5097354650497437,0.5844716429710388,0.1737482100725174,0.9416309595108032,0.5342958569526672,0.5751023888587952,0.21533484756946564,0.8919525742530823,0.4972541928291321,0.400892049074173,-0.003070703474804759,0.34314167499542236,0.5695304274559021,0.40477100014686584,-0.01693502627313137,0.700162410736084,179.34443452816717,0.5309163331985474,0.39785726368427277,173.49079162962934,174.695888938792,0.4130097246077326,0.029873652014207,-0.011293959165588754,-0.15409996465120174,2.4359099585126125,4.329647512558737,0.47427831234658596,43,1761939718.0361114
0.5418506860733032,0.18654732406139374,0.05359673500061035,0.9996617436408997,0.5072422623634338,0.2510116696357727,-0.05122626945376396,0.9997263550758362,0.5592783689498901,0.2539238929748535,-0.057261765003204346,0.999779224395752,0.5173859000205994,0.3930732011795044,-0.004239588975906372,0.9998359084129333,0.5472732782363892,0.39545613527297974,0.004018583334982395,0.999812662601471,0.5157002806663513,0.4789465665817261,0.09208893775939941,0.9481409788131714,0.5389071106910706,0.48584669828414917,0.11484450101852417,0.910274863243103,0.5109360814094543,0.5776124596595764,0.18069946765899658,0.9460798501968384,0.5341571569442749,0.5732689499855042,0.21062231063842773,0.899876594543457,0.4984356760978699,0.3979763388633728,-0.0187683068215847,0.3513888418674469,0.5710338950157166,0.4000663459300995,-0.02258235402405262,0.7030214667320251,179.62392731399615,0.5323295891284943,0.39426466822624207,173.48170388405637,176.52820503919662,0.4144791098383511,0.01384700289665483,-0.03520005022425715,-0.15702821552127064,-0.23423054885006797,3.2032416878883136,0.19560982842679547,44,1761939718.1381736
0.5427058339118958,0.1850677728652954,0.05905144661664963,0.9996821284294128,0.5081461071968079,0.2485060840845108,-0.05092320591211319,0.9997249841690063,0.5604642033576965,0.2521117627620697,-0.050108421593904495,0.9997832179069519,0.5187698602676392,0.38655924797058105,-0.0040571666322648525,0.9998450875282288,0.5480460524559021,0.38928255438804626,0.0038546554278582335,0.9998191595077515,0.5177515745162964,0.47161048650741577,0.08899342268705368,0.9526159763336182,0.5399121642112732,0.4812990725040436,0.11388756334781647,0.9177328944206238,0.511260986328125,0.5649160742759705,0.17242997884750366,0.9504124522209167,0.5349903106689453,0.5719791650772095,0.20202431082725525,0.9081791639328003,0.49946802854537964,0.38839852809906006,-0.016351522877812386,0.35992908477783203,0.5714383721351624,0.3972071707248688,-0.020760495215654373,0.7067325115203857,179.62644979221673,0.5334079563617706,0.38792090117931366,173.68156439461086,173.97960939355855,0.40471286144159646,0.01651356719338727,-0.0971452211788416,0.040834409031318686,-0.9485968335262193,3.9424985075898324,0.15720416936104048,45,1761939718.2034755
0.5431574583053589,0.18452101945877075,0.04588506743311882,0.9996991157531738,0.5086168646812439,0.2494649738073349,-0.05961797758936882,0.9997275471687317,0.5616793036460876,0.25108012557029724,-0.050235360860824585,0.9997818470001221,0.5191610455513,0.38481834530830383,-0.004959364887326956,0.99985271692276,0.5485537052154541,0.38777053356170654,0.0047748032957315445,0.9998231530189514,0.518208384513855,0.46569833159446716,0.10157299041748047,0.9560548067092896,0.5400868058204651,0.4752116799354553,0.12316461652517319,0.9230237603187561,0.5110815763473511,0.5574204325675964,0.19760198891162872,0.9538089632987976,0.5360607504844666,0.5648667216300964,0.2212076187133789,0.914583146572113,0.5008512139320374,0.38991203904151917,-0.024797946214675903,0.36851173639297485,0.571749746799469,0.3943546712398529,-0.022649940103292465,0.7011190056800842,179.4563378998751,0.5338573753833771,0.3862944394350052,172.9710103509274,173.7877944037787,0.41105580893162447,0.0068375138291891105,-0.024745180187532873,-0.14721261341628963,1.1015027351143885,1.743470836639485,0.23141632885048632,46,1761939718.269204
0.5429753065109253,0.18280692398548126,0.04454419016838074,0.999706506729126,0.5088784098625183,0.24710479378700256,-0.05776709318161011,0.9997201561927795,0.5616819858551025,0.24875062704086304,-0.052096229046583176,0.999773383140564,0.5194171667098999,0.3812224566936493,-0.00511616375297308,0.9998543858528137,0.548564076423645,0.3846098482608795,0.004950944799929857,0.9998210072517395,0.5185112953186035,0.45974457263946533,0.1007322445511818,0.9586041569709778,0.5405821800231934,0.4700049161911011,0.12290934473276138,0.9278934001922607,0.5119228363037109,0.5454237461090088,0.20248627662658691,0.9560285806655884,0.5362065434455872,0.5612103343009949,0.22233299911022186,0.920283317565918,0.5020214915275574,0.38696467876434326,-0.030222902074456215,0.373152494430542,0.5719364881515503,0.3907587230205536,-0.035404205322265625,0.6984244585037231,179.45265661170106,0.5339906215667725,0.3829161524772644,175.66690352751954,173.23028024127586,0.40720285629412795,0.003021877010754665,-0.07661583568991527,-0.08653444991217223,-1.176369464409383,1.785272641748406,0.23519333406505818,47,1761939718.3132977
0.5431944131851196,0.18154239654541016,0.03149236738681793,0.9997090101242065,0.5086493492126465,0.2458447962999344,-0.060308389365673065,0.9997000098228455,0.5616534948348999,0.2465585321187973,-0.061771977692842484,0.9997652769088745,0.5199361443519592,0.3799101412296295,-0.003546935971826315,0.9998465776443481,0.5485617518424988,0.38342276215553284,0.003430501092225313,0.9998107552528381,0.5194746255874634,0.4555988609790802,0.10856430232524872,0.9599062204360962,0.5408661365509033,0.46811333298683167,0.1200033649802208,0.9318052530288696,0.5141305327415466,0.5364236831665039,0.21735286712646484,0.9574745893478394,0.536113977432251,0.5588385462760925,0.22220268845558167,0.925189197063446,0.5023525357246399,0.3845316171646118,-0.029009133577346802,0.3752351701259613,0.5718855261802673,0.3882756531238556,-0.029951468110084534,0.6959546208381653,179.6182979864487,0.534248948097229,0.3816664516925812,176.63874930375803,174.2780096541987,0.41206667936763813,0.006604572912412452,-0.03195080248456292,0.09159793329659845,1.1419402719446898,0.7714788759627225,0.1787386430266596,48,1761939718.352411
0.5428294539451599,0.1805831342935562,0.012892288155853748,0.999701201915741,0.5085150599479675,0.2444559782743454,-0.07404641807079315,0.9996877312660217,0.5615009665489197,0.24485251307487488,-0.07277996093034744,0.9997575283050537,0.5202311277389526,0.37742888927459717,-0.0021803986746817827,0.9998335838317871,0.5484992861747742,0.3804468810558319,0.002079764613881707,0.9997951984405518,0.5207259058952332,0.4539046287536621,0.11303657293319702,0.9583747982978821,0.5413428544998169,0.4646405577659607,0.11834780126810074,0.9336763620376587,0.5201869010925293,0.5372183918952942,0.22344699501991272,0.9574264287948608,0.5360385179519653,0.5535170435905457,0.22210478782653809,0.9283092021942139,0.5019931197166443,0.38115161657333374,-0.03897983580827713,0.3913837671279907,0.5717381238937378,0.38491693139076233,-0.03129197657108307,0.6912626624107361,179.72573124783577,0.5343652069568634,0.37893788516521454,176.46166897020865,175.2537605883147,0.42111221997138787,0.0024026498746015086,-0.056389595127936024,-0.08683854195396269,-0.5050613971671786,0.42878093095182285,0.2199379824136776,49,1761939718.4007988
0.5426450967788696,0.1802794337272644,0.015502688474953175,0.9997000098228455,0.5090783834457397,0.2444569319486618,-0.07201007008552551,0.9996806383132935,0.561383068561554,0.24391697347164154,-0.07218745350837708,0.9997572302818298,0.5203206539154053,0.3760983347892761,0.0028068907558918,0.9998124837875366,0.5483793616294861,0.3784714937210083,-0.0029026444535702467,0.9997912049293518,0.521848738193512,0.45153576135635376,0.12079320847988129,0.9556342363357544,0.5419045686721802,0.4646826386451721,0.09600408375263214,0.937652051448822,0.5217081308364868,0.5303373336791992,0.23472218215465546,0.9561451077461243,0.5351783037185669,0.5543508529663086,0.18400408327579498,0.9324221014976501,0.502221941947937,0.38313114643096924,-0.04125355929136276,0.41512200236320496,0.571564793586731,0.3828916847705841,-0.028040895238518715,0.686381459236145,179.62087547752705,0.5343500077724457,0.3772849142551422,177.7377199612169,175.4940392937703,0.41094328434761407,-0.0003845991421176783,-0.041826664937227385,-0.07052836199871712,0.36849940787182445,-0.5914621766338893,0.25643750280147903,50,1761939718.4403183
0.5426464080810547,0.18050125241279602,0.024964893236756325,0.9996926188468933,0.5092817544937134,0.24183228611946106,-0.06925079226493835,0.9996870160102844,0.5614019632339478,0.2429414540529251,-0.06672892719507217,0.9997524619102478,0.5199553966522217,0.3745424449443817,0.0031558838672935963,0.9998108744621277,0.5483132600784302,0.3766266703605652,-0.0032815206795930862,0.9997869729995728,0.5226537585258484,0.4555531442165375,0.11206139624118805,0.9507753849029541,0.5421530604362488,0.4632728099822998,0.10382051765918732,0.93900465965271,0.5245323181152344,0.5418851375579834,0.2172880619764328,0.9517829418182373,0.5346731543540955,0.5540282130241394,0.20017382502555847,0.9333004355430603,0.5020970702171326,0.3801977038383484,-0.03147340938448906,0.436448335647583,0.5713022351264954,0.38001391291618347,0.005165365524590015,0.6817654371261597,179.48058778535236,0.5341343283653259,0.37558455765247345,177.19168319079535,175.5989352354112,0.41105180501683736,-0.005510529169179413,-0.043443483001650796,-0.13096561841721424,-0.04130910421278465,1.219125017223161,0.43100332990768647,51,1761939718.4794579
0.5422396063804626,0.18018966913223267,0.016366876661777496,0.9996532201766968,0.509635329246521,0.24249057471752167,-0.07629819214344025,0.9997010231018066,0.5612583756446838,0.2425788938999176,-0.06550778448581696,0.9997254610061646,0.5197413563728333,0.3737463653087616,0.00016031657287385315,0.9998124837875366,0.5482044816017151,0.37559962272644043,-0.0003001609002240002,0.9997717142105103,0.5226423144340515,0.45822784304618835,0.10832686722278595,0.9488593935966492,0.5419844388961792,0.4607047736644745,0.10534808784723282,0.9375892877578735,0.5263282656669617,0.5460829138755798,0.21066267788410187,0.9495050311088562,0.5341757535934448,0.549289882183075,0.21592888236045837,0.9310712218284607,0.5019509196281433,0.3789403736591339,-0.0412340946495533,0.46551787853240967,0.5697959661483765,0.3771877586841583,0.005515074823051691,0.6570780873298645,179.36092192832535,0.5339729189872742,0.374672994017601,177.25680507594512,179.1968938998561,0.4171073497842822,-0.004754580761154302,-0.026851617751371244,0.0222677133175551,0.488740891408104,0.0980242704998286,0.714680478002821,52,1761939718.513406
0.539617121219635,0.18058349192142487,0.0027037998661398888,0.9996271729469299,0.5095254182815552,0.2431187927722931,-0.0862041637301445,0.9997172951698303,0.5609868764877319,0.24217185378074646,-0.06839775294065475,0.9997211694717407,0.5195465087890625,0.37218713760375977,0.0004882207722403109,0.999809741973877,0.5477483868598938,0.37424811720848083,-0.0006313678459264338,0.9997705817222595,0.5226336717605591,0.456010103225708,0.11343314498662949,0.9386231899261475,0.5414477586746216,0.4588187336921692,0.10210084915161133,0.9366485476493835,0.5271934270858765,0.5381336808204651,0.22608034312725067,0.9434046149253845,0.5325751900672913,0.5460750460624695,0.2024689018726349,0.9302834868431091,0.501739501953125,0.37986552715301514,-0.05926626920700073,0.4980684220790863,0.567669153213501,0.3761250078678131,0.0032731692772358656,0.6363757252693176,179.29413030802138,0.5336474478244781,0.3732176274061203,179.02431921787849,178.010327750011,0.41899198223414713,-0.009032128939202466,-0.04038778359280407,-0.11870595955683849,-0.3756412524290899,-1.0541769949337423,0.7456635803322258,53,1761939718.5494409
0.5379751324653625,0.1808231621980667,0.009315905161201954,0.999606192111969,0.5099233388900757,0.2435193955898285,-0.07927952706813812,0.9997288584709167,0.5606638193130493,0.24241000413894653,-0.06797613203525543,0.9997261166572571,0.5194348096847534,0.3714599907398224,0.005674420390278101,0.9997978210449219,0.5472119450569153,0.37355029582977295,-0.005807563196867704,0.9997721910476685,0.5242055058479309,0.45512503385543823,0.11690773814916611,0.9279733896255493,0.5410095453262329,0.45965254306793213,0.08030024915933609,0.9392191171646118,0.5275871753692627,0.5316508412361145,0.22264572978019714,0.9361613988876343,0.5315552949905396,0.5482406616210938,0.1597265899181366,0.9320547580718994,0.5015993714332581,0.37916436791419983,-0.05473059415817261,0.5261664390563965,0.5660731792449951,0.374986469745636,-0.0014756507007405162,0.6130600571632385,179.12864632765732,0.5333233773708344,0.37250514328479767,178.69559073336902,176.42081540595024,0.40263687005227816,-0.0075966310471251,-0.016701550344272557,0.033649929305260576,0.5552359768132921,-1.2525171579343826,0.648670843614487,54,1761939718.5921006
0.5361010432243347,0.181184321641922,0.012093260884284973,0.9996021389961243,0.5101921558380127,0.24369773268699646,-0.076832115650177,0.9997407793998718,0.5600408315658569,0.2421526312828064,-0.0626218169927597,0.9997400045394897,0.5194684267044067,0.36977413296699524,0.007822800427675247,0.9997808337211609,0.5468778014183044,0.37166938185691833,-0.007965544238686562,0.9997800588607788,0.5250974893569946,0.45350825786590576,0.12386592477560043,0.9199670553207397,0.5403522253036499,0.45995521545410156,0.06574229896068573,0.9434175491333008,0.5283674001693726,0.5229652523994446,0.23031198978424072,0.9305395483970642,0.5313213467597961,0.5497272610664368,0.1316574513912201,0.9355829954147339,0.5015193819999695,0.37820595502853394,-0.05280926823616028,0.5536527633666992,0.5653702020645142,0.3715653419494629,0.0019721200224012136,0.5908133387565613,179.12878049134636,0.5331731140613556,0.3707217574119568,177.13857721379063,176.11166783307897,0.393323621480887,-0.0026208872550650387,-0.03110575243687415,0.08678674477699143,-0.2512375763240927,-1.7753622063997492,0.6744371064113337,55,1761939718.6494336
0.5347415804862976,0.1813557893037796,0.01213033776730299,0.9996055960655212,0.5101505517959595,0.2439086139202118,-0.07488308846950531,0.9997482895851135,0.5594726800918579,0.24136579036712646,-0.06270425021648407,0.999754011631012,0.5194038152694702,0.3675873279571533,0.009233655408024788,0.9997563362121582,0.5464608073234558,0.36914607882499695,-0.0093606598675251,0.9997870922088623,0.5252975225448608,0.44765323400497437,0.12646928429603577,0.9104503989219666,0.5401192903518677,0.4577048718929291,0.059767164289951324,0.9471026659011841,0.5282950401306152,0.5167659521102905,0.2344898283481598,0.922302782535553,0.5310928225517273,0.5491836667060852,0.12244770675897598,0.9386516809463501,0.5015642642974854,0.3768783509731293,-0.05158712714910507,0.57377690076828,0.5651142001152039,0.3706934154033661,-0.012103329412639141,0.5760627388954163,179.14365200088173,0.532932311296463,0.36836670339107513,177.90441141069545,176.10948758488018,0.38901142307757075,-0.004867094585477746,-0.04760024528229149,-0.04540024090084302,-0.33338594286467227,-2.951295613382213,0.6232200832840108,56,1761939718.6989093
0.5343138575553894,0.18139785528182983,0.013733183033764362,0.9995971322059631,0.5101940035820007,0.2440761923789978,-0.07447342574596405,0.9997565746307373,0.5591062307357788,0.24112069606781006,-0.06245313212275505,0.9997628331184387,0.519359827041626,0.3668428063392639,0.008260388858616352,0.9997395277023315,0.5461727976799011,0.36822709441185,-0.00838971696794033,0.999790370464325,0.5251051783561707,0.4451409578323364,0.12483414262533188,0.9008504748344421,0.5398697257041931,0.4545436501502991,0.0672551840543747,0.9497203826904297,0.5286102890968323,0.5150827169418335,0.23478324711322784,0.913535475730896,0.5309901833534241,0.5448192358016968,0.1364840567111969,0.940678596496582,0.5017191767692566,0.3753317892551422,-0.05523662641644478,0.597375750541687,0.5649681687355042,0.37018126249313354,-0.03457649052143097,0.5689398646354675,179.1361541215551,0.5327663123607635,0.36753495037555695,178.2584243543094,175.97274758171199,0.38866363632282136,-0.0032948130060525185,-0.01650896520393532,0.03120727115049688,0.6171121130707401,-3.457863907243787,0.7007639768298223,57,1761939718.7492912
0.5343766808509827,0.18149346113204956,0.014649073593318462,0.9996017813682556,0.510372519493103,0.243901789188385,-0.07440651953220367,0.9997605681419373,0.5589688420295715,0.24096634984016418,-0.05820102617144585,0.9997698068618774,0.519353985786438,0.36443662643432617,0.0076475790701806545,0.9997175335884094,0.5459970235824585,0.3656970262527466,-0.0077666426077485085,0.9997917413711548,0.5248615145683289,0.4406346082687378,0.12149679660797119,0.8955460786819458,0.539878785610199,0.4492781460285187,0.0689019113779068,0.9517400860786438,0.5291791558265686,0.5106555223464966,0.2219821959733963,0.9086546301841736,0.5310672521591187,0.5405627489089966,0.12357048690319061,0.9430015087127686,0.5022276043891907,0.37229007482528687,-0.05280906707048416,0.6154886484146118,0.5651853084564209,0.3699122965335846,-0.037829767912626266,0.5648616552352905,179.06790741035607,0.5326755046844482,0.3650668263435364,178.7245726658383,168.274940877392,0.3787319927536195,-0.0019550298227063207,-0.05313709462164687,0.02884465483190306,-0.7885796473078731,-3.456726080676171,0.8875551242381788,58,1761939718.7957394
0.5344836711883545,0.18144766986370087,0.013080725446343422,0.9996102452278137,0.5106868147850037,0.24344991147518158,-0.07430070638656616,0.9997656345367432,0.558892548084259,0.24017058312892914,-0.058481812477111816,0.9997752904891968,0.5193687081336975,0.3615303039550781,0.00706285098567605,0.9997060298919678,0.5458377003669739,0.36324936151504517,-0.007185429334640503,0.9997886419296265,0.5246750712394714,0.4417997896671295,0.10461048036813736,0.8897497653961182,0.5403733849525452,0.4457147419452667,0.06666697561740875,0.9526962637901306,0.528920590877533,0.5167098045349121,0.19959662854671478,0.9031702280044556,0.5319511890411377,0.5390946865081787,0.12863194942474365,0.9432714581489563,0.502500593662262,0.372082382440567,-0.05211104825139046,0.6343806385993958,0.5653083324432373,0.3681972622871399,-0.02845623530447483,0.5674136877059937,178.9611658860214,0.5326032042503357,0.36238983273506165,178.5866576157125,171.57622757674324,0.3779659969395935,-0.0013883674721410846,-0.051405650529708545,0.010881477889705119,0.03324849548394062,-3.8917079551427496,1.0464927365837313,59,1761939718.8478153
0.5347344279289246,0.18059279024600983,0.011423665098845959,0.9996312856674194,0.5107847452163696,0.24184834957122803,-0.07733602076768875,0.9997743368148804,0.5586668252944946,0.23707465827465057,-0.059680335223674774,0.9997816681861877,0.519376814365387,0.35979026556015015,0.003604404628276825,0.9997039437294006,0.5456153154373169,0.361068993806839,-0.0037412301171571016,0.9997864365577698,0.5242782831192017,0.44346529245376587,0.0964147225022316,0.891323447227478,0.5411482453346252,0.44619259238243103,0.07189157605171204,0.9544181227684021,0.5284907221794128,0.5198612809181213,0.19141322374343872,0.9035800099372864,0.5329840183258057,0.5407122373580933,0.13796290755271912,0.9451432228088379,0.5028153657913208,0.3695906698703766,-0.050041187554597855,0.6519051790237427,0.5659454464912415,0.36629489064216614,-0.03178664296865463,0.5810051560401917,178.94402678510204,0.5324960649013519,0.36042962968349457,176.6941861161253,173.0677754600478,0.3818269566509032,-0.0023072203482073636,-0.042212505583537424,-0.019787277716147324,0.19797218561632146,-5.693393887408483,1.1278907129376967,60,1761939718.8942518
0.5352917909622192,0.17849218845367432,0.014129532501101494,0.9996558427810669,0.5114856958389282,0.23820650577545166,-0.07655411958694458,0.9997882843017578,0.5585704445838928,0.23361191153526306,-0.05660056322813034,0.9997897744178772,0.5194297432899475,0.3558322489261627,-0.003271988360211253,0.9997196197509766,0.5456141233444214,0.3575802147388458,0.0031396846752613783,0.9997886419296265,0.523554265499115,0.4368970990180969,0.09496934711933136,0.8954530358314514,0.5417946577072144,0.43956688046455383,0.09323034435510635,0.955580472946167,0.5281941294670105,0.5181444883346558,0.19218462705612183,0.9066306352615356,0.5341641902923584,0.5306392908096313,0.17345841228961945,0.9467222094535828,0.5035210847854614,0.3655414879322052,-0.050140488892793655,0.6716257929801941,0.5665665864944458,0.3638559579849243,-0.031732626259326935,0.6032916307449341,178.8114734390531,0.5325219333171844,0.3567062318325043,179.22932744188248,173.40300348638232,0.3848642663384426,0.0004960861772559347,-0.07140468972895864,0.05375982924108788,-0.5598270544363216,-5.573355238560299,1.6748873939656301,61,1761939718.9463968
0.5355528593063354,0.17555293440818787,-0.003919939510524273,0.9996733069419861,0.5118972659111023,0.2354993373155594,-0.0903540700674057,0.9997966885566711,0.5586333870887756,0.2307475209236145,-0.07005113363265991,0.9997953176498413,0.5198412537574768,0.35130518674850464,-0.005650668870657682,0.9997318387031555,0.5456389784812927,0.35243573784828186,0.005460364278405905,0.9997918009757996,0.5235317349433899,0.42752355337142944,0.10988129675388336,0.8903554677963257,0.5421899557113647,0.43036168813705444,0.0990528017282486,0.9502359628677368,0.5283881425857544,0.5103282928466797,0.17442092299461365,0.9105974435806274,0.5341163873672485,0.5162642002105713,0.14614558219909668,0.9488112330436707,0.5044886469841003,0.3625907599925995,-0.0645228773355484,0.6890223026275635,0.5671019554138184,0.36302512884140015,-0.053389083594083786,0.623290479183197,178.78176246101123,0.5327401161193848,0.35187046229839325,161.3145098367301,158.3156718443324,0.37556854007214996,0.004980488946457533,-0.11038677874410859,0.10236608109454202,-0.8898495275146645,-5.805501993740537,1.5688625791064759,62,1761939718.9902043
0.5375964045524597,0.17292553186416626,-0.007028711028397083,0.9996970891952515,0.5124838948249817,0.23320935666561127,-0.08612936735153198,0.9998031854629517,0.5590493083000183,0.22814799845218658,-0.08007542043924332,0.9998016357421875,0.5204721689224243,0.3467458188533783,-0.00410423381254077,0.9997527599334717,0.5457810759544373,0.347605437040329,0.003992528188973665,0.9998025894165039,0.5236178636550903,0.4254942238330841,0.10436353832483292,0.8957286477088928,0.5445230007171631,0.4240614175796509,0.0988793671131134,0.947398841381073,0.5282391309738159,0.5031928420066833,0.14866001904010773,0.9179176688194275,0.5354385375976562,0.5031536221504211,0.14783875644207,0.9517719745635986,0.5052763819694519,0.3595161437988281,-0.05835068225860596,0.69456946849823,0.568041980266571,0.3599115014076233,-0.041567012667655945,0.6413891911506653,178.701822006518,0.5331266224384308,0.34717562794685364,155.62188236074428,160.00709016886125,0.364976685652294,0.0091112828438949,-0.1106733876633413,0.0973770148500612,-0.006756357658414718,-6.203326570835612,1.1824695900714193,63,1761939719.032625
0.5395292043685913,0.17136183381080627,0.018931828439235687,0.9997157454490662,0.5132595300674438,0.23094132542610168,-0.05805522948503494,0.9998080730438232,0.5596741437911987,0.22684529423713684,-0.07449021935462952,0.9998111724853516,0.5214582681655884,0.3457429111003876,0.0044582742266356945,0.9997739195823669,0.5460600852966309,0.3463723361492157,-0.004754749126732349,0.9998157024383545,0.5239284634590149,0.4240550100803375,0.10295815765857697,0.900367259979248,0.5453566908836365,0.419749915599823,0.08068256080150604,0.947311282157898,0.5281926393508911,0.4991789162158966,0.09961482137441635,0.9248732328414917,0.5358147621154785,0.4925943911075592,0.08727489411830902,0.9556124210357666,0.5054771900177002,0.3563830852508545,-0.03324252739548683,0.6981884241104126,0.5683951377868652,0.35818272829055786,-0.024172428995370865,0.6640411615371704,178.67613364958194,0.5337591767311096,0.34605762362480164,125.93779192036173,135.39303398688827,0.3330543250593879,0.01578376722271137,-0.027896925493182304,0.16649470480455605,2.0654739451380584,-5.043215521616475,1.02567686846682,64,1761939719.0727012
0.5410664677619934,0.17101198434829712,0.018366025760769844,0.999729335308075,0.5138569474220276,0.2300562560558319,-0.06250003725290298,0.9998070001602173,0.5600022077560425,0.22630462050437927,-0.07468289881944656,0.9998169541358948,0.5219845175743103,0.34455740451812744,0.00409304816275835,0.9997929334640503,0.5460745692253113,0.3447769284248352,-0.00433185463771224,0.9998257160186768,0.5242695808410645,0.42403170466423035,0.09775958955287933,0.9072298407554626,0.5452736616134644,0.41742372512817383,0.09226370602846146,0.9454953074455261,0.5281422138214111,0.5008624196052551,0.10876324027776718,0.9314095973968506,0.5367389917373657,0.4862036108970642,0.11836642026901245,0.9582948684692383,0.5060154795646667,0.35216182470321655,-0.03172893077135086,0.6911593675613403,0.5688078999519348,0.357380211353302,-0.03065451979637146,0.6853498220443726,178.57386840468277,0.5340295433998108,0.3446671664714813,138.44620276302413,147.1973803400588,0.33638821813787617,0.007985859254512293,-0.041070133308920356,-0.23032793137125276,-0.3890989375735479,-4.647956345724467,1.243572576308571,65,1761939719.106557
0.5415886640548706,0.17080563306808472,0.016418660059571266,0.9997460842132568,0.5151220560073853,0.22896037995815277,-0.07048626989126205,0.9998083114624023,0.5604466199874878,0.22611601650714874,-0.06437124311923981,0.9998186826705933,0.5228911638259888,0.34310176968574524,-0.00883843656629324,0.9998088479042053,0.5466437339782715,0.34355974197387695,0.008590311743319035,0.9998313188552856,0.5250881314277649,0.42164233326911926,0.09317003190517426,0.9155365228652954,0.5452876687049866,0.41528016328811646,0.12248903512954712,0.9465155005455017,0.5280588269233704,0.5013670921325684,0.13649588823318481,0.9376150369644165,0.5385947227478027,0.48410987854003906,0.17908897995948792,0.9605095982551575,0.5067602396011353,0.3468397855758667,-0.0355067141354084,0.6889049410820007,0.5694113969802856,0.35429590940475464,-0.03112756833434105,0.7012327909469604,178.50753866051664,0.5347674489021301,0.3433307558298111,156.09555798908426,161.26222461159534,0.35170380175429006,0.0227796300794159,-0.04125587891099384,0.4566934733671642,-0.005734089379755316,-3.5909134528424165,1.6201322260306914,66,1761939719.13895
0.5438830256462097,0.17044879496097565,0.014105850830674171,0.9997563362121582,0.5173500776290894,0.22708721458911896,-0.07333197444677353,0.9998103380203247,0.5606920719146729,0.2246956080198288,-0.06467406451702118,0.9998134970664978,0.5240649580955505,0.33938679099082947,-0.009488869458436966,0.9998223781585693,0.5474475622177124,0.34075772762298584,0.009288232773542404,0.9998323917388916,0.5255939960479736,0.4167003929615021,0.08179432898759842,0.9230098724365234,0.5454621315002441,0.41022539138793945,0.1131821870803833,0.9486536979675293,0.5281620025634766,0.4980635643005371,0.14757665991783142,0.9427747130393982,0.5390933156013489,0.4815741777420044,0.1912994682788849,0.9619715809822083,0.5079103112220764,0.342742919921875,-0.0368967279791832,0.6893199682235718,0.5701360106468201,0.3482171297073364,-0.0436701662838459,0.7129931449890137,178.36216714348336,0.5357562601566315,0.34007225930690765,169.17598673118076,170.97630533465966,0.35528933913748917,0.01852168185066095,-0.0610357493747767,-0.0797567402985879,-0.37050191946108574,-3.1583719729660866,1.7170540440484678,67,1761939719.1923368
0.5445665121078491,0.169251948595047,0.028788309544324875,0.9997700452804565,0.5185312032699585,0.22380352020263672,-0.06132210046052933,0.999811589717865,0.5608919858932495,0.2227519303560257,-0.048773933202028275,0.9998126029968262,0.5249727964401245,0.3372541666030884,-0.010050743818283081,0.9998345375061035,0.5482050180435181,0.3390035927295685,0.0098720733076334,0.9998337030410767,0.5262401700019836,0.41557931900024414,0.06601465493440628,0.9299429059028625,0.5457756519317627,0.4083092212677002,0.10854081064462662,0.9508513808250427,0.5281263589859009,0.4968346953392029,0.12346140295267105,0.9475955367088318,0.540273904800415,0.4796127378940582,0.17066946625709534,0.9632096886634827,0.5090730786323547,0.3385782539844513,-0.022870317101478577,0.6783767342567444,0.57053542137146,0.3436952233314514,-0.01965351030230522,0.7174026966094971,178.4425690952926,0.5365889072418213,0.33812887966632843,171.05604542222636,165.97246981287964,0.3403526537962667,0.017733282894703436,-0.04138908494508452,-0.016790909340295337,0.41842440148531096,-1.4220532273887936,1.7264061626767682,68,1761939719.2392907
0.5452395677566528,0.16930416226387024,0.024159109219908714,0.9997743964195251,0.5187707543373108,0.22364354133605957,-0.06331542134284973,0.9998138546943665,0.5611122250556946,0.22248703241348267,-0.053679563105106354,0.9998073577880859,0.5258375406265259,0.3373197913169861,-0.009437641128897667,0.9998446702957153,0.548937976360321,0.3387296199798584,0.00928092934191227,0.9998296499252319,0.5264178514480591,0.4168851673603058,0.0720907524228096,0.9357617497444153,0.5456843376159668,0.40933850407600403,0.10485798120498657,0.9519885778427124,0.5282067656517029,0.4969009757041931,0.1291574388742447,0.9512221217155457,0.5418099164962769,0.48221608996391296,0.18903228640556335,0.9628059267997742,0.5096298456192017,0.3375896215438843,-0.027958428487181664,0.6714730262756348,0.570736289024353,0.34313467144966125,-0.022943366318941116,0.7215179800987244,178.72742955076566,0.5373877584934235,0.33802470564842224,169.7428925545171,175.49641992191715,0.3476711052413729,0.01383921011436903,-0.0018046990843043067,-0.06746048316205262,0.6857554921230918,-1.5645797849541816,2.4466804717621122,69,1761939719.2970145
0.5463429689407349,0.169362872838974,0.02848619781434536,0.9997808933258057,0.5191845893859863,0.22327230870723724,-0.05454767867922783,0.9998177289962769,0.5610949397087097,0.22190575301647186,-0.04963325709104538,0.9998063445091248,0.5263454914093018,0.33589476346969604,-0.008216737769544125,0.9998543858528137,0.5493099689483643,0.3373526632785797,0.008049612864851952,0.9998292326927185,0.5266209244728088,0.41675058007240295,0.07372056692838669,0.9405658841133118,0.5456154346466064,0.4087139666080475,0.10396292060613632,0.9523106217384338,0.5286107063293457,0.49565204977989197,0.13489419221878052,0.9537169337272644,0.5432471632957458,0.48411864042282104,0.18466858565807343,0.9605410099029541,0.5102918744087219,0.3372493386268616,-0.01825401559472084,0.6644245982170105,0.5709342360496521,0.34047991037368774,-0.0009915150003507733,0.7212995290756226,178.8384966612381,0.537827730178833,0.3366237133741379,172.30381083692444,173.53572500155954,0.3465278265079472,0.008536091773249764,-0.027181291486458356,-0.10288822291384647,-0.49234286846323444,-1.8675611645616763,12.152947206199995,70,1761939719.348557
0.5465596914291382,0.16917043924331665,0.0325930081307888,0.99978107213974,0.5197780132293701,0.2232423573732376,-0.053478091955184937,0.9998195171356201,0.5612358450889587,0.22187954187393188,-0.04324515908956528,0.9997995495796204,0.5267435312271118,0.3346160650253296,-0.010495079681277275,0.9998603463172913,0.5494651794433594,0.3361039161682129,0.0103668924421072,0.9998171925544739,0.5269196629524231,0.4157281219959259,0.05527440831065178,0.9448443651199341,0.5450096130371094,0.41015034914016724,0.09444533288478851,0.9514048099517822,0.5291683077812195,0.4968113899230957,0.11921796947717667,0.9553683400154114,0.5433118939399719,0.485002338886261,0.1730954647064209,0.9565508961677551,0.5113633871078491,0.33413633704185486,-0.01799062266945839,0.6556981205940247,0.5710075497627258,0.3388098478317261,-0.006140925921499729,0.7225487232208252,178.77980763462025,0.5381043553352356,0.33535999059677124,178.40738374098268,177.29074824462802,0.34134665256612057,0.006624057274331028,-0.030261065786694224,-0.045785517832303856,-0.07374817830047616,-1.8827677579966353,8.690403381012576,71,1761939719.3903177
0.5474426746368408,0.16937388479709625,0.029702749103307724,0.9997833371162415,0.5206559300422668,0.22270050644874573,-0.05250546336174011,0.9998248219490051,0.561457097530365,0.22196146845817566,-0.045536015182733536,0.9997965693473816,0.5269708037376404,0.3337894082069397,-0.00977309700101614,0.9998689293861389,0.5494750142097473,0.3354521095752716,0.00963621772825718,0.9998154044151306,0.5272512435913086,0.4159332811832428,0.05755007266998291,0.9487286806106567,0.5449865460395813,0.41002824902534485,0.0932617336511612,0.9502257108688354,0.5296403765678406,0.4968668222427368,0.1237773522734642,0.9571189880371094,0.5441833734512329,0.48196789622306824,0.17063066363334656,0.952773928642273,0.5126548409461975,0.33097606897354126,-0.011334923096001148,0.6453277468681335,0.5710592269897461,0.3391232490539551,-0.00271158991381526,0.7266147136688232,178.554461855384,0.5382229089736938,0.33462075889110565,178.60986407680838,177.67068418076553,0.3410942232009957,0.0030376800615783107,-0.018941210429215486,-0.09189314384740782,0.290046761672966,-1.0376940286881997,3.5688608276473706,72,1761939719.4293454
0.5485306978225708,0.169435054063797,0.027947615832090378,0.9997806549072266,0.5213044881820679,0.22207123041152954,-0.049282632768154144,0.9998300075531006,0.5616894960403442,0.22203576564788818,-0.04857544228434563,0.9997908473014832,0.5273050665855408,0.3330806493759155,-0.009564493782818317,0.9998781085014343,0.5496444702148438,0.3345057964324951,0.00941270962357521,0.9998170137405396,0.5277658700942993,0.41474777460098267,0.06018948554992676,0.9519997239112854,0.5452756285667419,0.40611520409584045,0.09398306161165237,0.9455722570419312,0.5299723148345947,0.4927448332309723,0.12871843576431274,0.9582728147506714,0.5448628664016724,0.47361335158348083,0.17451947927474976,0.9459322094917297,0.513721764087677,0.3292878270149231,-0.006087512243539095,0.627839982509613,0.5710965394973755,0.33882516622543335,-0.006602746434509754,0.7275733351707458,178.45069909149552,0.5384747684001923,0.3337932229042053,178.52534993168751,177.81404098910303,0.3374217294463302,0.007102874432677761,-0.023337955958984705,0.11464556067560876,-0.12399588073621215,-0.05031522496841263,3.3661001701636613,73,1761939719.4648042
0.5486605763435364,0.16953761875629425,0.028511544689536095,0.9997737407684326,0.5223523378372192,0.22100093960762024,-0.048339083790779114,0.9998313188552856,0.5620471239089966,0.22216160595417023,-0.04690971598029137,0.9997814297676086,0.5279668569564819,0.33270323276519775,-0.009363296441733837,0.9998874068260193,0.5503528714179993,0.33394327759742737,0.009210399352014065,0.9998199939727783,0.5284335017204285,0.41390156745910645,0.048716478049755096,0.9560056328773499,0.546270489692688,0.40153968334198,0.09921576082706451,0.9430265426635742,0.5302828550338745,0.4911445081233978,0.11176826804876328,0.9610468149185181,0.54664146900177,0.4659002423286438,0.18498103320598602,0.9430804252624512,0.514788806438446,0.32816752791404724,-0.007574782706797123,0.6113577485084534,0.5714524388313293,0.33732837438583374,-0.010285799391567707,0.7337638735771179,178.44169058050903,0.5391598641872406,0.33332325518131256,176.17900415286425,177.6081830220246,0.3315761625184788,0.018966370746840037,-0.013010709217517574,0.32843213124633575,0.28590219673755024,1.674838116202221,2.7357441051369036,74,1761939719.5009258
0.5493484735488892,0.16965848207473755,0.028001895174384117,0.9997710585594177,0.52303147315979,0.22145342826843262,-0.04798446595668793,0.9998339414596558,0.5626948475837708,0.22229497134685516,-0.04781239479780197,0.9997760653495789,0.5289019346237183,0.33281439542770386,-0.009105178527534008,0.9998959302902222,0.5510240197181702,0.3339197635650635,0.00895620882511139,0.9998217821121216,0.5288299322128296,0.4127974510192871,0.04069267213344574,0.9596025943756104,0.5468356013298035,0.40050917863845825,0.0991392582654953,0.940531849861145,0.5303996801376343,0.4920850396156311,0.09724538773298264,0.9636355638504028,0.5471678376197815,0.465826153755188,0.18071939051151276,0.9409037232398987,0.5157002210617065,0.3281855583190918,-0.009665487334132195,0.5956018567085266,0.5719830989837646,0.3375198543071747,-0.019921939820051193,0.7424629926681519,178.50994256951265,0.5399629771709442,0.33336707949638367,176.18522961983905,176.687855690781,0.3287749813161903,0.017959394760132648,0.0009800092769324277,-0.022518225487842693,0.31286362133132306,1.2154697908643193,3.046436181895714,75,1761939719.545644
0.5496072769165039,0.17024633288383484,0.02353561855852604,0.999770998954773,0.523556113243103,0.22181595861911774,-0.050107441842556,0.9998352527618408,0.5636259913444519,0.22244268655776978,-0.05171600729227066,0.9997729659080505,0.5297728776931763,0.3323078453540802,-0.008884948678314686,0.9999010562896729,0.5517410039901733,0.3332841992378235,0.008733775466680527,0.9998181462287903,0.5292166471481323,0.4107446074485779,0.052051395177841187,0.9617865681648254,0.5471140146255493,0.4002019166946411,0.09566653519868851,0.938135027885437,0.5304518938064575,0.49203842878341675,0.11434128135442734,0.9649286866188049,0.546902060508728,0.4688425660133362,0.1754772961139679,0.9390096664428711,0.5169224739074707,0.32974210381507874,-0.01871814765036106,0.5792708992958069,0.5722647905349731,0.3370576798915863,-0.029230033978819847,0.7441572546958923,178.533008212101,0.5407569408416748,0.33279602229595184,178.6525754182453,176.06087560943652,0.3332738498046417,0.02348664908172765,-0.01689273774931588,0.1635045625164556,-0.5287029533048029,0.8960830356087557,5.528395725859015,76,1761939719.579449
0.5499703884124756,0.17050662636756897,0.03375225514173508,0.9997780323028564,0.5246967077255249,0.22216828167438507,-0.04609481245279312,0.9998366236686707,0.5649843215942383,0.22254633903503418,-0.041644372045993805,0.9997660517692566,0.5315195322036743,0.3323928713798523,-0.009863113984465599,0.9999070763587952,0.5532635450363159,0.33336979150772095,0.009729604236781597,0.9998155832290649,0.5297716856002808,0.4082161486148834,0.03646375983953476,0.9644343256950378,0.5472716689109802,0.39864110946655273,0.09528221935033798,0.9358939528465271,0.5309661030769348,0.4916219413280487,0.08661553263664246,0.9665985107421875,0.5469384789466858,0.4651823341846466,0.17123527824878693,0.9364884495735168,0.5184288620948792,0.3300701379776001,-0.013813558034598827,0.5636674761772156,0.5725210905075073,0.3367498517036438,-0.02005966193974018,0.7449087500572205,178.73065571713397,0.5423915386199951,0.3328813314437866,177.93301198259857,175.03760897061608,0.32245770721429645,0.051303157059796316,0.0026774957534215823,0.8730433239181163,0.6142274120300946,0.537645527167051,5.673999043872539,77,1761939719.6113105
0.5506510138511658,0.1705414056777954,0.022919144481420517,0.9997803568840027,0.5260404348373413,0.22215239703655243,-0.05631092190742493,0.9998379945755005,0.565902590751648,0.22228430211544037,-0.04765754193067551,0.9997608661651611,0.5330220460891724,0.33033034205436707,-0.010081546381115913,0.9999114274978638,0.5547154545783997,0.33167099952697754,0.009943457320332527,0.9998138546943665,0.5307332873344421,0.4054914116859436,0.04098667949438095,0.9662892818450928,0.5475672483444214,0.39734727144241333,0.09501580893993378,0.9337762594223022,0.5309020280838013,0.490305632352829,0.11536705493927002,0.9678929448127747,0.5466560125350952,0.4659065306186676,0.17139092087745667,0.935917317867279,0.5195224285125732,0.3311004340648651,-0.024048849940299988,0.5531287789344788,0.573358952999115,0.3361629545688629,-0.026764150708913803,0.7447775602340698,178.89261039233554,0.543868750333786,0.3310006707906723,172.73710015150164,174.57343302989247,0.3305261682740859,0.03111316159485789,-0.039610638244451137,-0.42524344048695945,-0.8906763562308604,0.18959277437464525,5.6488285115060615,78,1761939719.6587892
0.5510364770889282,0.16972821950912476,0.03723018616437912,0.9997907876968384,0.5276587605476379,0.22032110393047333,-0.051486242562532425,0.9998390078544617,0.5666365027427673,0.22089610993862152,-0.034268710762262344,0.9997620582580566,0.534089207649231,0.32784080505371094,-0.012772766873240471,0.9999161958694458,0.5560261011123657,0.32888320088386536,0.012626951560378075,0.999816358089447,0.5314345359802246,0.4025184214115143,0.035659465938806534,0.9692489504814148,0.5484366416931152,0.39582741260528564,0.09106548130512238,0.9374408721923828,0.530861496925354,0.48856624960899353,0.0796748697757721,0.9704684019088745,0.5464539527893066,0.4667547047138214,0.15165790915489197,0.9396951198577881,0.52006596326828,0.32984060049057007,-0.018089311197400093,0.5502796173095703,0.5743240118026733,0.3339984714984894,-0.018692363053560257,0.7507031559944153,178.88883443137192,0.5450576543807983,0.32836200296878815,173.9063569015071,170.47799536883508,0.3180058911371164,0.02210040552219292,-0.04904990360538037,-0.16753712343653673,-0.1754654573111748,0.8451753741591228,1.6342451567707406,79,1761939719.7125847
0.5516484379768372,0.16844265162944794,0.03362708538770676,0.9998001456260681,0.5280793905258179,0.21755358576774597,-0.05631880834698677,0.9998403787612915,0.5676763653755188,0.2184598296880722,-0.0385814905166626,0.9997662901878357,0.5353209376335144,0.32394593954086304,-0.012898671440780163,0.9999195337295532,0.5574497580528259,0.32523617148399353,0.012743750587105751,0.9998201131820679,0.5322543382644653,0.39735063910484314,0.05377430468797684,0.9718496203422546,0.5499244928359985,0.3936048150062561,0.09636829793453217,0.941205620765686,0.5309314131736755,0.4793613851070404,0.10960422456264496,0.9727674126625061,0.5464524626731873,0.46451085805892944,0.15833383798599243,0.9436017870903015,0.520632266998291,0.32833394408226013,-0.022440697997808456,0.5533662438392639,0.5751413702964783,0.33201009035110474,-0.019877541810274124,0.7541874647140503,179.19772378636142,0.5463853478431702,0.3245910555124283,171.89488537360918,170.21848704482196,0.3199135247256423,0.032958789306407985,-0.09361035978716982,0.26954955604943376,-1.1061730198395145,1.311082196371348,0.6222822722299636,80,1761939719.7528682
0.552200198173523,0.1669601947069168,0.023752521723508835,0.9998061656951904,0.5284000635147095,0.21631772816181183,-0.060971565544605255,0.9998372197151184,0.5683919191360474,0.21587428450584412,-0.046366091817617416,0.9997697472572327,0.5363640189170837,0.32108092308044434,-0.011408934369683266,0.9999209046363831,0.5585978627204895,0.3223589062690735,0.011249602772295475,0.9998238682746887,0.5328288078308105,0.3908460736274719,0.0715273842215538,0.974220871925354,0.551301121711731,0.3914858400821686,0.09973491728305817,0.9454597234725952,0.5315894484519958,0.46479395031929016,0.15070673823356628,0.9748469591140747,0.5466781854629517,0.4601552188396454,0.18260343372821808,0.9474058747291565,0.5214125514030457,0.3270377218723297,-0.03369050472974777,0.5524472594261169,0.576020359992981,0.32772549986839294,-0.03560660034418106,0.7489643096923828,179.5036424866372,0.5474809408187866,0.3217199146747589,176.70393442404912,177.8007413497189,0.32851275136768243,0.022103706197840255,-0.05792557541066404,-0.2190024700093704,0.7199443654225244,-0.6352895689962502,0.3120751628843869,81,1761939719.8024342
0.5521400570869446,0.16447517275810242,0.023547185584902763,0.9998128414154053,0.5284417271614075,0.2140563279390335,-0.06161009147763252,0.999835729598999,0.5689457654953003,0.2135252058506012,-0.049084752798080444,0.999774694442749,0.5369227528572083,0.3201008141040802,-0.010181847028434277,0.999923825263977,0.5592360496520996,0.3206232786178589,0.010008517652750015,0.9998303055763245,0.5330643057823181,0.38599950075149536,0.08568777143955231,0.9762217402458191,0.5521760582923889,0.3888779878616333,0.11148063838481903,0.9489167332649231,0.5315793752670288,0.45350024104118347,0.1621132791042328,0.9767539501190186,0.5473324060440063,0.45275741815567017,0.19384433329105377,0.9508315920829773,0.5220593214035034,0.32468894124031067,-0.035089462995529175,0.5522094368934631,0.5763545036315918,0.3258020281791687,-0.030054036527872086,0.743972897529602,179.6697141090232,0.5480794012546539,0.32036204636096954,172.93392561062018,176.01734854303982,0.3276140215717717,0.011213574450405857,-0.025442880628286285,-0.2040524248651583,0.608640261680997,-0.751266079604708,0.19408799999436946,82,1761939719.8558035
0.5519967079162598,0.16218844056129456,0.02432117611169815,0.9998236298561096,0.5285906195640564,0.21215447783470154,-0.06332799047231674,0.9998305439949036,0.5689502954483032,0.21127209067344666,-0.04622698202729225,0.9997817277908325,0.5372670292854309,0.316254198551178,-0.01095268689095974,0.9999263286590576,0.5599132776260376,0.316787987947464,0.01073459442704916,0.9998376369476318,0.5331476926803589,0.37705183029174805,0.09709443151950836,0.9776661992073059,0.5529628396034241,0.38376447558403015,0.1263435035943985,0.9506164789199829,0.531815767288208,0.4436779320240021,0.14598912000656128,0.9786657094955444,0.5476502180099487,0.44780659675598145,0.1695336401462555,0.9546977281570435,0.5226895809173584,0.3201215863227844,-0.0447675958275795,0.5501568913459778,0.576867401599884,0.322829931974411,-0.04423178732395172,0.7470811605453491,179.9014324311578,0.5485901534557343,0.316521093249321,155.61576648327218,154.10028915931062,0.3136231141899044,0.012497301901211665,-0.09398207295659124,0.03141078878888676,-1.6770460837570298,-1.2524631604169953,0.05425495398903551,83,1761939719.8966725
0.551935076713562,0.16100995242595673,0.015668239444494247,0.9998226761817932,0.5291552543640137,0.2098909616470337,-0.06867384165525436,0.9998223781585693,0.5692706108093262,0.20982304215431213,-0.04942457750439644,0.9997799396514893,0.5371917486190796,0.31347814202308655,-0.010139046236872673,0.9999228119850159,0.5598393678665161,0.3142605423927307,0.009940112009644508,0.9998365044593811,0.5332397222518921,0.3724021911621094,0.09463049471378326,0.9783289432525635,0.553284764289856,0.38069355487823486,0.116196408867836,0.9525747299194336,0.5326691269874573,0.4363090395927429,0.16436566412448883,0.9798362851142883,0.5477548837661743,0.4466554522514343,0.17790944874286652,0.9576779007911682,0.5225691795349121,0.31801140308380127,-0.04891040176153183,0.5560758113861084,0.5770515203475952,0.3210270404815674,-0.04346822202205658,0.7429062724113464,179.61585319766155,0.5485155582427979,0.31386934220790863,166.7431562569935,165.10463119521256,0.32089382410016865,-0.0013363587827015483,-0.04750560597971169,-0.2478273500958032,0.8326168984388416,-0.09700765257973208,0.22855456312668687,84,1761939719.9524922
0.551726222038269,0.15945295989513397,0.012144445441663265,0.9998210668563843,0.5294954180717468,0.2086200714111328,-0.06851144134998322,0.9998101592063904,0.5692696571350098,0.20822755992412567,-0.05274417996406555,0.9997825026512146,0.5373542904853821,0.3103260397911072,-0.008819490671157837,0.9999203681945801,0.5596959590911865,0.31125372648239136,0.00862845964729786,0.9998388886451721,0.5339741706848145,0.36864322423934937,0.09926636517047882,0.9788639545440674,0.5538774728775024,0.376071959733963,0.11341255903244019,0.9538549184799194,0.532833993434906,0.4313126802444458,0.16289231181144714,0.9809519648551941,0.5482128858566284,0.442922979593277,0.17229649424552917,0.9602981209754944,0.522742748260498,0.3154892921447754,-0.0505264587700367,0.5538797974586487,0.5771917104721069,0.317668080329895,-0.04774202033877373,0.7388588786125183,179.5201047766216,0.5485251247882843,0.31078988313674927,163.74630958582364,163.0980195655134,0.31841477932466145,0.00020331485553877804,-0.06544679864608774,0.03272221135404377,-0.3812986621266948,-0.5654041946402982,0.25192963381275735,85,1761939719.999545
0.5515879392623901,0.15862353146076202,0.010340949520468712,0.9998227953910828,0.5302686095237732,0.2068432718515396,-0.06683750450611115,0.9997993111610413,0.5694875717163086,0.20636768639087677,-0.05582047253847122,0.999783992767334,0.5380277633666992,0.30624210834503174,-0.00525324884802103,0.999919056892395,0.5599051117897034,0.30769607424736023,0.00504342932254076,0.9998441338539124,0.5356606841087341,0.3655758202075958,0.10415416955947876,0.9785277247428894,0.5554836392402649,0.3712519705295563,0.1117267832159996,0.9545657634735107,0.5339686274528503,0.4286225140094757,0.16510072350502014,0.9818012118339539,0.5482335090637207,0.43954187631607056,0.16439135372638702,0.9627150297164917,0.5230796337127686,0.31419244408607483,-0.04635912925004959,0.5564332604408264,0.5776079893112183,0.3128780424594879,-0.047877486795186996,0.7310986518859863,179.47956800267332,0.5489664375782013,0.306969091296196,162.48804607303634,158.27390955837927,0.315956296677977,0.00585967178240389,-0.05073178626601833,0.07510408905617828,0.19538328548654785,-0.6947584186699984,0.20385375639388859,86,1761939720.0748587
0.5515138506889343,0.1570061296224594,0.006430534180253744,0.9998200535774231,0.5304278135299683,0.2057865709066391,-0.06582902371883392,0.9997961521148682,0.569412112236023,0.20441225171089172,-0.06076424568891525,0.9997897744178772,0.5378056764602661,0.30443376302719116,-0.0008014059858396649,0.9999176859855652,0.5596021413803101,0.305595338344574,0.0006084583001211286,0.9998488426208496,0.5368857383728027,0.3645976185798645,0.10205408185720444,0.9768967628479004,0.5560324788093567,0.37016746401786804,0.09981130063533783,0.9557139277458191,0.535383939743042,0.42939865589141846,0.17498217523097992,0.9818722009658813,0.5482152104377747,0.4406549632549286,0.16235998272895813,0.9646769165992737,0.5231231451034546,0.3136347234249115,-0.046199094504117966,0.567123293876648,0.5777167081832886,0.31028446555137634,-0.04550617188215256,0.7339299917221069,179.3026950654786,0.5487039089202881,0.30501455068588257,168.6694745116874,164.35996579615644,0.32204325797564826,-0.006670452824473724,-0.04966189610782978,-0.3183713570142372,0.02718427726821684,-2.019020387035645,0.2609259138534971,87,1761939720.1142156
0.5514509677886963,0.15587392449378967,0.00487786578014493,0.9998166561126709,0.5306978821754456,0.20510169863700867,-0.06744541227817535,0.9997966289520264,0.5693950057029724,0.20328262448310852,-0.06005328148603439,0.9997910857200623,0.5378357768058777,0.303780198097229,-0.0011523589491844177,0.9999146461486816,0.5594068765640259,0.3045080304145813,0.000993640860542655,0.9998478293418884,0.5372626781463623,0.366291880607605,0.09487821161746979,0.9748009443283081,0.556477963924408,0.37036657333374023,0.09327706694602966,0.9566525816917419,0.5365902185440063,0.43196216225624084,0.17078210413455963,0.9815651178359985,0.548229455947876,0.4391409158706665,0.16508661210536957,0.9656487107276917,0.522916316986084,0.3124726712703705,-0.044736139476299286,0.5843523740768433,0.5778223276138306,0.30669280886650085,-0.02813851833343506,0.7266608476638794,179.1831308010872,0.5486213266849518,0.30414411425590515,172.16002716963513,171.1088550954793,0.3238652958052689,-0.0016827308456527125,-0.0177363839079678,0.10163195012974521,0.6505278517007297,-2.691378405461772,0.3194267471349062,88,1761939720.163292
0.5517091155052185,0.15566028654575348,0.0015278862556442618,0.9998027682304382,0.5313083529472351,0.2040688693523407,-0.06918483972549438,0.9997954964637756,0.5695491433143616,0.2021232396364212,-0.061294376850128174,0.9997881650924683,0.537979245185852,0.30317553877830505,-0.0004889186820946634,0.9999104738235474,0.5593360066413879,0.30390092730522156,0.0003442814922891557,0.9998437166213989,0.5386880040168762,0.36689746379852295,0.09236039221286774,0.971845269203186,0.5565290451049805,0.3694224953651428,0.09116590023040771,0.9580217003822327,0.5380975604057312,0.43124842643737793,0.17505379021167755,0.9808717370033264,0.5484515428543091,0.43725648522377014,0.16712528467178345,0.9664129018783569,0.5229519009590149,0.3108365833759308,-0.04405118525028229,0.602714478969574,0.5779616236686707,0.3037635087966919,-0.011759125627577305,0.7158877849578857,178.98979379059682,0.54865762591362,0.3035382330417633,176.42592141689568,173.24959542940522,0.32624514127805626,0.0008557216726618705,-0.014283104766187051,0.05984173533822465,0.08140795030062703,-2.912605352719453,0.40856592311114703,89,1761939720.2057114
0.5519959330558777,0.1554148942232132,0.0001415291626472026,0.9997937083244324,0.5314720869064331,0.20340025424957275,-0.07023142278194427,0.9998023509979248,0.5695061087608337,0.20069468021392822,-0.06187192723155022,0.9997905492782593,0.5378318428993225,0.3021412193775177,-0.0007846251828595996,0.9999093413352966,0.5592678189277649,0.3028615713119507,0.0006363957072608173,0.9998427033424377,0.5395506620407104,0.3680877387523651,0.09167523682117462,0.9684162735939026,0.5561420321464539,0.36862683296203613,0.09255863726139069,0.9584516882896423,0.5395431518554688,0.4315494894981384,0.17454811930656433,0.9796820282936096,0.5484621524810791,0.4366677701473236,0.170537531375885,0.9663853645324707,0.5229851603507996,0.3097412586212158,-0.0471067875623703,0.6217769384384155,0.5780372023582458,0.301632285118103,-0.017947951331734657,0.7123841047286987,178.8940401652108,0.5485498309135437,0.3025013953447342,177.74211500299822,173.82970511415152,0.3278052740970097,-0.002395567306367692,-0.023042019455953883,-0.07225457188370728,-0.19465253170572225,-4.068917219302285,0.5044007282149315,90,1761939720.250709
0.551528811454773,0.15550664067268372,0.0033681083004921675,0.9997916221618652,0.531438946723938,0.20403867959976196,-0.06909896433353424,0.9998100399971008,0.5693372488021851,0.20013657212257385,-0.06125863268971443,0.9997940063476562,0.5377413034439087,0.3010867238044739,-0.0007018527830950916,0.9999087452888489,0.5589812397956848,0.30184265971183777,0.000544615788385272,0.9998430013656616,0.5393844842910767,0.36887356638908386,0.08833248168230057,0.9667566418647766,0.5558892488479614,0.36871451139450073,0.08758299797773361,0.9600757956504822,0.5398778915405273,0.4305620491504669,0.16826951503753662,0.9789827466011047,0.5484634637832642,0.43649885058403015,0.16318142414093018,0.9669299125671387,0.5229970216751099,0.30995187163352966,-0.045617103576660156,0.6422708630561829,0.5780186653137207,0.29929089546203613,-0.007120090536773205,0.7074774503707886,178.83159675893754,0.5483612716197968,0.3014646917581558,178.98230722441232,174.8992683836072,0.3220423782308976,-0.0041181325404718635,-0.022641592943394066,-0.037620802468479396,0.008745309863396398,-5.878606851168905,0.5845733235960688,91,1761939720.2964966
0.5503392815589905,0.15587688982486725,0.0070946114137768745,0.9997970461845398,0.5314512252807617,0.20456786453723907,-0.06215909123420715,0.9998166561126709,0.5687265992164612,0.20021754503250122,-0.057170964777469635,0.9998008012771606,0.5376749634742737,0.3004431128501892,-0.0003535150899551809,0.9999083876609802,0.5589490532875061,0.30093806982040405,0.00019871564290951937,0.9998458623886108,0.5392657518386841,0.36882007122039795,0.08806983381509781,0.9650406241416931,0.555752158164978,0.3683811128139496,0.08353054523468018,0.9613764882087708,0.5405035018920898,0.42893707752227783,0.1694261133670807,0.9780015349388123,0.5484504699707031,0.4358220100402832,0.15826959908008575,0.9672836661338806,0.5230792760848999,0.30943337082862854,-0.04038720950484276,0.6586417555809021,0.577968955039978,0.2997317910194397,-0.01580735482275486,0.7076163291931152,178.9643927387498,0.5483120083808899,0.30069059133529663,178.52967082696642,175.9994534765201,0.3178988265366332,-0.0011737389229720518,-0.018443606566689388,0.07015270351882487,0.10002062628810464,-6.656738960380207,0.585862838181518,92,1761939720.3395286
0.5492790341377258,0.15599101781845093,0.01873425766825676,0.9998052716255188,0.531440019607544,0.20478740334510803,-0.05400468781590462,0.9998222589492798,0.5682743787765503,0.2006313055753708,-0.04805797338485718,0.9998093843460083,0.53777015209198,0.29990947246551514,5.191554009797983e-05,0.9999051690101624,0.5589191317558289,0.3004017174243927,-0.0001977858628379181,0.9998499155044556,0.5392729640007019,0.3678390383720398,0.08539383858442307,0.9636768102645874,0.5556446313858032,0.36856523156166077,0.06990712136030197,0.9630866646766663,0.5415233969688416,0.4279946982860565,0.1689583957195282,0.9767389893531799,0.5484660267829895,0.4357699453830719,0.13237914443016052,0.9677503705024719,0.5235252380371094,0.30858808755874634,-0.03177711367607117,0.6724668145179749,0.57793128490448,0.2986248731613159,-0.015439587645232677,0.7055104970932007,179.1107282502401,0.5483446419239044,0.3001555949449539,177.090211171047,176.0491446351297,0.3058448669062773,0.0008257370551577271,-0.013537186069099486,0.05059338501199706,0.1241487389598477,-6.437575649359478,0.6135921344015008,93,1761939720.3779883
0.5485339164733887,0.15700913965702057,0.018947990611195564,0.9998130798339844,0.5313581228256226,0.20583871006965637,-0.0533638522028923,0.9998272657394409,0.5677162408828735,0.20110143721103668,-0.04836231470108032,0.9998173713684082,0.5377364158630371,0.29963448643684387,-0.00012614121078513563,0.999901533126831,0.5585469603538513,0.30003681778907776,-1.7480977476225235e-05,0.9998506903648376,0.539183497428894,0.3673171103000641,0.07929332554340363,0.962053120136261,0.555320143699646,0.3683011829853058,0.06811237335205078,0.9638435244560242,0.541718602180481,0.42795440554618835,0.1585189700126648,0.9749889969825745,0.5484691858291626,0.43483683466911316,0.13111454248428345,0.967588484287262,0.5237530469894409,0.30831941962242126,-0.03166646510362625,0.6853712797164917,0.5779047012329102,0.2996715009212494,-0.019880056381225586,0.7141380310058594,179.1703436553735,0.5481416881084442,0.2998356521129608,176.81954563808424,177.07277933436993,0.30189852694526426,-0.005341310527009305,-0.008420211330794184,-0.16230350780301003,0.13466783550817202,-7.423520251658761,0.6463831480031816,94,1761939720.4159853
0.5479682683944702,0.15839208662509918,0.010887681506574154,0.9998197555541992,0.5313143730163574,0.20613890886306763,-0.058388810604810715,0.9998324513435364,0.5672398209571838,0.20140144228935242,-0.04969220608472824,0.999819815158844,0.5376896858215332,0.29992207884788513,-0.0020928687881678343,0.9998921155929565,0.5580348372459412,0.300362229347229,0.001970050623640418,0.9998377561569214,0.5391228795051575,0.3678789436817169,0.06939776986837387,0.9612407684326172,0.5547903776168823,0.36795133352279663,0.06964263319969177,0.9628727436065674,0.5422608256340027,0.42924678325653076,0.14340659976005554,0.97371506690979,0.5484634041786194,0.4342949688434601,0.13141173124313354,0.9663574695587158,0.5237358808517456,0.30790072679519653,-0.033749669790267944,0.6984347105026245,0.5778958201408386,0.29971936345100403,-0.01935284584760666,0.7194364070892334,179.1589020147647,0.5478622615337372,0.30014215409755707,175.89699951070247,176.95503717847242,0.3012481376800989,-0.005543100920381774,0.006080207062251104,-0.004002999773374758,0.28765081712318463,-7.512214436601146,0.8867585989363508,95,1761939720.4663951
0.5476912260055542,0.1595114767551422,0.004432768560945988,0.9998209476470947,0.53116774559021,0.20615456998348236,-0.06366966664791107,0.9998323917388916,0.5670372843742371,0.20157386362552643,-0.05643608048558235,0.9998189210891724,0.5374265909194946,0.30024078488349915,-0.0020631549414247274,0.9998769760131836,0.5573188066482544,0.3005325198173523,0.001941040507517755,0.9998189806938171,0.5390611886978149,0.3681744337081909,0.06777156889438629,0.9599825143814087,0.554009735584259,0.3684016764163971,0.06558441370725632,0.9627547860145569,0.5420565009117126,0.42955219745635986,0.13994517922401428,0.9722512364387512,0.5484392642974854,0.4347074627876282,0.12434567511081696,0.9659041166305542,0.5237156748771667,0.30781662464141846,-0.03425988554954529,0.7104113698005676,0.577791154384613,0.30050355195999146,-0.019589316099882126,0.7278426289558411,178.9732899064762,0.5473726987838745,0.3003866523504257,175.98764694659133,177.58727079513875,0.3010602260142667,-0.01084170204228178,0.005414581089357748,-0.11734114701466603,-0.014740742574344216,-7.277545321235843,1.3424209755268335,96,1761939720.5115507
0.5477527379989624,0.1596710979938507,0.006865849252790213,0.9998281002044678,0.5311433672904968,0.20620039105415344,-0.06128368899226189,0.9998334646224976,0.5668929815292358,0.20167219638824463,-0.05447571352124214,0.9998199343681335,0.5372060537338257,0.2989160120487213,-0.002066481625661254,0.9998697638511658,0.5567342042922974,0.2993421256542206,0.001943443901836872,0.9998123645782471,0.5389890074729919,0.36679959297180176,0.06479621678590775,0.9615088105201721,0.5539016723632812,0.3683338165283203,0.06345466524362564,0.9644080996513367,0.5418028831481934,0.4284042716026306,0.13508488237857819,0.9722149968147278,0.5485992431640625,0.43520495295524597,0.11861242353916168,0.9669238924980164,0.5237055420875549,0.3070518374443054,-0.03067329153418541,0.7185596823692322,0.5776085257530212,0.3010372519493103,-0.019574012607336044,0.7337764501571655,178.7674877973988,0.5469701290130615,0.29912906885147095,175.66419416012332,177.05010289983503,0.2974206345007474,-0.011522215322465078,-0.035994128003384675,-0.019477420095984965,-1.185186014907064,-7.218879168539277,1.6446507790776197,97,1761939720.5464892
0.5478135347366333,0.15935151278972626,0.018296008929610252,0.9998377561569214,0.5311054587364197,0.2053002417087555,-0.05631961300969124,0.9998345971107483,0.5666877627372742,0.20078106224536896,-0.04308249056339264,0.9998217821121216,0.5370399355888367,0.29724958539009094,-0.0049858358688652515,0.999859631061554,0.5565402507781982,0.29772108793258667,0.004877259023487568,0.9998011589050293,0.5388361811637878,0.3654060661792755,0.05436277389526367,0.9634843468666077,0.5537718534469604,0.36669498682022095,0.0604918971657753,0.9658008217811584,0.5416915416717529,0.4284381866455078,0.11171375215053558,0.9728994369506836,0.5487329363822937,0.4357350766658783,0.10514672845602036,0.9680877923965454,0.5236899852752686,0.3051643669605255,-0.02893916331231594,0.725969672203064,0.5774345993995667,0.30003786087036133,-0.0247679203748703,0.7424381971359253,178.72227264777203,0.5467900931835175,0.2974853366613388,178.261809262797,173.70819102424161,0.28725492418324833,-0.004058000999553962,-0.03704966332228092,0.16824311727263308,-0.023791727402222667,-7.238176539966012,1.9276715094561778,98,1761939720.590855
0.5478139519691467,0.15901736915111542,0.010742084123194218,0.9998458027839661,0.5310806632041931,0.2040732204914093,-0.06437445431947708,0.9998393058776855,0.5662775635719299,0.19933393597602844,-0.04484453797340393,0.9998206496238708,0.5369353294372559,0.2959825396537781,-0.00638180086389184,0.9998556971549988,0.5563907623291016,0.2965468168258667,0.006255102343857288,0.9997915029525757,0.5383303761482239,0.3634386658668518,0.05998324230313301,0.965446949005127,0.5539930462837219,0.3647586405277252,0.06347855180501938,0.9672060608863831,0.5416541695594788,0.426885187625885,0.1245008334517479,0.9737762808799744,0.5487991571426392,0.4330953359603882,0.12102188169956207,0.9691946506500244,0.5236520767211914,0.30416837334632874,-0.029996773228049278,0.7361662983894348,0.57689368724823,0.2999161183834076,-0.021160632371902466,0.7473708391189575,178.7786239600486,0.5466630458831787,0.2962646782398224,178.1981441853579,177.99505991673678,0.2932257155059815,-0.0028558757483024186,-0.02743898354136632,0.02702237939977895,0.21603691883127749,-7.66878725255849,2.153808133591724,99,1761939720.6353412
0.5478442907333374,0.15892627835273743,0.0006980850594118237,0.9998457431793213,0.531072199344635,0.20305809378623962,-0.06783567368984222,0.999844491481781,0.5659835934638977,0.1982887089252472,-0.05833885818719864,0.9998190402984619,0.5366708636283875,0.2952585518360138,-0.005735536105930805,0.9998613595962524,0.5560628771781921,0.29544952511787415,0.0055831316858530045,0.9997910261154175,0.5375427007675171,0.3618805706501007,0.06358547508716583,0.9666347503662109,0.5540481209754944,0.36200883984565735,0.08213209360837936,0.9677103161811829,0.5413540601730347,0.4240289032459259,0.1378970444202423,0.974555492401123,0.5486919283866882,0.42563870549201965,0.15790769457817078,0.9697855710983276,0.5236426591873169,0.30298301577568054,-0.03508172929286957,0.7439796924591064,0.5763968229293823,0.30000045895576477,-0.021186161786317825,0.7525311708450317,178.69248688286498,0.5463668704032898,0.29535403847694397,175.60127118520245,177.66160384165903,0.3039471557083324,-0.007996047837896987,-0.024585151714105486,-0.1387726692933409,0.07704680961654646,-7.779247913528247,2.7941293532146907,100,1761939720.6723814
0.5478516221046448,0.1586657166481018,-0.007573400624096394,0.9998489618301392,0.5310386419296265,0.20262446999549866,-0.06939233094453812,0.9998515248298645,0.5658531188964844,0.19775371253490448,-0.06199539825320244,0.9998220801353455,0.5364016890525818,0.2943725883960724,-0.0048263962380588055,0.9998695254325867,0.5557799935340881,0.2941505014896393,0.00462039140984416,0.9997971653938293,0.5370988845825195,0.3598695397377014,0.07127459347248077,0.9674519300460815,0.5546165108680725,0.35598260164260864,0.08903475850820541,0.9662324786186218,0.541162371635437,0.4192107617855072,0.15078401565551758,0.9754714369773865,0.5486887097358704,0.4162049889564514,0.17084065079689026,0.9695639610290527,0.5236343145370483,0.30224594473838806,-0.04252723231911659,0.7526174187660217,0.5758024454116821,0.3000927269458771,-0.021544937044382095,0.7581655979156494,178.56593913473978,0.546090841293335,0.29426154494285583,175.4952019037453,177.1823649875992,0.30897436351999047,-0.008411680083699032,-0.03329252521142724,-0.012665930360490704,-0.26534752164630343,-7.964333295034987,2.52373289775868,101,1761939720.7051964
0.5479019284248352,0.15838538110256195,-0.01902737095952034,0.9998481273651123,0.5308924317359924,0.20234788954257965,-0.0725753977894783,0.9998515844345093,0.5656590461730957,0.19758464395999908,-0.06997089833021164,0.9998223781585693,0.5360406637191772,0.2934112250804901,-0.002559150569140911,0.9998780488967896,0.5551236867904663,0.29245996475219727,0.002294233301654458,0.9998066425323486,0.5368540287017822,0.3584764301776886,0.08642342686653137,0.9654030799865723,0.5552113652229309,0.35037070512771606,0.09807036072015762,0.9591270089149475,0.5411490797996521,0.4164547324180603,0.13928629457950592,0.9765764474868774,0.5486356019973755,0.4099704623222351,0.15663723647594452,0.970219612121582,0.5232439637184143,0.3005298674106598,-0.048606596887111664,0.7558597326278687,0.5752727389335632,0.30023565888404846,-0.03622875735163689,0.7652696967124939,178.34045620716145,0.5455821752548218,0.2929355949163437,168.19112467937936,164.94677704462188,0.3046823583217798,-0.011022535880717924,-0.028732666694220855,-0.05657592511216032,0.0988098286722988,-7.801313219061096,2.359967923290711,102,1761939720.7513442
0.5482124090194702,0.1582784652709961,-0.018933037295937538,0.9998341798782349,0.5308501720428467,0.2015603631734848,-0.07102787494659424,0.9998478293418884,0.5651406049728394,0.19771596789360046,-0.07064259052276611,0.9998244643211365,0.5353603363037109,0.29175397753715515,-0.0004562262911349535,0.9998847842216492,0.5540168285369873,0.29045945405960083,0.00018946704221889377,0.9998133778572083,0.5365628004074097,0.35608068108558655,0.0813990980386734,0.9632207155227661,0.5554131269454956,0.34849897027015686,0.08842279016971588,0.9520531892776489,0.5405910611152649,0.41504979133605957,0.10462983697652817,0.9774594306945801,0.5485743880271912,0.4072328209877014,0.11777269840240479,0.9710670113563538,0.5226929783821106,0.2986544072628021,-0.04713994637131691,0.7572056651115417,0.5743579268455505,0.30016449093818665,-0.042471423745155334,0.7762202024459839,177.92952273873482,0.5446885824203491,0.291106715798378,149.52909227768265,149.18532072433936,0.2844076796548164,-0.019956338853096216,-0.04084380490921676,-0.19951592323229944,-0.27047439145791063,-6.396876202639914,2.351524769299971,103,1761939720.7961216
0.5482321977615356,0.15815767645835876,-0.015394365414977074,0.9998224973678589,0.530754029750824,0.20122592151165009,-0.0703667476773262,0.9998460412025452,0.5648425817489624,0.1978534311056137,-0.06726552546024323,0.9998236894607544,0.5348352193832397,0.2912963926792145,-0.0006876233965158463,0.9998911619186401,0.5536276698112488,0.29015326499938965,0.00038334756391122937,0.9998177289962769,0.5365962982177734,0.355320543050766,0.08041665703058243,0.9613879919052124,0.5553783178329468,0.34726226329803467,0.09097961336374283,0.9429664611816406,0.5405698418617249,0.4135867953300476,0.11165739595890045,0.9781643152236938,0.5485163927078247,0.40554216504096985,0.1301688849925995,0.9713348150253296,0.5223193764686584,0.2976926565170288,-0.047017406672239304,0.7582502961158752,0.5736898183822632,0.3000876009464264,-0.04288612678647041,0.7877703905105591,177.75992093538738,0.5442314445972443,0.29072482883930206,156.35835816382945,155.28523693940247,0.28600476645891115,-0.011405546401441922,-0.009528044304588095,0.21334148072466919,0.7813253303929976,-5.65007026312955,2.468090233683815,104,1761939720.836202
0.5482184886932373,0.15795570611953735,-0.012056824751198292,0.9998279213905334,0.5304980874061584,0.20038992166519165,-0.07099912315607071,0.9998506307601929,0.5642620325088501,0.19784310460090637,-0.05952661111950874,0.9998233318328857,0.5343353152275085,0.2902759313583374,-0.006185203790664673,0.9998968243598938,0.5532125234603882,0.2892482578754425,0.005971516016870737,0.9998195767402649,0.5362967252731323,0.35240644216537476,0.06565205752849579,0.9633634686470032,0.5549367666244507,0.34466642141342163,0.09383261203765869,0.942909836769104,0.5404632091522217,0.4136258065700531,0.11015614122152328,0.9792572259902954,0.5487244725227356,0.4047583341598511,0.14809465408325195,0.9720718860626221,0.5218895673751831,0.29591667652130127,-0.04592403769493103,0.7646742463111877,0.5725915431976318,0.2994772791862488,-0.03967040777206421,0.7987141609191895,177.72181131063542,0.5437739193439484,0.28976209461688995,166.70111160284517,163.42832674822245,0.2882104590644631,-0.009898181293004736,-0.020827960427906786,0.03261060020311401,-0.24446436033557917,-4.313656448722249,3.5219480533035545,105,1761939720.882425
0.548222005367279,0.15779240429401398,-0.003570063039660454,0.9998326897621155,0.530262291431427,0.20019030570983887,-0.06736239045858383,0.9998548626899719,0.5638487935066223,0.19789770245552063,-0.05492599681019783,0.9998254776000977,0.5342791676521301,0.29057931900024414,-0.006558859255164862,0.9999020099639893,0.5531623959541321,0.28972142934799194,0.00638029957190156,0.9998222589492798,0.5362627506256104,0.35408926010131836,0.060133159160614014,0.9658030271530151,0.554230809211731,0.3467307686805725,0.09196244925260544,0.945500910282135,0.5403833985328674,0.414909690618515,0.11882730573415756,0.9802249073982239,0.5488106608390808,0.40684470534324646,0.1555635929107666,0.9727329611778259,0.5216482281684875,0.294969767332077,-0.04282062128186226,0.7678290009498596,0.5723296999931335,0.29921290278434753,-0.03856438025832176,0.8074595928192139,177.90374206618924,0.5437207818031311,0.29015037417411804,176.9814801190845,169.4095109877471,0.2896204114263786,-0.001093612761718769,0.007991101439177221,0.18120500796894387,0.593119164979651,-3.9049331604500157,5.124486321080835,106,1761939720.931014
