nose_x,nose_y,nose_z,nose_visibility,left_shoulder_x,left_shoulder_y,left_shoulder_z,left_shoulder_visibility,right_shoulder_x,right_shoulder_y,right_shoulder_z,right_shoulder_visibility,left_hip_x,left_hip_y,left_hip_z,left_hip_visibility,right_hip_x,right_hip_y,right_hip_z,right_hip_visibility,left_knee_x,left_knee_y,left_knee_z,left_knee_visibility,right_knee_x,right_knee_y,right_knee_z,right_knee_visibility,left_ankle_x,left_ankle_y,left_ankle_z,left_ankle_visibility,right_ankle_x,right_ankle_y,right_ankle_z,right_ankle_visibility,left_wrist_x,left_wrist_y,left_wrist_z,left_wrist_visibility,right_wrist_x,right_wrist_y,right_wrist_z,right_wrist_visibility,trunk_lateral_inclination,center_mass_x,center_mass_y,left_knee_angle,right_knee_angle,person_height,center_mass_velocity_x,center_mass_velocity_y,center_mass_acceleration_x,center_mass_acceleration_y,body_orientation,torso_leg_ratio,frame,timestamp
0.5047412514686584,0.31207042932510376,-0.3050921559333801,0.9999853372573853,0.5373667478561401,0.3894707262516022,-0.14286035299301147,0.9999045133590698,0.4728778004646301,0.3782992362976074,-0.13831335306167603,0.9999678134918213,0.518828272819519,0.5401248335838318,0.004782898351550102,0.9995772242546082,0.4821132719516754,0.5377867817878723,-0.004854779224842787,0.9998917579650879,0.5144919753074646,0.6543899774551392,0.030606064945459366,0.920251727104187,0.4864281117916107,0.668620765209198,-0.01330497581511736,0.9779306650161743,0.51255202293396,0.6630953550338745,0.3209061622619629,0.4606548547744751,0.48472508788108826,0.7661742568016052,0.135375514626503,0.9662013053894043,0.5516743063926697,0.547981321811676,-0.15730580687522888,0.7616449594497681,0.44611769914627075,0.5329194068908691,-0.15559351444244385,0.8223187923431396,178.2818719847547,0.5004707723855972,0.538955807685852,104.4559391451586,119.5333581330437,0.668156229106298,0.0,0.0,0.0,0.0,-170.1721239750963,2.5522809545683836,0,1762115400.1017
0.503909707069397,0.3120967745780945,-0.315670371055603,0.9999854564666748,0.5365973711013794,0.38883402943611145,-0.14425913989543915,0.9999093413352966,0.47150206565856934,0.37837082147598267,-0.13929691910743713,0.9999698996543884,0.5186253786087036,0.540105938911438,0.0020253092516213655,0.9995983839035034,0.4820610582828522,0.5384567379951477,-0.002114062663167715,0.9998996257781982,0.5137745141983032,0.6534366011619568,0.00890557374805212,0.9146232008934021,0.48630112409591675,0.6692171096801758,-0.044572461396455765,0.9762369394302368,0.5130783319473267,0.647138237953186,0.31650152802467346,0.43911799788475037,0.48487502336502075,0.77018803358078,0.09669747948646545,0.9632643461227417,0.5483118295669556,0.5482137799263,-0.1486087441444397,0.7490919232368469,0.44608768820762634,0.5348430871963501,-0.15005531907081604,0.8185153603553772,178.6361242777361,0.5003432184457779,0.5392813384532928,92.30448114845404,107.54079759977226,0.6557858154466788,-0.001559703102497274,0.003980522660882647,-0.019071725823484542,0.04867300494624338,-170.8685687156195,3.4896480043625706,1,1762115400.183481
0.502052903175354,0.31111541390419006,-0.31360766291618347,0.9999830722808838,0.5349875688552856,0.38597145676612854,-0.14353224635124207,0.9999045729637146,0.4695003628730774,0.37793639302253723,-0.13637354969978333,0.9999716281890869,0.5173771381378174,0.540100634098053,-0.00013501969806384295,0.9995989799499512,0.4804545044898987,0.5384656190872192,3.8508489524247125e-05,0.9999040961265564,0.5131210088729858,0.6563478112220764,-0.0043610162101686,0.8997360467910767,0.48546871542930603,0.6696850657463074,-0.021067094057798386,0.971215009689331,0.5188758373260498,0.628619909286499,0.2931429147720337,0.4034953713417053,0.4848528504371643,0.7752275466918945,0.10988311469554901,0.955610990524292,0.5449379086494446,0.5382903814315796,-0.12709957361221313,0.7136237025260925,0.4436245858669281,0.5348085761070251,-0.13785555958747864,0.8150820136070251,178.78814487067194,0.49891582131385803,0.5392831265926361,82.55921773320523,119.69655853185017,0.6465914370413065,-0.018218698172633628,2.282306042024862e-05,-0.21262842432224088,-0.05051441737296787,-173.00495962318408,1.294755185724058,2,1762115400.261829
0.5015206336975098,0.31099385023117065,-0.31380605697631836,0.9999788403511047,0.5341465473175049,0.38455718755722046,-0.1438629925251007,0.9998965859413147,0.4685714840888977,0.3776835501194,-0.13598288595676422,0.9999723434448242,0.5168879628181458,0.5401049852371216,-0.001594215864315629,0.9995923638343811,0.4799156188964844,0.5384873151779175,0.0014949438627809286,0.999904990196228,0.5130095481872559,0.6582568287849426,-0.014830164611339569,0.8893795013427734,0.4852724075317383,0.6702049970626831,-0.004946643020957708,0.966084897518158,0.5194302797317505,0.6261623501777649,0.2812037765979767,0.3724415898323059,0.4848184585571289,0.7755371928215027,0.1445769965648651,0.9465782642364502,0.5438640713691711,0.5355526804924011,-0.1285376250743866,0.6785935759544373,0.4424263834953308,0.5346204042434692,-0.13398756086826324,0.8079485297203064,178.92893359417874,0.49840179085731506,0.5392961502075195,77.38941322223879,122.32470176849588,0.655284020483441,-0.006279581167081713,0.00015910116941179897,0.14585255279203815,0.0016648224551988457,-174.01605675952976,0.9908971590979168,3,1762115400.3436863
0.500335156917572,0.3089461028575897,-0.3212699890136719,0.9999769926071167,0.5339266061782837,0.3827468752861023,-0.14857226610183716,0.9998986124992371,0.4667894244194031,0.37635910511016846,-0.14063087105751038,0.9999732971191406,0.516315758228302,0.5401038527488708,-0.0010006565134972334,0.9995943307876587,0.47864994406700134,0.5384851098060608,0.0009035231778398156,0.9999051690101624,0.5132510662078857,0.6639782190322876,-0.01738438382744789,0.8786683678627014,0.4847872257232666,0.6702048182487488,-0.007010926958173513,0.9585915803909302,0.5205577611923218,0.6333788633346558,0.2856622636318207,0.34255069494247437,0.4848167300224304,0.7748013138771057,0.14409562945365906,0.9351953864097595,0.5414532423019409,0.5364701747894287,-0.1327855885028839,0.6678300499916077,0.4412410855293274,0.535321831703186,-0.13869181275367737,0.8080464601516724,178.96885283516497,0.4974828511476517,0.5392944812774658,76.67369057076343,121.21413553844171,0.6660330193710546,-0.011817860570363306,-2.1462977896198905e-05,-0.0712240564853503,-0.002322113077118088,-174.56495148185536,0.7836157182641299,4,1762115400.421445
0.49900174140930176,0.3074137270450592,-0.34398433566093445,0.9999767541885376,0.5338507890701294,0.38177159428596497,-0.16673459112644196,0.9999032020568848,0.4649806022644043,0.3757327198982239,-0.15691252052783966,0.9999735355377197,0.5157068371772766,0.5405982732772827,-0.0009532597614452243,0.9995908141136169,0.4774947166442871,0.5386996269226074,0.0008411798626184464,0.9999011754989624,0.513398289680481,0.6736816167831421,-0.025445889681577682,0.86968594789505,0.4842616021633148,0.670531690120697,-0.008144267834722996,0.9505667686462402,0.5193823575973511,0.6474042534828186,0.2791740596294403,0.31658321619033813,0.48481735587120056,0.7751075029373169,0.14316712319850922,0.9239495992660522,0.5403029322624207,0.537907063961029,-0.15298256278038025,0.6793022155761719,0.4388955235481262,0.5368919372558594,-0.15866655111312866,0.809508740901947,178.99770213447837,0.49660077691078186,0.5396489500999451,74.62754834737513,120.71449861791051,0.6865093403819763,-0.01144142423745744,0.004597830893836263,0.004882772450596424,0.05991706667630389,-174.9888429469255,0.8605917183166968,5,1762115400.4985397
0.49779829382896423,0.3062138855457306,-0.3579098582267761,0.9999731779098511,0.5331050157546997,0.38104692101478577,-0.16976578533649445,0.9999064207077026,0.4635257124900818,0.3754807710647583,-0.1652614176273346,0.9999589920043945,0.5152201652526855,0.5422624349594116,0.0014280045870691538,0.999579668045044,0.4766615331172943,0.5396098494529724,-0.0015010389033704996,0.9998877048492432,0.5139127969741821,0.6820058822631836,-0.016685109585523605,0.872069239616394,0.48370155692100525,0.6707078814506531,-0.04022262245416641,0.9471121430397034,0.5164319276809692,0.6828786134719849,0.2881212830543518,0.30944547057151794,0.4847818911075592,0.7748262286186218,0.12488602101802826,0.9198505878448486,0.5390068888664246,0.5387810468673706,-0.15956318378448486,0.6961404085159302,0.4347189962863922,0.5377433896064758,-0.1787019520998001,0.7809119820594788,179.16371732596218,0.49594084918498993,0.540936142206192,82.77502536570213,105.77518173502655,0.7051197278320758,-0.008217121864331305,0.0160275345109099,0.04014755630343606,0.14231750512069594,-175.42623773006983,1.3186383917228692,6,1762115400.578851
0.4968416690826416,0.30547797679901123,-0.3494175374507904,0.9999703168869019,0.5325287580490112,0.38084670901298523,-0.16704848408699036,0.9999102354049683,0.46186351776123047,0.37550193071365356,-0.16281895339488983,0.9999499320983887,0.5149286985397339,0.5444453954696655,0.001607178128324449,0.9995791912078857,0.47571372985839844,0.5421668887138367,-0.001669220277108252,0.9998722076416016,0.5153800249099731,0.6916235089302063,-0.037559397518634796,0.8755446076393127,0.482902854681015,0.6718111038208008,-0.030900007113814354,0.9419286251068115,0.5164185762405396,0.6914246678352356,0.2796783745288849,0.30054771900177,0.4847656190395355,0.774537980556488,0.15321239829063416,0.910494863986969,0.5382626056671143,0.5407403111457825,-0.1623358130455017,0.7163378000259399,0.43242281675338745,0.5444833040237427,-0.17858755588531494,0.777786374092102,179.3494857750043,0.49532121419906616,0.5433061420917511,75.0631260060418,106.4562269006959,0.709206617531088,-0.007972005288213787,0.030491583028637335,0.003153583457080844,0.186089349200321,-175.67465871822236,1.2915741220303512,7,1762115400.6565773
0.4967632293701172,0.30537474155426025,-0.3628338873386383,0.9999682903289795,0.5325676202774048,0.3810780346393585,-0.17712004482746124,0.9999094605445862,0.46162405610084534,0.37551286816596985,-0.17137274146080017,0.999920129776001,0.5150138139724731,0.5470634698867798,0.0015495754778385162,0.9995695948600769,0.475175142288208,0.54413902759552,-0.0016107794363051653,0.9998222589492798,0.5154284238815308,0.6948868036270142,-0.045664988458156586,0.8848524689674377,0.48214441537857056,0.6728312373161316,-0.027599874883890152,0.9424059391021729,0.5161576867103577,0.7305279970169067,0.2549121677875519,0.3417936861515045,0.48458781838417053,0.7743997573852539,0.1918742060661316,0.9073954224586487,0.5376722812652588,0.5443877577781677,-0.17422325909137726,0.7265826463699341,0.4300411641597748,0.549999475479126,-0.18821734189987183,0.7649016380310059,179.31464409868548,0.4950944781303406,0.5456012487411499,79.04959564895262,103.42782990830307,0.7372678661604964,-0.0027800514499532274,0.02814071269878391,0.06365947366590159,-0.028824441148227124,-175.51461910809772,1.260831950929279,8,1762115400.7381356
0.49674898386001587,0.305329293012619,-0.36314839124679565,0.999966561794281,0.5326417684555054,0.38123250007629395,-0.17654471099376678,0.9999092221260071,0.4613388478755951,0.37552961707115173,-0.17032286524772644,0.9998948574066162,0.5150793790817261,0.550338089466095,0.0008862910908646882,0.999561607837677,0.47490471601486206,0.5475908517837524,-0.0009504790650680661,0.999769926071167,0.5154091715812683,0.7001246213912964,-0.04871370643377304,0.8932165503501892,0.48177027702331543,0.6747127771377563,-0.02242758497595787,0.9420759081840515,0.5153446793556213,0.7407737970352173,0.2503967583179474,0.3771436810493469,0.48435139656066895,0.7742511034011841,0.2070423811674118,0.9013683199882507,0.5376490354537964,0.5474928021430969,-0.17096267640590668,0.7371909618377686,0.4294615387916565,0.5513858199119568,-0.18496909737586975,0.7578350901603699,179.32885230884287,0.49499204754829407,0.5489644706249237,79.41765506135778,103.87168048582369,0.7448401808727493,-0.001230728023788107,0.040409918013532636,0.01861549276003366,0.14741744612575797,-175.42715715368084,1.5867854747451349,9,1762115400.8213632
0.496864378452301,0.30536794662475586,-0.3653867840766907,0.9999663233757019,0.5327082872390747,0.38188454508781433,-0.18702483177185059,0.999914824962616,0.46087759733200073,0.37596240639686584,-0.17778754234313965,0.9998795390129089,0.515064537525177,0.5531840920448303,0.0005580280558206141,0.9995802044868469,0.4747578203678131,0.550264298915863,-0.0006424157181754708,0.9997301697731018,0.5147231221199036,0.6958804130554199,-0.00863675121217966,0.902000904083252,0.4814370274543762,0.6770214438438416,0.015214581973850727,0.9444550275802612,0.5148674249649048,0.7644788026809692,0.2572886645793915,0.43421798944473267,0.48422369360923767,0.7729122638702393,0.2505205571651459,0.9045913219451904,0.5382747054100037,0.5539720058441162,-0.19361591339111328,0.7543599009513855,0.4293740391731262,0.5537497997283936,-0.19252462685108185,0.7584799528121948,179.37608572512735,0.49491117894649506,0.5517241954803467,100.7775368617646,119.29300795932109,0.7734348538436809,-0.0008801058137905623,0.030034523111413254,0.0038158770968970504,-0.11291706757121008,-175.28686321952307,1.2831798352664299,10,1762115400.9132483
0.49701613187789917,0.3054373562335968,-0.3865125775337219,0.9999642372131348,0.5327657461166382,0.38358086347579956,-0.20004026591777802,0.9999165534973145,0.4603725075721741,0.37620052695274353,-0.19266054034233093,0.9998619556427002,0.514889121055603,0.5565336346626282,-0.0004485035315155983,0.999597430229187,0.47431129217147827,0.5520601868629456,0.0003435216494835913,0.9996780753135681,0.5134693384170532,0.703920304775238,-0.016485413536429405,0.9102360606193542,0.4812503457069397,0.6823583841323853,0.008470358327031136,0.9462444186210632,0.5132268667221069,0.785534143447876,0.2275109589099884,0.48647892475128174,0.4837397634983063,0.7721229791641235,0.26144108176231384,0.9016095399856567,0.5386896729469299,0.5585766434669495,-0.20117878913879395,0.7505647540092468,0.429037481546402,0.5570365190505981,-0.20583614706993103,0.7517896294593811,179.35319950070905,0.49460020661354065,0.5542969107627869,102.28425704401309,113.10024727389349,0.7888269748863355,-0.004023706105374864,0.033288653337734495,-0.04067539888817211,0.04210555818563253,-174.17892853341607,1.7509714741491273,11,1762115400.9905334
0.49710482358932495,0.30819228291511536,-0.4188598096370697,0.9999626278877258,0.5327805876731873,0.386841356754303,-0.22239069640636444,0.9999209046363831,0.4595062732696533,0.3786171078681946,-0.22294044494628906,0.9998645782470703,0.5147813558578491,0.5629296898841858,-0.0016561715165153146,0.999625027179718,0.47386473417282104,0.5581738948822021,0.0015718627255409956,0.999646008014679,0.5127544403076172,0.7138697504997253,-0.03731340169906616,0.9186245799064636,0.4811427593231201,0.6890411376953125,0.04888029024004936,0.9490482807159424,0.5137349367141724,0.8193775415420532,0.17382144927978516,0.5367691516876221,0.48367300629615784,0.7711234092712402,0.34233343601226807,0.9009436368942261,0.5398114919662476,0.5663710236549377,-0.23717792332172394,0.735795259475708,0.4279763102531433,0.5688493251800537,-0.2385718822479248,0.7568648457527161,179.41347846743236,0.4943230450153351,0.560551792383194,103.25571411159542,125.47419077610314,0.8339498088468891,-0.003504334824496883,0.07908454716457863,0.006566749788599353,0.5790273493709008,-173.5959708724407,1.0364465942264056,12,1762115401.0696244
0.49717220664024353,0.31198590993881226,-0.4721654951572418,0.9999566674232483,0.5334432125091553,0.39378777146339417,-0.26517045497894287,0.9999245405197144,0.45883673429489136,0.3848917782306671,-0.253557026386261,0.9998590350151062,0.5147942304611206,0.5720469355583191,-0.009136551059782505,0.9996503591537476,0.4736855924129486,0.5664806962013245,0.0091810692101717,0.9995777010917664,0.5124644637107849,0.7282384037971497,-0.07369197905063629,0.9261603355407715,0.4809977114200592,0.6990104913711548,0.08485077321529388,0.9495009779930115,0.5149577856063843,0.853281557559967,0.132084459066391,0.5824629068374634,0.48377886414527893,0.7695156335830688,0.4308299422264099,0.8907504677772522,0.5436159372329712,0.585108757019043,-0.288645476102829,0.6994868516921997,0.42886853218078613,0.5832715034484863,-0.2674546241760254,0.7399007081985474,179.3949586496745,0.4942399114370346,0.5692638158798218,98.81999629452334,131.21174802989,0.9040824194378108,-0.0010727591850798984,0.11242031700908817,0.03137715415031232,0.4301661738070801,-173.20022010971869,0.720201309219508,13,1762115401.1471195
0.497685045003891,0.3147547245025635,-0.4530845284461975,0.9999536871910095,0.5339568853378296,0.39772874116897583,-0.24447473883628845,0.9999293684959412,0.45817843079566956,0.3917541205883026,-0.24614743888378143,0.9998507499694824,0.5151838064193726,0.582776665687561,-0.010005716234445572,0.9996733665466309,0.47363224625587463,0.5779973864555359,0.010061169043183327,0.9994896650314331,0.5124762654304504,0.7404562830924988,-0.07239904999732971,0.9331101179122925,0.48108285665512085,0.70852130651474,0.09606026113033295,0.9488765001296997,0.5161489248275757,0.8766157627105713,0.11558656394481659,0.6237103343009949,0.48396024107933044,0.770748496055603,0.442098468542099,0.8779783844947815,0.5487022995948792,0.5908092260360718,-0.2755977511405945,0.6839257478713989,0.4294586777687073,0.5992238521575928,-0.2715032398700714,0.7263020873069763,179.48780168761624,0.4944080263376236,0.5803870260715485,104.30856041990285,133.54052106795598,0.8914762570571644,0.002057809827875024,0.1361536138073531,0.03831971859204479,0.2905073329504924,-175.4919394756374,0.506599703659449,14,1762115401.2288156
0.4979642927646637,0.31784722208976746,-0.43979525566101074,0.9999499320983887,0.5346287488937378,0.39994531869888306,-0.2332264631986618,0.9999333620071411,0.4583226144313812,0.3910409212112427,-0.23147907853126526,0.9998157620429993,0.5154098272323608,0.5851526856422424,-0.011678027920424938,0.999695360660553,0.47369319200515747,0.5808693170547485,0.011718271300196648,0.9994152188301086,0.5123469233512878,0.7402669191360474,-0.06815002858638763,0.9393230676651001,0.48109522461891174,0.7143914103507996,0.10856153070926666,0.948643684387207,0.5164605379104614,0.8698363304138184,0.10024876892566681,0.6607053279876709,0.4839772582054138,0.772433876991272,0.4495401978492737,0.864867091178894,0.5489794611930847,0.5915284752845764,-0.2461710423231125,0.6818276047706604,0.42980819940567017,0.5934034585952759,-0.2480463683605194,0.6962934136390686,179.41209303797734,0.49455150961875916,0.5830110013484955,107.54188403325291,135.58245825412524,0.8741196703681319,0.0017714017860822164,0.032394816005274656,-0.0035359082449526996,-1.280975165146227,-173.34408217896367,0.5499482122402612,15,1762115401.3098154
0.4982236325740814,0.3196468651294708,-0.40419021248817444,0.999951958656311,0.5355786085128784,0.40348324179649353,-0.21675901114940643,0.9999384880065918,0.4579129219055176,0.39480912685394287,-0.21812763810157776,0.9998022317886353,0.515539288520813,0.5924205780029297,-0.010753434151411057,0.9997188448905945,0.4734521806240082,0.5880541205406189,0.010767853818833828,0.9993982911109924,0.5121952295303345,0.7487242817878723,-0.03770418465137482,0.9451087117195129,0.4811250567436218,0.7208786010742188,0.11892931163311005,0.9487387537956238,0.5166906118392944,0.8870384097099304,0.11410490423440933,0.6941324472427368,0.4839795231819153,0.7714380025863647,0.4237784445285797,0.856962263584137,0.552868664264679,0.601446270942688,-0.23827651143074036,0.7012636661529541,0.42988523840904236,0.6001242399215698,-0.2330886423587799,0.6883847713470459,179.32539370932707,0.4944957345724106,0.5902373492717743,122.50442146057927,138.54016202425103,0.8442714789209839,-0.0007584194077560998,0.09826262586965966,-0.034400069872982116,0.8956590557601117,-173.62731332025018,0.6120992730238105,16,1762115401.3833566
0.49930399656295776,0.3218817412853241,-0.38683682680130005,0.999954342842102,0.5365551710128784,0.4062381684780121,-0.20323970913887024,0.9999433159828186,0.4572880268096924,0.39866188168525696,-0.21575863659381866,0.9997920393943787,0.5155794024467468,0.6014759540557861,-0.009843968786299229,0.9997397065162659,0.4730626046657562,0.5955110192298889,0.009838915430009365,0.9993894696235657,0.5122132897377014,0.7644346356391907,-0.019460884854197502,0.9503666758537292,0.4813498556613922,0.7300475239753723,0.09220413863658905,0.9497244358062744,0.5166200399398804,0.9017519354820251,0.13476353883743286,0.7242470383644104,0.4839811325073242,0.7712553143501282,0.3839041292667389,0.8464959859848022,0.5543951988220215,0.6142817735671997,-0.22900784015655518,0.7232653498649597,0.4299968183040619,0.6108388900756836,-0.2280479371547699,0.6880873441696167,179.2399930212968,0.4943210035562515,0.5984934866428375,128.25029874168513,129.48324744239642,0.8260588352232043,-0.002342950767263427,0.11070572250639386,-0.021246822951748786,0.16684824167468298,-174.5403028666594,0.7388026600641222,17,1762115401.457934
0.501510500907898,0.32169395685195923,-0.35895463824272156,0.999955415725708,0.5383201837539673,0.40788158774375916,-0.1871623396873474,0.9999471306800842,0.4573969841003418,0.40138381719589233,-0.1910977065563202,0.9997848272323608,0.5163443684577942,0.6076602339744568,-0.009727263823151588,0.9997559785842896,0.47309446334838867,0.6010825037956238,0.00970931351184845,0.999367892742157,0.512228786945343,0.7690074443817139,-0.0020375836174935102,0.9551492929458618,0.4814196527004242,0.7291111350059509,0.11341049522161484,0.9497097134590149,0.5159674882888794,0.9134910702705383,0.12981650233268738,0.7513571381568909,0.48395293951034546,0.7727493047714233,0.3811056315898895,0.8406822085380554,0.5561434030532837,0.6093382239341736,-0.19983993470668793,0.7442477345466614,0.43096184730529785,0.6100647449493408,-0.20910699665546417,0.688162624835968,179.09959210426052,0.49471941590309143,0.6043713688850403,140.26452971829636,138.22004496786377,0.8058500953780751,0.004690385770502479,0.06919849610131527,0.08280130341730715,-0.48865178413167043,-175.4092546563632,1.000693003327745,18,1762115401.5428762
0.502738356590271,0.3209424912929535,-0.33965855836868286,0.9999536871910095,0.541325032711029,0.4082745313644409,-0.1764916479587555,0.9999480247497559,0.45749416947364807,0.4022541344165802,-0.17491406202316284,0.9997790455818176,0.5186204314231873,0.6144734621047974,-0.010967507027089596,0.9997680187225342,0.4730256497859955,0.608043372631073,0.010957260616123676,0.9993482828140259,0.5126115083694458,0.7750635147094727,-0.014128903858363628,0.9593181014060974,0.48140159249305725,0.7415014505386353,0.10363402217626572,0.9467116594314575,0.5155614614486694,0.9154358506202698,0.10367897897958755,0.7748808264732361,0.48394304513931274,0.7771509885787964,0.3747551143169403,0.8170290589332581,0.5572449564933777,0.6105278730392456,-0.15588121116161346,0.7575757503509521,0.4322703778743744,0.6139394640922546,-0.1702806055545807,0.693048894405365,179.0025246672487,0.49582304060459137,0.6112584173679352,138.7581962614986,132.23251185051774,0.7817285211435088,0.01404598156307274,0.08765240201968709,0.11906993911553913,0.234865368583945,-175.89229870942302,1.3057693776784995,19,1762115401.6233304
0.5053400993347168,0.32066062092781067,-0.3205786645412445,0.9999502897262573,0.5441657900810242,0.40800508856773376,-0.15865030884742737,0.9999472498893738,0.45771437883377075,0.40204358100891113,-0.16099372506141663,0.9997734427452087,0.5211105942726135,0.6179786920547485,-0.010630346834659576,0.9997739195823669,0.47308000922203064,0.6120957732200623,0.01063273474574089,0.9993074536323547,0.5134223699569702,0.7844101786613464,-0.017547249794006348,0.9621762037277222,0.48121047019958496,0.7573160529136658,0.06211518123745918,0.9359345436096191,0.5150043368339539,0.9212305545806885,0.10345876216888428,0.791253924369812,0.4836232662200928,0.8048374652862549,0.32498660683631897,0.7597850561141968,0.5593574047088623,0.6139988899230957,-0.11235906183719635,0.7680201530456543,0.4329492449760437,0.6166251301765442,-0.1377682387828827,0.7035682797431946,178.9511824326681,0.4970953017473221,0.6150372326374054,136.02963217717092,119.75097747797915,0.7617202191788471,0.018084446613391893,0.05371364471285169,0.05740441419580792,-0.4824195473918032,-176.05524828138596,1.923948359552944,20,1762115401.6917996
0.5065165758132935,0.32043513655662537,-0.3401879668235779,0.9999496340751648,0.545011579990387,0.4070276916027069,-0.1698588877916336,0.9999476671218872,0.4577570855617523,0.4026595950126648,-0.17053034901618958,0.9997755885124207,0.5228413343429565,0.6184497475624084,-0.010656243190169334,0.9997804760932922,0.47343873977661133,0.612633466720581,0.010638144798576832,0.9992938041687012,0.5139340162277222,0.781813383102417,-0.018980365246534348,0.9652916193008423,0.4810717701911926,0.7567282915115356,0.069032683968544,0.9287976026535034,0.5150021314620972,0.916564404964447,0.1232835203409195,0.8078751564025879,0.4835118353366852,0.8107151389122009,0.33741438388824463,0.7254422903060913,0.560007631778717,0.6139299869537354,-0.12591303884983063,0.7836946845054626,0.43404120206832886,0.6196089386940002,-0.15480944514274597,0.7197989225387573,179.1178378753189,0.49814003705978394,0.6155416071414948,130.43252769801074,123.41606235505515,0.7878047686156949,0.011956825747653351,0.005772484173761187,-0.07012962428413727,-0.548678785782988,-177.13407613666809,1.8485065524798583,21,1762115401.7791753
0.5071681141853333,0.31762459874153137,-0.347949355840683,0.9999435544013977,0.5466945171356201,0.40635189414024353,-0.1742366999387741,0.9999411702156067,0.4584716856479645,0.40159666538238525,-0.17285118997097015,0.9997743964195251,0.5239896178245544,0.6203402876853943,-0.01035133097320795,0.9997773170471191,0.4736079275608063,0.6135061979293823,0.010328903794288635,0.9992514848709106,0.5145120024681091,0.7889659404754639,-0.019566666334867477,0.9673778414726257,0.48038625717163086,0.7737563848495483,0.057073455303907394,0.9234739542007446,0.514645516872406,0.9185439944267273,0.13186848163604736,0.8204618096351624,0.48047304153442383,0.8116772770881653,0.34949594736099243,0.6803216934204102,0.5612279176712036,0.615470826625824,-0.1270226389169693,0.7715758681297302,0.43415316939353943,0.6194943785667419,-0.14951899647712708,0.7245081663131714,178.98190045796713,0.49879877269268036,0.6169232428073883,127.35156306941934,113.63019452447894,0.8039405550394242,0.008261656435297178,0.017328042723567635,-0.04634365867640889,0.14492620391080732,-176.91473119905856,34.04723065857107,22,1762115401.8589094
0.508834958076477,0.3128204941749573,-0.37362486124038696,0.9999396204948425,0.5488423109054565,0.40602466464042664,-0.1771947741508484,0.9999322295188904,0.459409236907959,0.4009062945842743,-0.17160627245903015,0.9997473359107971,0.5254107713699341,0.6226415634155273,-0.010402926243841648,0.9997677206993103,0.47395673394203186,0.614383339881897,0.010375505313277245,0.999186635017395,0.5158386826515198,0.7967691421508789,-0.04349074140191078,0.9685376882553101,0.478157103061676,0.7899281978607178,0.033553533256053925,0.9229288101196289,0.5146507620811462,0.921902060508728,0.13926811516284943,0.8312484622001648,0.4771861135959625,0.8171438574790955,0.3690809905529022,0.6398513913154602,0.5633474588394165,0.613851010799408,-0.12904290854930878,0.7329138517379761,0.43273496627807617,0.6209970116615295,-0.11862033605575562,0.6945477724075317,178.8166637284309,0.49968375265598297,0.6185124516487122,113.6204976629261,102.15107398322748,0.83917612881485,0.013117881136402993,0.02355652505804646,0.07198284824781659,0.09232354890722062,-176.72446185141638,4.1112505162578445,23,1762115401.926373
0.5098882913589478,0.308071494102478,-0.3759302794933319,0.9999395608901978,0.5504338145256042,0.4065042734146118,-0.17463336884975433,0.999926745891571,0.45966172218322754,0.40110278129577637,-0.17046186327934265,0.9997240900993347,0.5271385908126831,0.6282622218132019,-0.00791621021926403,0.9997665882110596,0.47400349378585815,0.61923748254776,0.007874988950788975,0.9991782903671265,0.5170193910598755,0.8078009486198425,-0.039611559361219406,0.970016360282898,0.47564929723739624,0.810874342918396,-0.016594940796494484,0.927012026309967,0.5145994424819946,0.9240861535072327,0.19411548972129822,0.8408865332603455,0.47706276178359985,0.8155011534690857,0.3447362184524536,0.6086859703063965,0.5708338022232056,0.620820939540863,-0.11415617167949677,0.7113817930221558,0.430375874042511,0.6272423267364502,-0.11179067194461823,0.6650313138961792,178.8339787085641,0.5005710422992706,0.623749852180481,106.44344217754117,83.45926425340683,0.8556949971008638,0.010415646296581352,0.06148038790389163,-0.03172078307777184,0.445177676298344,-176.59456802726058,8.878129776035935,24,1762115402.0115612
0.5108703970909119,0.30435580015182495,-0.3972422778606415,0.9999430775642395,0.5520327687263489,0.4079452157020569,-0.18786939978599548,0.9999299049377441,0.4596695899963379,0.40112215280532837,-0.17749722301959991,0.999721109867096,0.528522789478302,0.6311739087104797,-0.005590645596385002,0.9997764825820923,0.47401389479637146,0.6232825517654419,0.005522419232875109,0.9992017149925232,0.5177423357963562,0.8103761672973633,-0.0218906681984663,0.9709734916687012,0.47363248467445374,0.820120096206665,-0.033761803060770035,0.9315314292907715,0.5145853757858276,0.9195505976676941,0.23589050769805908,0.8491536974906921,0.4705844521522522,0.8068767189979553,0.34173938632011414,0.5801632404327393,0.5792723894119263,0.63710618019104,-0.12720267474651337,0.7199825048446655,0.42667651176452637,0.6310470700263977,-0.13552789390087128,0.6547080874443054,178.82107497266807,0.5012683421373367,0.6272282302379608,107.76238119402443,76.69503665870575,0.885059873872727,0.008874064330945425,0.044266969479059524,-0.019618673040881593,-0.21906355647677783,-175.77511391553003,1.4766691597713018,25,1762115402.0901384
0.5114899277687073,0.3022199869155884,-0.4068118631839752,0.9999457001686096,0.5537229776382446,0.4091390073299408,-0.19718791544437408,0.9999333024024963,0.4596889019012451,0.4014207124710083,-0.1876867413520813,0.9997069239616394,0.5302000641822815,0.6358781456947327,-0.004568536300212145,0.9997833967208862,0.47402921319007874,0.6288754343986511,0.004498843569308519,0.9992107152938843,0.5185700058937073,0.8164498209953308,-0.011696605011820793,0.9715246558189392,0.4722959101200104,0.8327452540397644,-0.029254799708724022,0.9343220591545105,0.5142297148704529,0.9212793111801147,0.25263863801956177,0.8539585471153259,0.4654056429862976,0.8111662268638611,0.3419691324234009,0.5511766672134399,0.5861684679985046,0.6455350518226624,-0.1506299376487732,0.7316877245903015,0.4223368763923645,0.6360527873039246,-0.150981605052948,0.6410208940505981,178.8417882105203,0.5021146386861801,0.6323767900466919,109.38680735917579,77.28426679009263,0.9024122183049896,0.00981207205862434,0.05969307083958746,0.010875383372543151,0.17885222188369607,-175.3076944964092,0.8174987423887825,26,1762115402.176389
0.5118957161903381,0.3017931282520294,-0.4193516671657562,0.9999484419822693,0.5538960695266724,0.408831924200058,-0.2064056694507599,0.9999370574951172,0.4595966935157776,0.4017387926578522,-0.20298700034618378,0.9997109770774841,0.5315007567405701,0.638069212436676,-0.004554537124931812,0.9997787475585938,0.47406864166259766,0.6313093304634094,0.0044970097951591015,0.9991824626922607,0.5187759399414062,0.8166433572769165,-0.013733165338635445,0.9712392091751099,0.4716288149356842,0.8332850933074951,-0.02020738087594509,0.9339479207992554,0.5136889219284058,0.9261077642440796,0.23529477417469025,0.852687656879425,0.46354150772094727,0.826046347618103,0.3420417010784149,0.5192515850067139,0.5870553851127625,0.6481943130493164,-0.18663594126701355,0.7483224868774414,0.42099156975746155,0.6394309997558594,-0.19459488987922668,0.6484760642051697,179.01063101949066,0.5027846992015839,0.6346892714500427,110.80854566689237,81.9000230181995,0.9119408955170486,0.0070107052519719215,0.024195016937821483,-0.02931012428372089,-0.3714088312962863,-175.69835310724628,0.6013334144639042,27,1762115402.2719657
0.5124937295913696,0.30100032687187195,-0.40858587622642517,0.9999516010284424,0.5561470985412598,0.40873977541923523,-0.20758362114429474,0.9999389052391052,0.45947614312171936,0.40300750732421875,-0.20519420504570007,0.9997219443321228,0.5331438779830933,0.6426251530647278,-0.00464519951492548,0.9997230172157288,0.474078893661499,0.6383403539657593,0.004584825597703457,0.9991270899772644,0.5189945101737976,0.8193150758743286,-0.02420628070831299,0.9708003401756287,0.47177737951278687,0.848158597946167,-0.007657251320779324,0.9342124462127686,0.5130913853645325,0.9299882650375366,0.22514279186725616,0.8509265184402466,0.46618881821632385,0.9033216834068298,0.27440696954727173,0.5314643383026123,0.5895670652389526,0.6523599028587341,-0.17883652448654175,0.7687654495239258,0.41913819313049316,0.6446382999420166,-0.18438145518302917,0.6717715263366699,178.97433637619656,0.5036113858222961,0.6404827535152435,107.65777291587465,97.73667104133467,0.9016605898995476,0.011903392803809223,0.08341987277414836,0.07044940650623736,0.8527738384847187,-176.60652321853172,0.7308769302652409,28,1762115402.3414154
0.512636125087738,0.3013652563095093,-0.39298775792121887,0.999954879283905,0.558124303817749,0.41007232666015625,-0.2039945423603058,0.9999391436576843,0.45924606919288635,0.40544864535331726,-0.20051991939544678,0.9997366070747375,0.5343011617660522,0.651134729385376,-0.0044944072142243385,0.9995651245117188,0.47408419847488403,0.6468457579612732,0.004418506287038326,0.9990314841270447,0.5188868641853333,0.8281785845756531,0.0008110000635497272,0.9697471857070923,0.47224313020706177,0.8496695756912231,0.017304738983511925,0.9347319006919861,0.5130099058151245,0.9334632754325867,0.2474522590637207,0.8517781496047974,0.46776509284973145,0.9480873346328735,0.22059230506420135,0.563779354095459,0.5933000445365906,0.6595936417579651,-0.17607679963111877,0.7893341183662415,0.4152536392211914,0.6499037742614746,-0.1818840652704239,0.6964756846427917,178.93308393694056,0.5041926801204681,0.6489902436733246,114.8460044765991,119.4718240665421,0.8958134861668741,0.006921457689861918,0.1012984874636628,-0.05931978554281442,0.2128802493263114,-177.3227213560351,0.8675307981259577,29,1762115402.4253998
0.5126379132270813,0.3017110824584961,-0.2719157338142395,0.999958336353302,0.56067955493927,0.41400134563446045,-0.15829281508922577,0.9999364614486694,0.45896410942077637,0.408305287361145,-0.14934289455413818,0.999755859375,0.5349321961402893,0.664435088634491,-0.003943900112062693,0.9991918206214905,0.4740658402442932,0.6598622798919678,0.003851064248010516,0.9989103078842163,0.5187984704971313,0.8394197821617126,0.002605161163955927,0.9648359417915344,0.47328653931617737,0.8641617894172668,0.010169326327741146,0.9341380000114441,0.5138407945632935,0.9423180222511292,0.16713638603687286,0.84120774269104,0.46829715371131897,0.990012526512146,0.11243551969528198,0.5898757576942444,0.5967528820037842,0.6743857264518738,-0.12881633639335632,0.8085438013076782,0.41218647360801697,0.6592535376548767,-0.1387571543455124,0.7225416898727417,178.7851207256062,0.5044990181922913,0.6621486842632294,124.14981285347362,142.64684912952663,0.7819609140571613,0.0038628102950151373,0.16592309102989233,-0.038568417485037094,0.8148924568247641,-176.79478781762913,1.0700132805549873,30,1762115402.5047042
0.5125136971473694,0.3038673996925354,-0.31373053789138794,0.999961256980896,0.563079297542572,0.4179895520210266,-0.16476760804653168,0.9999287724494934,0.4581236243247986,0.41272878646850586,-0.16181793808937073,0.9997755289077759,0.535531222820282,0.6785430312156677,0.002123480197042227,0.9986811876296997,0.4740668833255768,0.6735763549804688,-0.0022162306122481823,0.9988688230514526,0.518875777721405,0.8587185144424438,-0.0015669061103835702,0.9552227854728699,0.4756855070590973,0.8898382186889648,-0.012849177233874798,0.9339143633842468,0.5137510895729065,0.9425181746482849,0.2191184014081955,0.8025442957878113,0.4720299243927002,1.0319421291351318,0.09306388348340988,0.6150510311126709,0.6002295613288879,0.6919529438018799,-0.1331723928451538,0.8251899480819702,0.40969333052635193,0.6682640314102173,-0.1486790031194687,0.7447425127029419,178.7249791575914,0.5047990530729294,0.6760596930980682,109.64918457328807,140.4548665225368,0.8295192173785514,0.0037868814227464903,0.17557738892316024,-0.0009583340284726083,0.1218514369526659,-177.1305256168318,1.321391239931805,31,1762115402.5839343
0.5120076537132263,0.31035199761390686,-0.29129719734191895,0.9999635815620422,0.5658458471298218,0.43058767914772034,-0.1539926379919052,0.9999247193336487,0.45715633034706116,0.420305460691452,-0.15179988741874695,0.9997919797897339,0.535612940788269,0.6930761337280273,0.005687240976840258,0.9983775019645691,0.4736464023590088,0.6877222657203674,-0.005785373970866203,0.998786985874176,0.5188272595405579,0.8735520243644714,-0.003364266362041235,0.9330543279647827,0.47703224420547485,0.9055816531181335,-0.01183677650988102,0.9249104857444763,0.5131766200065613,0.9606499671936035,0.21459822356700897,0.7561018466949463,0.47344979643821716,1.0544008016586304,0.1264037936925888,0.6199794411659241,0.6025857925415039,0.7090401649475098,-0.11199375241994858,0.8407017588615417,0.4077844023704529,0.6796004176139832,-0.1400538980960846,0.7645201086997986,178.51439492940324,0.5046296715736389,0.6903991997241974,108.95505929028278,135.47959154345975,0.8364554958933048,-0.0022104120968871053,0.18712916725004278,-0.07826409731825351,0.15074958399389157,-174.5958023213381,1.4881109275208049,32,1762115402.6605632
0.5119204521179199,0.3125280439853668,-0.24409571290016174,0.9999661445617676,0.5659290552139282,0.4314671456813812,-0.14438188076019287,0.9999257326126099,0.45674118399620056,0.42170125246047974,-0.12198935449123383,0.9998062252998352,0.5361476540565491,0.6931969523429871,0.005039961077272892,0.9981931447982788,0.47363895177841187,0.689319372177124,-0.005156808532774448,0.9987654089927673,0.5191460251808167,0.8587880730628967,-0.005232726689428091,0.9113389849662781,0.4787259101867676,0.9059667587280273,-0.01198927965015173,0.9194027781486511,0.5147255659103394,0.9530916213989258,0.21184392273426056,0.7063032984733582,0.4771091043949127,1.0510411262512207,0.09298290312290192,0.6266481280326843,0.6030678749084473,0.709958016872406,-0.11729384958744049,0.8558074235916138,0.4079318940639496,0.6823071241378784,-0.08436523377895355,0.7837623953819275,178.6057712259657,0.5048933029174805,0.6912581622600555,109.93511269852918,142.25992044955663,0.7955744433654279,0.0029544021460328317,0.009626020648084816,0.05787983348563629,-1.9892007892793975,-174.88899717580114,2.133311461277813,33,1762115402.751814
0.5108731985092163,0.31590765714645386,-0.23815977573394775,0.9999687671661377,0.5665394067764282,0.43970993161201477,-0.14135131239891052,0.9999276399612427,0.4552232325077057,0.4274904131889343,-0.1159704327583313,0.999820351600647,0.5361117124557495,0.7013199925422668,0.0044721635058522224,0.9981382489204407,0.4726622700691223,0.6993128657341003,-0.004601466469466686,0.9987777471542358,0.5187677145004272,0.862241804599762,-0.026305440813302994,0.8920884132385254,0.4794951379299164,0.92671138048172,-0.015440774150192738,0.9133284091949463,0.5148490071296692,0.9538923501968384,0.20239226520061493,0.6583619713783264,0.4787469804286957,1.0679755210876465,0.09686748683452606,0.6312844753265381,0.60335773229599,0.728519856929779,-0.10919320583343506,0.86948162317276,0.40752601623535156,0.6933852434158325,-0.07745258510112762,0.8020766377449036,178.60516902586232,0.5043869912624359,0.7003164291381836,101.04500578035905,138.7430666472683,0.7960153598979492,-0.003765472815187961,0.06736692182072546,-0.04997614855560145,0.4294228495903374,-173.7355483949107,2.7819731595181567,34,1762115402.8842583
0.509662389755249,0.3179727792739868,-0.2540782690048218,0.9999707341194153,0.5661975145339966,0.44532692432403564,-0.1482182890176773,0.9999291896820068,0.452908992767334,0.43179792165756226,-0.11937233060598373,0.9998334050178528,0.5362553596496582,0.7107874751091003,0.003911757841706276,0.9980769753456116,0.4710068106651306,0.7101805210113525,-0.004032720811665058,0.9987770915031433,0.5179058313369751,0.8833174705505371,-0.03172420710325241,0.8614591360092163,0.47971734404563904,0.9358103275299072,-0.011779742315411568,0.900215208530426,0.51496821641922,0.9750034809112549,0.2098323404788971,0.607819676399231,0.4791449010372162,1.082261562347412,0.13429498672485352,0.6197605729103088,0.6036415696144104,0.744337797164917,-0.11229481548070908,0.8816621899604797,0.4065050184726715,0.7010976076126099,-0.07033386081457138,0.8178893327713013,178.75235487635783,0.5036310851573944,0.7104839980602264,99.13272615266085,133.05768271770134,0.8287298251578862,-0.00610635712125852,0.08213560715929685,-0.01891012052565897,0.11930432402561447,-173.1899450628423,3.372477685592,35,1762115403.0080483
0.5081690549850464,0.3190954327583313,-0.27580878138542175,0.9999716877937317,0.5656244158744812,0.44856590032577515,-0.153682142496109,0.999926745891571,0.4494510293006897,0.43633222579956055,-0.13016313314437866,0.9998456835746765,0.5360208749771118,0.7184162735939026,0.0036288220435380936,0.9978693723678589,0.4686623215675354,0.7194334268569946,-0.003734779078513384,0.9987402558326721,0.5173613429069519,0.8900540471076965,-0.03361601382493973,0.8297144174575806,0.4789579510688782,0.9437655210494995,-0.014512816444039345,0.8914388418197632,0.5163582563400269,0.9786972999572754,0.22770805656909943,0.5573264360427856,0.4789474606513977,1.0964360237121582,0.13194392621517181,0.6083086729049683,0.6015753746032715,0.7616910934448242,-0.1170690506696701,0.8915975093841553,0.40658292174339294,0.7119438052177429,-0.07489919662475586,0.8308000564575195,178.92330192627335,0.5023415982723236,0.7189248502254486,96.47963906099272,133.3811609791936,0.8508316775738846,-0.014800777187893382,0.09688440698374473,-0.099794868543503,0.16928725876766743,-173.98860536334743,10.23285165979508,36,1762115403.0951712
0.5063096880912781,0.31859245896339417,-0.28536131978034973,0.9999702572822571,0.5650274157524109,0.4470781087875366,-0.15631653368473053,0.9999151229858398,0.44554799795150757,0.4374697804450989,-0.13644114136695862,0.9998523592948914,0.5356417894363403,0.7253214716911316,0.0037916575092822313,0.9971967935562134,0.465197890996933,0.7272692918777466,-0.0038689561188220978,0.9984593987464905,0.5171557664871216,0.9070366024971008,-0.02535874769091606,0.8032683730125427,0.4757373332977295,0.9492936134338379,-0.017309026792645454,0.8745432496070862,0.5164071321487427,1.0431532859802246,0.2358843982219696,0.5197057127952576,0.47329264879226685,1.1040301322937012,0.14740177989006042,0.5856482982635498,0.6006311178207397,0.7713751792907715,-0.10842796415090561,0.899917483329773,0.404590904712677,0.7198410630226135,-0.07677771151065826,0.8402613401412964,179.01809908631796,0.5004198402166367,0.7262953817844391,108.32690629192807,129.6522599266375,0.8931340329275835,-0.025801821714607646,0.09895789985851382,-0.14770173004492904,0.027839036929223234,-175.4022667038311,3.0468738008443674,37,1762115403.1696527
0.5040713548660278,0.3157142996788025,-0.3427586257457733,0.9999695420265198,0.5646436214447021,0.44587594270706177,-0.1742967814207077,0.9999120235443115,0.44198352098464966,0.4365272521972656,-0.15782910585403442,0.9998531937599182,0.5336848497390747,0.729227602481842,0.004660344682633877,0.9970153570175171,0.4611738622188568,0.7330480217933655,-0.004705232568085194,0.9982513785362244,0.5181347727775574,0.9333183169364929,-0.02601638436317444,0.7866593599319458,0.4751099944114685,0.9720950722694397,-0.015573996119201183,0.8596426248550415,0.5207422971725464,1.096827745437622,0.25560930371284485,0.4869280755519867,0.4714326858520508,1.13034987449646,0.1770932972431183,0.5608790516853333,0.5985928773880005,0.783546507358551,-0.11391212046146393,0.9075143337249756,0.3996700942516327,0.731368362903595,-0.09083083271980286,0.8459553122520447,178.83734971422123,0.49742935597896576,0.7311378121376038,111.48880166857829,126.65694784757576,0.9743055916105994,-0.03518234908026052,0.056970062886730954,-0.11035971505149116,-0.49397710205516965,-175.64155789097748,10.98022424850172,38,1762115403.2546523
0.5031358003616333,0.31302112340927124,-0.34026089310646057,0.9999670386314392,0.5644193291664124,0.44565150141716003,-0.17273083329200745,0.9999006986618042,0.4410723149776459,0.4376693367958069,-0.15712429583072662,0.999856173992157,0.5324727296829224,0.7356027960777283,0.006930009927600622,0.9965238571166992,0.4598693251609802,0.7377133965492249,-0.00695944344624877,0.9979926347732544,0.5182314515113831,0.9409705400466919,-0.025765767320990562,0.7682021260261536,0.4749414920806885,0.972568929195404,-0.024380981922149658,0.8469407558441162,0.5222733020782471,1.0849621295928955,0.2715286612510681,0.45851725339889526,0.47105950117111206,1.1331455707550049,0.17940831184387207,0.5445266962051392,0.5978925228118896,0.788619339466095,-0.11319860070943832,0.9131128191947937,0.39822453260421753,0.7344896197319031,-0.09626409411430359,0.850421130657196,178.7232251055839,0.4961710274219513,0.7366580963134766,106.70488747014447,123.84433826213771,0.9766062083583377,-0.016229984716580204,0.07120090162951391,0.24444854426208085,0.1835500704581321,-176.2973767378877,81.2406841859983,39,1762115403.3321834
0.5019029378890991,0.30669522285461426,-0.3717353045940399,0.9999637007713318,0.5642365217208862,0.44470709562301636,-0.1832529902458191,0.9998944997787476,0.43715065717697144,0.4387477934360504,-0.17296239733695984,0.9998520016670227,0.5306305885314941,0.7409684658050537,0.009908427484333515,0.9964696168899536,0.45687809586524963,0.7444871664047241,-0.00992303155362606,0.9979066252708435,0.5220106244087219,0.958323061466217,-0.026577983051538467,0.7532605528831482,0.4742845892906189,0.9829474687576294,-0.02168952487409115,0.8351048827171326,0.5257988572120667,1.1046388149261475,0.3095002770423889,0.4281255602836609,0.4707908034324646,1.1458028554916382,0.21858736872673035,0.521350085735321,0.5941615700721741,0.7962745428085327,-0.13228090107440948,0.9191840291023254,0.391950786113739,0.7444140911102295,-0.1220066100358963,0.8563920855522156,178.67933995146979,0.4937543421983719,0.7427278161048889,103.96163054455961,121.1500214213984,1.0364421331929776,-0.02856224551615312,0.07173661890471561,-0.1457521473172771,0.006331518971631909,-177.3152566253168,46.8161157545365,40,1762115403.4167945
0.5000388026237488,0.30349141359329224,-0.3869269788265228,0.999954879283905,0.564102053642273,0.445557177066803,-0.1861206591129303,0.9998763203620911,0.43343836069107056,0.4416341185569763,-0.18241648375988007,0.9998360872268677,0.5301608443260193,0.76236891746521,0.009287169203162193,0.9966344833374023,0.45401424169540405,0.76054847240448,-0.009304671548306942,0.9979255795478821,0.523966372013092,0.9896376132965088,-0.012577692978084087,0.7342233061790466,0.4724443852901459,0.9939340353012085,0.00903655681759119,0.8184996247291565,0.5261011123657227,1.182579755783081,0.3076968491077423,0.39139479398727417,0.4674363136291504,1.1896061897277832,0.25190359354019165,0.4799613058567047,0.5892165899276733,0.8005589842796326,-0.1316908597946167,0.924159049987793,0.38540375232696533,0.7672953009605408,-0.15125533938407898,0.8651081919670105,178.7956069174161,0.49208754301071167,0.761458694934845,115.54987638858158,133.0778686253303,1.1061290002265178,-0.020766128433390662,0.23336214604181704,0.0971293781644193,2.0136417629018646,-178.28026297069925,4.64827419123423,41,1762115403.4970598
0.49768632650375366,0.29975607991218567,-0.3618548810482025,0.9999518394470215,0.5640236139297485,0.44681596755981445,-0.1850406527519226,0.9998657703399658,0.42982015013694763,0.44559428095817566,-0.1753455400466919,0.9998282194137573,0.5300261378288269,0.7755284905433655,0.009004809893667698,0.9968559145927429,0.4518122673034668,0.7724149823188782,-0.009022226557135582,0.9980003237724304,0.5248943567276001,1.007348895072937,-0.007460597902536392,0.7274370789527893,0.4686311185359955,1.0099111795425415,0.02739827334880829,0.8108878135681152,0.525754988193512,1.218621015548706,0.2818346619606018,0.35918596386909485,0.4636398255825043,1.219254732131958,0.2509344816207886,0.4428618550300598,0.5873042345046997,0.8043026328086853,-0.09776636958122253,0.9295679926872253,0.37788787484169006,0.7807617783546448,-0.14387008547782898,0.8744677901268005,178.95080907198738,0.49091920256614685,0.7739717364311218,122.0650573417042,141.54744004359839,1.1133682742169153,-0.01572114428339525,0.16837500721834037,0.06788511353731513,-0.8744644514891068,-179.4784370631082,2.9049945103136072,42,1762115403.5713763
0.4957377016544342,0.2980322241783142,-0.376221239566803,0.9999495148658752,0.5639595985412598,0.44797104597091675,-0.19580626487731934,0.9998558759689331,0.42523089051246643,0.4511353671550751,-0.1945570558309555,0.9998157620429993,0.530042290687561,0.7817836999893188,0.008719238452613354,0.9969981908798218,0.45073437690734863,0.7835493087768555,-0.008730785921216011,0.9980174899101257,0.5259420871734619,1.0411134958267212,-0.0011782501824200153,0.7253108024597168,0.4596671462059021,1.0360440015792847,0.036958806216716766,0.8040075302124023,0.5268823504447937,1.2284085750579834,0.2885504364967346,0.3314586579799652,0.4593915343284607,1.2300618886947632,0.26240795850753784,0.41070571541786194,0.585832417011261,0.8067528605461121,-0.10079161822795868,0.9347195029258728,0.3695695102214813,0.8124883770942688,-0.1737551987171173,0.8825076222419739,179.2764461289303,0.49038833379745483,0.7826665043830872,120.6873552727664,140.92493281421102,1.1365998703020017,-0.006781048239736874,0.11106255329516385,0.11419624983646152,-0.7320802008155529,178.6933431497477,12.62102132527759,43,1762115403.6496634
0.4949321746826172,0.29683396220207214,-0.3783411681652069,0.9999439120292664,0.5639426112174988,0.4476463794708252,-0.19068916141986847,0.9998483657836914,0.4244619309902191,0.4535061717033386,-0.19006754457950592,0.9998056292533875,0.5300714373588562,0.7890753746032715,0.009053226560354233,0.9971277713775635,0.45053181052207947,0.7900068759918213,-0.009014783427119255,0.9980310201644897,0.5267971754074097,1.0272924900054932,-0.0009193058358505368,0.7178624272346497,0.45566755533218384,1.0429768562316895,0.03894815593957901,0.7926117777824402,0.5279111862182617,1.2376153469085693,0.2963416874408722,0.30364248156547546,0.45674094557762146,1.2371437549591064,0.27840086817741394,0.37746426463127136,0.5854987502098083,0.8068856000900269,-0.10529114305973053,0.9392967224121094,0.3653000295162201,0.8121770024299622,-0.17906507849693298,0.8903353214263916,179.34069637104284,0.49030162394046783,0.7895411252975464,122.87663811345769,139.76506534890152,1.1523045851730926,-0.0009582171857956611,0.07597036986294152,0.06434720318714951,-0.38779827830751434,177.59433315001365,3.5632093555316446,44,1762115403.7401543
0.49385762214660645,0.2960299849510193,-0.50199294090271,0.9999377727508545,0.5637871623039246,0.448577344417572,-0.24240493774414062,0.9998450875282288,0.4228000044822693,0.45368126034736633,-0.2588300108909607,0.9997805953025818,0.5300947427749634,0.793411910533905,0.010601461865007877,0.9971904754638672,0.4488970637321472,0.797376275062561,-0.010484706610441208,0.9979686737060547,0.5283392667770386,1.0661804676055908,0.023631718009710312,0.7103150486946106,0.450167179107666,1.0654371976852417,0.04129976034164429,0.7776889801025391,0.5318738222122192,1.2630205154418945,0.38380172848701477,0.27807021141052246,0.4501054286956787,1.2631865739822388,0.34233731031417847,0.3450680673122406,0.5857424736022949,0.815243124961853,-0.19310922920703888,0.9430404901504517,0.3559821844100952,0.8350982666015625,-0.25049394369125366,0.893945574760437,179.36798004185147,0.4894959032535553,0.795394092798233,121.38639459230998,134.2331956642791,1.297525551047047,-0.00992408135577293,0.07209114348557685,-0.11043276769847014,-0.04778052592139328,177.92672468170878,2.1858378321621874,45,1762115403.8213427
0.49266815185546875,0.2962879538536072,-0.5806171894073486,0.9999332427978516,0.5637664794921875,0.4517410397529602,-0.2791878581047058,0.9998416304588318,0.4183797240257263,0.4563455879688263,-0.31538528203964233,0.9997550249099731,0.5301135778427124,0.7991640567779541,0.012886403128504753,0.9968835115432739,0.4466399550437927,0.8052555322647095,-0.01266946829855442,0.9974337220191956,0.529462456703186,1.0832492113113403,0.03209438547492027,0.707124650478363,0.44554489850997925,1.0759522914886475,0.0423770546913147,0.7644141316413879,0.5332891941070557,1.2804583311080933,0.4206980764865875,0.25757893919944763,0.44208160042762756,1.2861249446868896,0.3500022292137146,0.31956812739372253,0.5859015583992004,0.822758138179779,-0.2221052348613739,0.9439985752105713,0.35367026925086975,0.861080527305603,-0.320348858833313,0.8910627961158752,179.5562882875774,0.48837676644325256,0.8022097945213318,120.77200349061901,135.83517233259005,1.3810481550139744,-0.01256908444368279,0.07654750492695257,-0.0297061689506466,0.05004962999391614,178.18599003352148,14.756678643690764,46,1762115403.9103816
0.49169057607650757,0.2970775067806244,-0.5584244728088379,0.999923825263977,0.5638163089752197,0.45837825536727905,-0.26065248250961304,0.9998189806938171,0.41408783197402954,0.4579600393772125,-0.2788201570510864,0.9996943473815918,0.5304008722305298,0.8075151443481445,0.01263862382620573,0.9962203502655029,0.44456690549850464,0.8141981363296509,-0.012501743622124195,0.9964748024940491,0.5290830731391907,1.0956653356552124,0.021593919023871422,0.6990494132041931,0.4458376467227936,1.0955331325531006,0.031501900404691696,0.74470454454422,0.5324584245681763,1.3014360666275024,0.38186824321746826,0.23660938441753387,0.4431447982788086,1.3081631660461426,0.3428853154182434,0.2924729883670807,0.5886480212211609,0.8433427810668945,-0.19486799836158752,0.9395878314971924,0.353505402803421,0.8315038681030273,-0.2686017155647278,0.8752082586288452,179.76148821382915,0.4874838888645172,0.8108566403388977,121.50862945478744,133.21214913017747,1.365061874074781,-0.009464408013283025,0.09165565223544515,0.032909242192132426,0.16014476548384649,-179.83996398466988,4.289774163968365,47,1762115404.004722
0.490953266620636,0.3009818494319916,-0.5508478879928589,0.9999122619628906,0.5639934539794922,0.4653512239456177,-0.24727225303649902,0.9998127222061157,0.40949147939682007,0.46178585290908813,-0.25027406215667725,0.9995705485343933,0.5305275917053223,0.818024754524231,0.009009860455989838,0.9962209463119507,0.4420381188392639,0.8300831317901611,-0.008700503036379814,0.9957923889160156,0.5306860208511353,1.0687460899353027,-0.1673124134540558,0.6881320476531982,0.4445100724697113,1.098406434059143,-0.034487709403038025,0.722916841506958,0.5334137082099915,1.2456426620483398,0.21123571693897247,0.22149421274662018,0.44535598158836365,1.2781983613967896,0.4196055829524994,0.26590099930763245,0.5923405289649963,0.8548752665519714,-0.19372853636741638,0.9339514374732971,0.3533889651298523,0.8312464356422424,-0.2316872626543045,0.846895694732666,179.92694910881184,0.4862828552722931,0.824053943157196,79.93012129055208,106.11095111753146,1.2937645660837072,-0.014849106548050677,0.1631662569344959,-0.0665742930002715,0.8841289663891317,-178.67804626264834,0.25708237422993085,48,1762115404.0856047
0.4900786280632019,0.30786851048469543,-0.5057413578033447,0.9997419714927673,0.5652326345443726,0.4732731580734253,-0.23714271187782288,0.9997321367263794,0.4070360064506531,0.467951238155365,-0.24021928012371063,0.9992014765739441,0.5304834246635437,0.8402521014213562,0.008991574868559837,0.9955068230628967,0.44130411744117737,0.8468583226203918,-0.00867454707622528,0.9945065975189209,0.5302835702896118,1.0900914669036865,-0.006996334530413151,0.663841187953949,0.44155192375183105,1.097487211227417,0.05774319916963577,0.6868964433670044,0.5342354774475098,1.2625925540924072,0.4120729863643646,0.20293772220611572,0.4474868178367615,1.266491413116455,0.47835445404052734,0.24190068244934082,0.5976496934890747,0.8784048557281494,-0.1636916846036911,0.9277541041374207,0.3503420948982239,0.8369725346565247,-0.21854934096336365,0.7994014024734497,179.96304404279957,0.48589377105236053,0.843555212020874,108.71062841347401,126.72987341311361,1.3489033719628951,-0.004538429342959325,0.22747036837216547,0.12026774044313529,0.7500681119173462,-178.07322948842653,0.048650880778241104,49,1762115404.1713357
0.48972606658935547,0.31038898229599,-0.5442384481430054,0.9996811151504517,0.5657432079315186,0.4768286347389221,-0.23311534523963928,0.999717652797699,0.4067603051662445,0.47171783447265625,-0.23666422069072723,0.9987511038780212,0.5305162668228149,0.8461587429046631,0.00843762420117855,0.9946566820144653,0.4404677748680115,0.8545522093772888,-0.007997837848961353,0.9928183555603027,0.5307766199111938,1.0995614528656006,-0.007793526165187359,0.634860634803772,0.4319724142551422,1.0967599153518677,0.0025850976817309856,0.6452518701553345,0.5345417261123657,1.2824888229370117,0.4193265438079834,0.1859375685453415,0.4441622197628021,1.279208779335022,0.4626173973083496,0.2195916622877121,0.5999618172645569,0.8769798874855042,-0.1677056849002838,0.9250962138175964,0.3543797433376312,0.831878125667572,-0.21321403980255127,0.7422700524330139,179.88425513004088,0.4854920208454132,0.850355476140976,109.51923380513045,114.05729708328316,1.3829070717320149,-0.005061311687141441,0.08567078665184874,-0.006587353220594192,-1.7864132184178396,-178.158754989484,0.09522340128608049,50,1762115404.2507124
0.4898053705692291,0.3137538433074951,-0.5699624419212341,0.9996535181999207,0.5665567517280579,0.4822920858860016,-0.23921175301074982,0.9997211694717407,0.4041346609592438,0.47801822423934937,-0.24123963713645935,0.9986151456832886,0.5324456095695496,0.8714816570281982,0.006831520702689886,0.9933655858039856,0.4397957921028137,0.8778516054153442,-0.006181655451655388,0.9906582236289978,0.5436793565750122,1.1725822687149048,-0.07211562991142273,0.6054596304893494,0.4369663596153259,1.1558935642242432,-0.04919560253620148,0.5977967977523804,0.5471416115760803,1.3954137563705444,0.37978142499923706,0.16818992793560028,0.44386178255081177,1.405153512954712,0.39787259697914124,0.1987784206867218,0.6039831042289734,0.8989080786705017,-0.17876151204109192,0.9235071539878845,0.3554793894290924,0.8581920862197876,-0.21071341633796692,0.710988461971283,-179.88744597018652,0.48612070083618164,0.8746666312217712,101.56256623092857,110.33602033595822,1.449088213550171,0.008597346661971648,0.3324607607235546,0.1867853637607054,3.374910910080116,-178.4927066217701,0.1496174875854523,51,1762115404.3238373
0.4897405207157135,0.3183319568634033,-0.6345118284225464,0.9996387362480164,0.5703332424163818,0.4974353015422821,-0.2915176749229431,0.9997134804725647,0.40325361490249634,0.4865417182445526,-0.262311726808548,0.9985241889953613,0.5330708026885986,0.8909941911697388,-0.013221735134720802,0.9894332885742188,0.43764153122901917,0.8918173909187317,0.013984957709908485,0.9851070642471313,0.5411273241043091,1.195502758026123,-0.11950669437646866,0.5779427886009216,0.4268933832645416,1.1734611988067627,-0.07068313658237457,0.5592283010482788,0.5406116843223572,1.436745524406433,0.26188451051712036,0.152659073472023,0.43138036131858826,1.4410144090652466,0.3031216859817505,0.18067173659801483,0.6093669533729553,0.9163133502006531,-0.25187915563583374,0.9207075238227844,0.35174208879470825,0.8958280682563782,-0.2855354845523834,0.677663266658783,179.7938279639868,0.4853561669588089,0.8914057910442352,103.06789110615023,108.82583172121925,1.4479496674376446,-0.009523164303214789,0.2085058281980845,-0.22571217350456704,-1.5440037695784674,-176.26959810394763,0.7234529769208247,52,1762115404.4041188
0.4899158477783203,0.32561618089675903,-0.6830447912216187,0.9996485710144043,0.5754696130752563,0.516595721244812,-0.3193078935146332,0.9996849298477173,0.40205755829811096,0.501656711101532,-0.2861015200614929,0.9985679984092712,0.5379534959793091,0.9249894022941589,-0.02781536802649498,0.9806623458862305,0.43716758489608765,0.9245340824127197,0.02864833176136017,0.9725105166435242,0.5399183630943298,1.243024230003357,-0.08793680369853973,0.5596083998680115,0.4318081736564636,1.2323451042175293,0.10231037437915802,0.519197940826416,0.5398714542388916,1.4981074333190918,0.29240548610687256,0.14031143486499786,0.4325259327888489,1.5005263090133667,0.4902009963989258,0.16559255123138428,0.6122316122055054,0.9458897113800049,-0.3125176727771759,0.8913264870643616,0.3530708849430084,0.9383093118667603,-0.3528760075569153,0.6433898210525513,179.8341594534316,0.48756054043769836,0.9247617423534393,113.14292340515163,138.1057831820531,1.5911664974026836,0.02942483403242335,0.44524820347656724,0.5198930208045383,3.160129246574166,-175.0762697259214,3.575967165961396,53,1762115404.4790342
0.4899466037750244,0.32605814933776855,-0.7448858022689819,0.9996708035469055,0.5817065834999084,0.5242047905921936,-0.3698728680610657,0.9996787309646606,0.4022957384586334,0.5036375522613525,-0.31354108452796936,0.9986609220504761,0.5428391695022583,0.9370222091674805,-0.040185555815696716,0.9723348021507263,0.4376448690891266,0.9290156960487366,0.040917109698057175,0.9609487056732178,0.5405266880989075,1.265537142753601,-0.0801968201994896,0.53974848985672,0.4338877201080322,1.2589513063430786,0.16882982850074768,0.4858494699001312,0.5396897196769714,1.5321662425994873,0.36743709444999695,0.13080407679080963,0.430673211812973,1.5325324535369873,0.573454737663269,0.15414021909236908,0.6148160696029663,0.9612758159637451,-0.3891318738460541,0.868853747844696,0.3542014956474304,0.9348268508911133,-0.39446955919265747,0.6212114095687866,179.7595052834139,0.49024201929569244,0.9330189526081085,113.83556507995364,145.25492305144485,1.7123645488748382,0.027572781318950725,0.0849062270164256,-0.019044060074354212,-3.705280199153415,-173.4602943733895,0.8679668375559376,54,1762115404.5762851
0.4901825785636902,0.32672783732414246,-0.7408479452133179,0.9996883869171143,0.5908195972442627,0.5396103858947754,-0.3894440531730652,0.9996724724769592,0.40230807662010193,0.5093536376953125,-0.30707377195358276,0.9987295269966125,0.54851233959198,0.9569879174232483,-0.037184637039899826,0.960760772228241,0.43775588274002075,0.9416071772575378,0.03795454651117325,0.9459899663925171,0.5402377843856812,1.2951465845108032,0.0037296172231435776,0.5017602443695068,0.42764678597450256,1.2807140350341797,0.16292144358158112,0.4458700716495514,0.5323204398155212,1.5657877922058105,0.4780411720275879,0.11916483938694,0.4179890751838684,1.5616258382797241,0.5640925168991089,0.14018787443637848,0.6210404634475708,1.003691554069519,-0.4114147126674652,0.8307019472122192,0.35439494252204895,0.9278870224952698,-0.34446802735328674,0.5824093818664551,179.53743560322758,0.49313411116600037,0.9492975473403931,126.6156252241446,145.23719720501566,1.7671366001594904,0.03688695640274775,0.2076240455403815,0.11879690744644292,1.5651946842378535,-170.88160010717783,0.3902503230241864,55,1762115404.6546893
0.49055925011634827,0.32712888717651367,-0.7411612272262573,0.9997079968452454,0.5915809869766235,0.5362495183944702,-0.3645402789115906,0.999678909778595,0.40079158544540405,0.511720597743988,-0.3062308430671692,0.9988235831260681,0.5507565140724182,0.9558653831481934,-0.03440757468342781,0.9533920884132385,0.4379580020904541,0.9492207169532776,0.035170264542102814,0.9379284977912903,0.5412870645523071,1.295553207397461,0.016509132459759712,0.46650809049606323,0.42723536491394043,1.2862976789474487,0.1400890201330185,0.41108202934265137,0.5322996377944946,1.5707930326461792,0.48630934953689575,0.10896678268909454,0.4197678565979004,1.572733759880066,0.5290725827217102,0.12827984988689423,0.6192196011543274,0.9778065085411072,-0.37650832533836365,0.8041272163391113,0.35390704870224,0.9324369430541992,-0.30631083250045776,0.5628748536109924,179.75547076911306,0.49435725808143616,0.9525430500507355,128.89871278572966,143.65586163819958,1.7632237102232209,0.014595305832147937,0.03872724039829303,-0.2659970388474227,-2.015375662573776,-172.67393167925252,0.22228053053252578,56,1762115404.7384934
0.4911039471626282,0.3271428346633911,-0.7311040759086609,0.9997262358665466,0.596143901348114,0.5425934791564941,-0.3708198070526123,0.9996832013130188,0.39958757162094116,0.5159851908683777,-0.31087878346443176,0.99891597032547,0.552688479423523,0.9656007289886475,-0.029998209327459335,0.9426466822624207,0.4376588463783264,0.9563779830932617,0.03071122244000435,0.9269731044769287,0.5416892766952515,1.3157405853271484,0.044654954224824905,0.4302288889884949,0.4244449734687805,1.303766131401062,0.14403223991394043,0.3762948215007782,0.5310211181640625,1.59635329246521,0.49991732835769653,0.09912476688623428,0.4151604175567627,1.5960794687271118,0.5286308526992798,0.1166355237364769,0.6247925162315369,1.0085864067077637,-0.3662635087966919,0.7770920395851135,0.354025274515152,0.9397466778755188,-0.17464718222618103,0.5398687124252319,179.64270917854958,0.4951736629009247,0.9609893560409546,133.69601941973673,145.30344703031292,1.7781560440673656,0.009086434232976785,0.09400581924516986,-0.061312719240366825,0.6152403307702762,-172.29060217390204,0.26981830196215834,57,1762115404.8283422
0.4916505813598633,0.32812070846557617,-0.7704349756240845,0.9997450113296509,0.6024052500724792,0.5515354871749878,-0.42453423142433167,0.9996947050094604,0.399543434381485,0.51557856798172,-0.3233262896537781,0.9990041851997375,0.5541788935661316,0.9760724306106567,-0.034882716834545135,0.8861750364303589,0.43757981061935425,0.9622913599014282,0.035952191799879074,0.8698917627334595,0.5460487604141235,1.340341567993164,0.07181213796138763,0.38850638270378113,0.42455077171325684,1.3251919746398926,0.15693792700767517,0.33937734365463257,0.5312476754188538,1.6336994171142578,0.5153571367263794,0.08934159576892853,0.4148126542568207,1.626091718673706,0.5170334577560425,0.10506470501422882,0.6298986077308655,1.0485115051269531,-0.45014095306396484,0.7306052446365356,0.3543112277984619,0.937517523765564,-0.13767258822917938,0.5019711852073669,179.32990941692117,0.4958793520927429,0.9691818952560425,139.81652906392105,148.3228826470178,1.830404863303396,0.008652125998982747,0.10044490175329876,-0.005324850665815429,0.07894658700189733,-169.94881013662854,0.4152192741382995,58,1762115404.9099047
0.4927387237548828,0.32808932662010193,-0.8117378354072571,0.9997655153274536,0.6048253178596497,0.5565773248672485,-0.4341978132724762,0.9997101426124573,0.3981955349445343,0.5213063955307007,-0.33289068937301636,0.9990856051445007,0.5549026131629944,0.9907432794570923,-0.038474056869745255,0.8485194444656372,0.43692049384117126,0.9751112461090088,0.039728082716464996,0.8282332420349121,0.547089695930481,1.3621841669082642,0.052637286484241486,0.35171884298324585,0.4230015277862549,1.3468583822250366,0.15999780595302582,0.3065519630908966,0.5313251614570618,1.6585102081298828,0.5167990326881409,0.08059940487146378,0.4137730002403259,1.651862621307373,0.5444637537002563,0.09471064060926437,0.6281260251998901,1.0652412176132202,-0.49838072061538696,0.7040325403213501,0.354200154542923,0.9554044008255005,-0.21975810825824738,0.47757455706596375,179.27751051638293,0.4959115535020828,0.9829272627830505,136.34779444184744,146.3523580572106,1.8877365941296824,0.00039571680959594037,0.16891412817049553,-0.10146139470653405,0.8414049070746448,-170.3131873961179,0.44799832028223713,59,1762115404.9912796
0.49306488037109375,0.32739710807800293,-0.8914715647697449,0.9997835755348206,0.605408787727356,0.5555769801139832,-0.48126286268234253,0.9997064471244812,0.39416536688804626,0.5235629081726074,-0.37245988845825195,0.9991549849510193,0.5547400712966919,0.9871515035629272,-0.04148278385400772,0.7974947690963745,0.43606242537498474,0.968365490436554,0.042979855090379715,0.7784551382064819,0.5482414960861206,1.3668768405914307,0.012694497592747211,0.31818675994873047,0.42144498229026794,1.3467967510223389,0.08581825345754623,0.27700746059417725,0.5318808555603027,1.6691937446594238,0.49171480536460876,0.07265623658895493,0.4116189479827881,1.6617190837860107,0.44086557626724243,0.08538995683193207,0.6265591979026794,1.058334469795227,-0.5079495906829834,0.6698322296142578,0.3545927107334137,0.959936261177063,-0.23792660236358643,0.4496398866176605,179.42654572507487,0.4954012483358383,0.9777584969997406,130.3857700447183,138.03815329005127,1.9064034253022772,-0.006362059638317857,-0.06443986529064168,-0.08425032633012303,-2.9092631653430203,-171.38236509381144,0.3349408856905129,60,1762115405.0714903
0.4930245280265808,0.32663941383361816,-0.8889233469963074,0.9998002648353577,0.6057168245315552,0.5555517077445984,-0.4794268012046814,0.9996887445449829,0.39047738909721375,0.5217257738113403,-0.36912664771080017,0.9992063641548157,0.5539492964744568,0.9859934449195862,-0.04228390008211136,0.7487766742706299,0.433549702167511,0.9677250981330872,0.04385007172822952,0.7291745543479919,0.5475344061851501,1.371177077293396,-0.019005702808499336,0.28744399547576904,0.41811323165893555,1.353166937828064,0.0758357048034668,0.250093936920166,0.5317279100418091,1.6756701469421387,0.4875391125679016,0.06547649204730988,0.4080928862094879,1.67049241065979,0.4380257725715637,0.07696044445037842,0.620446503162384,1.0626181364059448,-0.5177250504493713,0.633327305316925,0.35464414954185486,0.9533321857452393,-0.23023095726966858,0.4212459325790405,179.43158439500118,0.4937494993209839,0.9768592715263367,124.48045090337575,135.97446036120942,1.908022143551844,-0.02222394645417713,-0.012098895529186837,-0.21341845527841397,0.704237083768318,-171.06873600945872,0.33664750142061406,61,1762115405.1458132
0.49303919076919556,0.3264898955821991,-0.9269253015518188,0.9998151659965515,0.6062642335891724,0.5544328689575195,-0.49375495314598083,0.9996307492256165,0.38857021927833557,0.5244660973548889,-0.3993005156517029,0.9992092251777649,0.5553954839706421,0.9858328700065613,-0.04435984417796135,0.6875860095024109,0.4331963062286377,0.972652018070221,0.04594395309686661,0.6683860421180725,0.5490037202835083,1.3793623447418213,-0.024916907772421837,0.25898757576942444,0.41834592819213867,1.3617217540740967,0.07753811031579971,0.2253606766462326,0.5357180833816528,1.6882833242416382,0.4531469941139221,0.05896199494600296,0.41013646125793457,1.6819922924041748,0.43462109565734863,0.06930450350046158,0.6180257201194763,1.056320071220398,-0.5337216258049011,0.5878292322158813,0.36228686571121216,0.9475473761558533,-0.2502341866493225,0.38464581966400146,179.59336295685074,0.4942958950996399,0.9792424440383911,125.70859711032284,136.53298037378423,1.9301416798615267,0.007224640856459225,0.03151116127018754,0.38937977810288765,0.5766278042635175,-172.16218125171605,0.29039552098904653,62,1762115405.2214427
0.4903058111667633,0.3243716061115265,-0.8949715495109558,0.9998202919960022,0.6050089001655579,0.5528956651687622,-0.47438493371009827,0.9995176196098328,0.3874155580997467,0.5237339735031128,-0.37903404235839844,0.999161958694458,0.5548306703567505,0.9931432008743286,-0.04519025236368179,0.6491999626159668,0.4279114305973053,0.9799644351005554,0.04673169553279877,0.629070520401001,0.5485755205154419,1.403682827949524,-0.0210440494120121,0.2339121401309967,0.4146730899810791,1.3780653476715088,0.06313742697238922,0.20357809960842133,0.5354658365249634,1.7151180505752563,0.4599067270755768,0.05311690270900726,0.40640634298324585,1.7041974067687988,0.43576931953430176,0.0624505989253521,0.6179504990577698,1.0796079635620117,-0.5311512351036072,0.5467404127120972,0.3638903498649597,0.951137900352478,-0.2680912911891937,0.35269293189048767,179.3812043997825,0.4913710504770279,0.986553817987442,126.29939658375237,133.55855812617213,1.929386010188816,-0.03954856331380786,0.09886143465519853,-0.6324483058746262,0.9106830942666182,-172.36674769448697,0.4529030833246096,63,1762115405.2953985
0.48716312646865845,0.32375404238700867,-0.897478461265564,0.9998193979263306,0.6047683954238892,0.5539875626564026,-0.4987635612487793,0.9993181228637695,0.3834485113620758,0.5225467681884766,-0.3634154200553894,0.9988695979118347,0.554486095905304,0.9973520636558533,-0.049080584198236465,0.6058417558670044,0.4207591116428375,0.9877798557281494,0.05057157203555107,0.5865566730499268,0.5482150316238403,1.4328440427780151,-0.017768461257219315,0.2114453762769699,0.41010889410972595,1.404820203781128,0.09323329478502274,0.18398970365524292,0.535365879535675,1.7462033033370972,0.506908655166626,0.04786898195743561,0.40154725313186646,1.7384145259857178,0.5098175406455994,0.05633939802646637,0.6177038550376892,1.0904210805892944,-0.5496353507041931,0.5081734657287598,0.37273091077804565,0.8342275023460388,-0.16089126467704773,0.32184723019599915,179.18206570220283,0.48762260377407074,0.9925659596920013,124.96792260022556,134.5351105238377,1.9972577075930305,-0.04523506394487362,0.0725526160574281,-0.06862288303736472,-0.3174864646322354,-171.9146388158493,0.6057920233864962,64,1762115405.3782644
0.482957124710083,0.32248517870903015,-1.0952881574630737,0.999819815158844,0.6040090322494507,0.5546135902404785,-0.6480140089988708,0.9992584586143494,0.37965020537376404,0.5219009518623352,-0.46501263976097107,0.9983206987380981,0.554220974445343,1.0028011798858643,-0.05716865137219429,0.5793859958648682,0.41578763723373413,0.9888149499893188,0.05835092067718506,0.5581875443458557,0.5461505055427551,1.4449703693389893,-0.06968314945697784,0.19240973889827728,0.4070524275302887,1.4207847118377686,0.09704043716192245,0.16809281706809998,0.5344544649124146,1.7714073657989502,0.4915624260902405,0.04320128634572029,0.3968610465526581,1.767022728919983,0.563783586025238,0.05098538100719452,0.6205533742904663,1.1162731647491455,-0.7463254332542419,0.5085378289222717,0.40960946679115295,0.6778161525726318,-0.2472374439239502,0.30707937479019165,179.14537876433076,0.4850043058395386,0.9958080649375916,118.57344181084562,131.69541137782,2.1742422862480533,-0.018756895956876997,0.023225710860000547,0.18968362443760795,-0.3533668252418345,-171.70444470460035,0.6236174801058517,65,1762115405.5178556
0.4795926511287689,0.32243770360946655,-1.005560040473938,0.9998171329498291,0.603105902671814,0.5550694465637207,-0.5674938559532166,0.9990130066871643,0.3769487738609314,0.5173289179801941,-0.4204186499118805,0.9977259039878845,0.5536057949066162,1.011146068572998,-0.05922771617770195,0.5313528776168823,0.4131860136985779,1.0008463859558105,0.06048019975423813,0.5095921754837036,0.540414571762085,1.4590754508972168,-0.06818705052137375,0.1742035448551178,0.4053373336791992,1.4400629997253418,0.1863313615322113,0.15246489644050598,0.5271806120872498,1.7880825996398926,0.4835769534111023,0.038996756076812744,0.3933081030845642,1.785299301147461,0.688383162021637,0.04605865851044655,0.619845986366272,1.0999619960784912,-0.6317447423934937,0.4839400351047516,0.42010951042175293,0.5748146176338196,-0.2658149302005768,0.2896847724914551,179.19129345252696,0.48339590430259705,1.0059962272644043,119.67982346303319,140.50977283362494,2.1627324872320055,-0.016445540089222593,0.10417164379220399,0.02363308832336203,0.8276537633925859,-170.52592670936903,0.5249462911655871,66,1762115405.6156573
0.4756607413291931,0.32239648699760437,-0.8337949514389038,0.9998093247413635,0.5972875356674194,0.554681658744812,-0.4194397032260895,0.9990247488021851,0.3754769265651703,0.506260097026825,-0.28733381628990173,0.9975197315216064,0.5501179099082947,1.013960361480713,-0.05625385791063309,0.5016120672225952,0.4103415608406067,1.0079731941223145,0.057533346116542816,0.47571641206741333,0.5315567255020142,1.4581048488616943,-0.06082599610090256,0.16197946667671204,0.4006834924221039,1.448318600654602,0.1511203795671463,0.141875222325325,0.5243204236030579,1.8036932945251465,0.39727073907852173,0.035794004797935486,0.3892723619937897,1.8016260862350464,0.5903605222702026,0.042157165706157684,0.6180780529975891,1.0502629280090332,-0.40305477380752563,0.4609016180038452,0.42016977071762085,0.16829220950603485,0.4463411271572113,0.268339067697525,179.2663979523487,0.4802297353744507,1.0109667778015137,126.43820636063043,140.81895338004244,1.988488087133743,-0.035169719328167294,0.05521274172788763,-0.2079876795675321,-0.5438341678203849,-167.6854453265702,0.6598051494412049,67,1762115405.7056828
0.47490358352661133,0.322517067193985,-0.7763646841049194,0.9998159408569336,0.5941390991210938,0.5540122985839844,-0.3570571541786194,0.9990766048431396,0.37523144483566284,0.5031786561012268,-0.2941123843193054,0.9976147413253784,0.5495901703834534,1.0188796520233154,-0.05586323142051697,0.478940486907959,0.40549999475479126,1.0600895881652832,0.05731508135795593,0.44892820715904236,0.5312624573707581,1.4773913621902466,-0.057589173316955566,0.16005444526672363,0.3999965488910675,1.4635158777236938,0.1116710901260376,0.136470764875412,0.5246484875679016,1.8348143100738525,0.3838042616844177,0.03466684743762016,0.3904740810394287,1.8294785022735596,0.4930935502052307,0.04052329063415527,0.6180031299591064,1.0333479642868042,-0.3097604215145111,0.44000282883644104,0.45697346329689026,0.2119291126728058,0.4791800081729889,0.2484273463487625,179.19928600853007,0.4775450825691223,1.0394846200942993,128.77766303955852,141.49239128145453,1.9377960560957477,-0.03655272597425784,0.38828293648861406,-0.018830242351931217,4.534896853372592,-166.9267596657463,0.8848674899167995,68,1762115405.7791288
0.4728791117668152,0.3233994245529175,-0.7946430444717407,0.9998018145561218,0.592337965965271,0.5584728717803955,-0.3843521475791931,0.9991143941879272,0.3726431131362915,0.49966952204704285,-0.27953338623046875,0.9975926876068115,0.5505158305168152,1.0234607458114624,-0.055163584649562836,0.45857250690460205,0.4050564765930176,1.0833927392959595,0.05650683492422104,0.42516934871673584,0.5316852331161499,1.5038565397262573,-0.0459483340382576,0.15926556289196014,0.40145421028137207,1.487031102180481,0.0779978558421135,0.13309213519096375,0.5268136262893677,1.8616580963134766,0.4263862073421478,0.03330391272902489,0.3921486437320709,1.8581315279006958,0.4767756462097168,0.03880780190229416,0.6181008219718933,1.052319884300232,-0.3386737108230591,0.4157905876636505,0.4368824362754822,0.17191335558891296,0.5189490914344788,0.228266179561615,179.48597047680207,0.4777861535549164,1.053426742553711,128.23066950870145,135.99009760452816,1.978401316282597,0.0019616811333273837,0.11345205436929369,0.313405553701848,-2.2363975263690183,-165.01550316167413,0.6635628003251529,69,1762115405.9020188
0.4713194966316223,0.3233804702758789,-0.804368793964386,0.9997463822364807,0.5924890637397766,0.5625075101852417,-0.37333327531814575,0.9989479780197144,0.36892372369766235,0.4998491108417511,-0.2447814643383026,0.9968387484550476,0.5513133406639099,1.0678125619888306,-0.054609514772892,0.4440118968486786,0.4069947600364685,1.0720136165618896,0.05608252435922623,0.4035532474517822,0.5336243510246277,1.491757869720459,-0.05109419673681259,0.1559954136610031,0.4017656743526459,1.4752414226531982,0.08264120668172836,0.12728579342365265,0.529289186000824,1.8455365896224976,0.4577066898345947,0.030810628086328506,0.39260295033454895,1.8483834266662598,0.5722752213478088,0.036092355847358704,0.6113682985305786,1.0074810981750488,-0.48569613695144653,0.4035692512989044,0.4133051037788391,0.5782589316368103,0.11616358906030655,0.20915301144123077,179.83490489064192,0.4791540503501892,1.06991308927536,125.27076622633315,131.08350651012324,2.0154682743662997,0.011630340697855917,0.14017273079254264,0.08220635154322584,0.2271886092236718,-164.34347077804733,0.22997868555988082,70,1762115406.0196333
0.47080039978027344,0.3240005075931549,-0.7957934737205505,0.9997466802597046,0.59393709897995,0.5687689185142517,-0.3730461895465851,0.9988698959350586,0.3683210015296936,0.5116109251976013,-0.23495738208293915,0.9961847066879272,0.5534458160400391,1.105589747428894,-0.05427110940217972,0.4098430573940277,0.40610092878341675,1.0938907861709595,0.055780090391635895,0.3704138994216919,0.5356711149215698,1.5275799036026,-0.027469608932733536,0.14312291145324707,0.4021819233894348,1.5025190114974976,0.03989986702799797,0.11667028069496155,0.5292219519615173,1.8870235681533813,0.4571729600429535,0.027959469705820084,0.3913460969924927,1.8828554153442383,0.42149490118026733,0.03271447494626045,0.6075179576873779,1.0221729278564453,-0.5610597729682922,0.3899191617965698,0.4126071035861969,0.5803869366645813,-0.015193382278084755,0.192952498793602,179.86118413202865,0.4797733724117279,1.0997402667999268,130.1852259962403,132.68149948321854,1.9905227482595391,0.007490570553597896,0.3607534617891149,-0.0500696523941047,2.6678777180792967,-165.78368946616422,0.15684371813942727,71,1762115406.1023135
0.47020846605300903,0.32444900274276733,-0.8055421710014343,0.9997295141220093,0.5952064990997314,0.5714271068572998,-0.3886469900608063,0.9985479116439819,0.368113249540329,0.5114163160324097,-0.2538079619407654,0.995944082736969,0.5555152893066406,1.1086294651031494,-0.053228072822093964,0.3732354938983917,0.4070904850959778,1.093222737312317,0.05475959926843643,0.33675864338874817,0.5396562814712524,1.5274372100830078,0.010564464144408703,0.13028046488761902,0.4026578366756439,1.4997438192367554,0.05315951257944107,0.10616093873977661,0.5309025645256042,1.8810147047042847,0.46547454595565796,0.025435062125325203,0.39383989572525024,1.8713502883911133,0.45527681708335876,0.029703108593821526,0.6055215001106262,1.0377413034439087,-0.5234532952308655,0.3668830096721649,0.41101008653640747,0.6349803805351257,0.09980058670043945,0.17725585401058197,179.96344290975745,0.4813028872013092,1.1009261012077332,136.51453481214963,132.5197428017021,2.002619850943828,0.022087506498603877,0.017124466770185268,0.21079228507053738,-4.96229765955192,-165.19760246536117,0.040627525678807355,72,1762115406.1715615
0.4707725942134857,0.32448142766952515,-0.7596959471702576,0.999658465385437,0.5977004766464233,0.571412980556488,-0.3536393940448761,0.9983205199241638,0.36804500222206116,0.5123251080513,-0.22423911094665527,0.9955257773399353,0.5581425428390503,1.1153703927993774,-0.05280619114637375,0.3541865348815918,0.40878018736839294,1.1026889085769653,0.054320551455020905,0.31743937730789185,0.5430029630661011,1.5325208902359009,0.03274145349860191,0.12556028366088867,0.4050382971763611,1.5093505382537842,0.06486698240041733,0.10234297811985016,0.5328673124313354,1.892773151397705,0.4754686951637268,0.024499839171767235,0.3988625705242157,1.8875211477279663,0.4415866732597351,0.02824528142809868,0.6051419973373413,1.0371943712234497,-0.41134944558143616,0.34193673729896545,0.4241103231906891,0.4648963510990143,0.46073922514915466,0.16153088212013245,-179.94053579517754,0.4834613651037216,1.1090296506881714,140.72649542990104,136.597686489855,1.9837847801171866,0.029069389412981074,0.10913488398975077,0.09402879364529677,1.239154056299143,-165.57136254486858,0.07216478343226355,73,1762115406.245814
0.47104009985923767,0.3248169720172882,-0.6984100937843323,0.9996370673179626,0.5986496210098267,0.5734488368034363,-0.3223711848258972,0.9981929659843445,0.3685407340526581,0.5129306316375732,-0.16096560657024384,0.9953568577766418,0.558100163936615,1.1176303625106812,-0.05510280653834343,0.3348848521709442,0.4086592197418213,1.104396939277649,0.05680479481816292,0.2981383204460144,0.5429813861846924,1.5312896966934204,0.016347751021385193,0.1151704266667366,0.4032139778137207,1.5094183683395386,0.10675406455993652,0.09431730955839157,0.5317535400390625,1.8970128297805786,0.4043846130371094,0.022693701088428497,0.3956933617591858,1.8870339393615723,0.4553889334201813,0.02588154934346676,0.603262186050415,1.0383715629577637,-0.3051823675632477,0.3191530704498291,0.4307037889957428,0.3552251160144806,0.6929463148117065,0.14704008400440216,179.97825660430425,0.48337969183921814,1.111013650894165,143.10986207311763,144.31880718775403,1.9311248776329866,-0.0009176944755495786,0.02229255852081246,-0.33693989568855964,-0.9757749100787863,-165.26499889887162,0.022984573897313006,74,1762115406.3348124
0.47116607427597046,0.32513347268104553,-0.7152308225631714,0.9996216893196106,0.6033064126968384,0.5730434656143188,-0.31149134039878845,0.998015284538269,0.3689623177051544,0.5128224492073059,-0.18406544625759125,0.9954913258552551,0.559670090675354,1.1164647340774536,-0.05437103658914566,0.31171244382858276,0.40888696908950806,1.0989022254943848,0.05605402588844299,0.27670782804489136,0.5434268116950989,1.5316014289855957,0.036502137780189514,0.10847288370132446,0.40332984924316406,1.5061650276184082,0.11033497005701065,0.08933336287736893,0.5324100852012634,1.9004288911819458,0.41207924485206604,0.021164467558264732,0.3959105610847473,1.8880025148391724,0.4506455361843109,0.024041475728154182,0.6027778387069702,1.012599229812622,-0.28169602155685425,0.2980690002441406,0.4318400025367737,0.451651006937027,0.5004931688308716,0.13489818572998047,179.81172014142075,0.48427852988243103,1.1076834797859192,146.82792359304707,145.8859323191197,1.9433847077634974,0.013667541582679563,-0.050637879029568296,0.22178002124441595,-1.1089648412075008,-165.58814674296022,0.20130533070583922,75,1762115406.4005768
0.47154369950294495,0.3251391649246216,-0.7425347566604614,0.9995690584182739,0.6036288142204285,0.5687167644500732,-0.32640984654426575,0.9978687167167664,0.3692110776901245,0.5127238631248474,-0.21068401634693146,0.9951710104942322,0.5602222681045532,1.1160458326339722,-0.05389173701405525,0.30283260345458984,0.4091143012046814,1.1035170555114746,0.05556313320994377,0.26537835597991943,0.5446051359176636,1.5326188802719116,0.00802569929510355,0.10454607009887695,0.40353888273239136,1.51227605342865,0.1087401881814003,0.08746862411499023,0.5346584320068359,1.9018586874008179,0.40518051385879517,0.020424749702215195,0.39697152376174927,1.896743893623352,0.4495874047279358,0.02316562831401825,0.6045690178871155,0.9921488165855408,-0.347556471824646,0.28482821583747864,0.45550736784935,0.32393816113471985,0.6624478697776794,0.1247701495885849,179.82363497110734,0.4846682846546173,1.1097814440727234,141.36903437541582,145.85645955620916,1.9613079864785326,0.004404505946318779,0.02370848758197406,-0.10467888645072013,0.8401667848501122,-166.56607006666354,0.2121160851990294,76,1762115406.4890668
0.4725135266780853,0.32488468289375305,-0.7531084418296814,0.9994372725486755,0.6039990186691284,0.564728856086731,-0.3303925395011902,0.9976348280906677,0.370717853307724,0.5056682825088501,-0.21688887476921082,0.9950145483016968,0.560059666633606,1.1178721189498901,-0.053233545273542404,0.2951469123363495,0.4091199040412903,1.107019305229187,0.05485304445028305,0.2578636705875397,0.5454981327056885,1.534846305847168,0.005793810822069645,0.10469786822795868,0.40395474433898926,1.5141172409057617,0.03480150178074837,0.09010440856218338,0.5369875431060791,1.90657639503479,0.4132021963596344,0.020159224048256874,0.3977304995059967,1.9036219120025635,0.34660616517066956,0.02327054738998413,0.6052455902099609,0.9710321426391602,-0.3482714295387268,0.27252936363220215,0.46093663573265076,0.2521436810493469,0.6834860444068909,0.11656340956687927,179.72519434209693,0.4845897853374481,1.1124457120895386,140.43346179826617,138.50547014853234,1.9444335794923056,-0.0008975718534552086,0.030463602336821848,-0.06062467763445376,0.07723889951479895,-165.792760550949,0.37574564111992353,77,1762115406.5765243
