nose_x,nose_y,nose_z,nose_visibility,left_shoulder_x,left_shoulder_y,left_shoulder_z,left_shoulder_visibility,right_shoulder_x,right_shoulder_y,right_shoulder_z,right_shoulder_visibility,left_hip_x,left_hip_y,left_hip_z,left_hip_visibility,right_hip_x,right_hip_y,right_hip_z,right_hip_visibility,left_knee_x,left_knee_y,left_knee_z,left_knee_visibility,right_knee_x,right_knee_y,right_knee_z,right_knee_visibility,left_ankle_x,left_ankle_y,left_ankle_z,left_ankle_visibility,right_ankle_x,right_ankle_y,right_ankle_z,right_ankle_visibility,left_wrist_x,left_wrist_y,left_wrist_z,left_wrist_visibility,right_wrist_x,right_wrist_y,right_wrist_z,right_wrist_visibility,trunk_lateral_inclination,center_mass_x,center_mass_y,left_knee_angle,right_knee_angle,person_height,center_mass_velocity_x,center_mass_velocity_y,center_mass_acceleration_x,center_mass_acceleration_y,body_orientation,torso_leg_ratio,frame,timestamp
0.49673837423324585,0.16338437795639038,-0.29447275400161743,0.9999986886978149,0.5425959229469299,0.26000863313674927,-0.12362339347600937,0.9999874830245972,0.4622706472873688,0.26122957468032837,-0.12695273756980896,0.9999697208404541,0.5201131701469421,0.46244287490844727,-0.0022494508884847164,0.9998999834060669,0.47986334562301636,0.4624142050743103,0.002182633150368929,0.9998146891593933,0.5155128836631775,0.614406943321228,-0.005707725416868925,0.9899600744247437,0.47977909445762634,0.6115107536315918,0.014096337370574474,0.9898091554641724,0.5097928047180176,0.745133638381958,0.16577504575252533,0.9909822344779968,0.487389475107193,0.7417765855789185,0.17214389145374298,0.988262951374054,0.5528666973114014,0.4777061939239502,-0.14762239158153534,0.9777231216430664,0.45260483026504517,0.4865361452102661,-0.17013759911060333,0.9596076607704163,179.3058655228466,0.49998825788497925,0.4624285399913788,126.03759755403921,134.02285759414906,0.7424654296061469,0.0,0.0,0.0,0.0,179.12917309996354,2.5841833006609836,0,1762115342.7656038
0.49676162004470825,0.1632681041955948,-0.2849690616130829,0.9999985694885254,0.5425504446029663,0.2599319815635681,-0.1236419826745987,0.999987006187439,0.46210065484046936,0.2604416608810425,-0.12696686387062073,0.9999677538871765,0.5199885368347168,0.4635330140590668,-0.002243608934804797,0.9998935461044312,0.4793272018432617,0.4634477496147156,0.0021748526487499475,0.9998062252998352,0.5155094861984253,0.6145227551460266,-0.0018266119295731187,0.9898331761360168,0.4781338572502136,0.611976683139801,0.016626277938485146,0.9897967576980591,0.5092684030532837,0.7449453473091125,0.16267016530036926,0.9904961585998535,0.4869820475578308,0.7419335842132568,0.16929717361927032,0.9879687428474426,0.5521745085716248,0.47906917333602905,-0.15507546067237854,0.9788234829902649,0.452254056930542,0.4864638149738312,-0.170462504029274,0.9609773755073547,179.24822735431655,0.49965786933898926,0.4634903818368912,128.59053684431706,135.8719213375552,0.7348190483801352,-0.004140720244782827,0.013307937214639161,-0.05189515300592114,0.16678679000761926,179.63701479901,2.044899052898552,1,1762115342.845394
0.4962087571620941,0.16325576603412628,-0.2859829068183899,0.9999984502792358,0.5416279435157776,0.25994378328323364,-0.13249151408672333,0.9999861121177673,0.46115851402282715,0.26030969619750977,-0.1341119259595871,0.9999650716781616,0.5198632478713989,0.464677095413208,-0.0022396990098059177,0.9998884797096252,0.47871965169906616,0.46418172121047974,0.0021688847336918116,0.9998044967651367,0.5153719186782837,0.6144285202026367,0.009462917223572731,0.9896602034568787,0.4768286645412445,0.6119818091392517,0.02351967617869377,0.9898490309715271,0.5082507133483887,0.7446666359901428,0.16281470656394958,0.9902161955833435,0.484968364238739,0.7417540550231934,0.16918714344501495,0.9878974556922913,0.5512114763259888,0.4804783761501312,-0.15805676579475403,0.9799128174781799,0.4511655867099762,0.4864434599876404,-0.169707790017128,0.9620547294616699,179.41058617552326,0.49929144978523254,0.46442940831184387,134.83135433736965,139.80333589015655,0.7352801228826843,-0.006555711013381222,0.016800375800335277,-0.043207250859287394,0.06248416020670963,179.73946477203054,4.119138822909619,2,1762115342.901287
0.4955519139766693,0.16338200867176056,-0.2841293513774872,0.9999984502792358,0.5406752228736877,0.2599664330482483,-0.13147807121276855,0.9999859929084778,0.460223525762558,0.26029691100120544,-0.13599422574043274,0.9999648332595825,0.5192724466323853,0.46594828367233276,-0.0009604096412658691,0.9998883605003357,0.47789230942726135,0.4652133584022522,0.0008619908476248384,0.9998089075088501,0.5146114826202393,0.6141786575317383,0.011194439604878426,0.9889634847640991,0.47584739327430725,0.6121290922164917,0.022417258471250534,0.9895961284637451,0.5066611170768738,0.7444698810577393,0.16898930072784424,0.9893879294395447,0.48360171914100647,0.7411206364631653,0.16931916773319244,0.9873664379119873,0.5500227212905884,0.4813444912433624,-0.15706399083137512,0.9810987114906311,0.44945111870765686,0.48645642399787903,-0.16953955590724945,0.9636831879615784,179.47934530871382,0.4985823780298233,0.4655808210372925,134.26024989197674,139.52269140379315,0.7356533831749608,-0.009580707875086173,0.01555745082500596,-0.04087260708659993,-0.016793929540186117,179.76464280922096,18.854770112010012,3,1762115342.9752975
0.4953852593898773,0.163519948720932,-0.24305827915668488,0.9999984502792358,0.5404385328292847,0.26057541370391846,-0.1154613345861435,0.9999852776527405,0.4597628116607666,0.2604111135005951,-0.12331683933734894,0.9999645948410034,0.5186916589736938,0.46745550632476807,-0.0006523436168208718,0.9998884201049805,0.4775334894657135,0.4661237895488739,0.0005392410675995052,0.9998149871826172,0.5140447616577148,0.6139119863510132,0.02002902515232563,0.9885963797569275,0.47537440061569214,0.6121141910552979,0.0248099435120821,0.9896065592765808,0.5056217908859253,0.7444074153900146,0.15126562118530273,0.9892146587371826,0.48297834396362305,0.7409517168998718,0.1501215547323227,0.9872970581054688,0.5493912100791931,0.4818318784236908,-0.12378809601068497,0.9817634224891663,0.448549747467041,0.4863881766796112,-0.1403689980506897,0.9648910760879517,179.44785217504648,0.4981125742197037,0.466789647936821,142.8926562277547,145.08652393422622,0.7003339010452576,-0.006821596471671594,0.01755228275093297,0.04006256273164134,0.028965151270306813,-179.88331439654112,4.842951569092176,4,1762115343.0441675
0.4953692853450775,0.16352197527885437,-0.23784132301807404,0.9999984502792358,0.5402277708053589,0.2608872354030609,-0.11119969934225082,0.9999843239784241,0.4594319462776184,0.2604297995567322,-0.11741049587726593,0.9999642968177795,0.5184286832809448,0.46763473749160767,-0.0006822068244218826,0.9998849630355835,0.47719478607177734,0.46627378463745117,0.0005653804400935769,0.9998169541358948,0.5139685273170471,0.6132650971412659,0.01797468401491642,0.9882293343544006,0.47494274377822876,0.611832320690155,0.02563471533358097,0.9894566535949707,0.5054069757461548,0.7440416216850281,0.14834001660346985,0.9887523055076599,0.4829225540161133,0.740960419178009,0.14679092168807983,0.9869484305381775,0.548983633518219,0.4819568693637848,-0.11972220987081528,0.9822823405265808,0.4477561116218567,0.48567259311676025,-0.13545377552509308,0.9661808609962463,179.43951198611347,0.4978117346763611,0.4669542610645294,142.4059114599426,146.42389906599954,0.6955261181591005,-0.0044775450748556645,0.0024500193393397654,0.034887686872564896,-0.22477452400845618,-179.67561611611688,6.914445666298411,5,1762115343.111356
0.4951949715614319,0.16339804232120514,-0.24729058146476746,0.9999983906745911,0.5399091839790344,0.2610296905040741,-0.11407019197940826,0.9999831318855286,0.4591105580329895,0.2602146863937378,-0.11899565160274506,0.9999639987945557,0.5180284976959229,0.4687460958957672,-0.001238911529071629,0.9998826384544373,0.47683411836624146,0.46714091300964355,0.0011245787609368563,0.99982088804245,0.5135733485221863,0.6132310628890991,0.018600232899188995,0.9879224300384521,0.4740878641605377,0.6117787957191467,0.030735796317458153,0.9893767833709717,0.5044611692428589,0.7434042096138,0.15097223222255707,0.9883719086647034,0.4824887216091156,0.7410145401954651,0.14752112329006195,0.9868366122245789,0.547406017780304,0.48277366161346436,-0.1286613792181015,0.9826475381851196,0.44718533754348755,0.4849016070365906,-0.14530019462108612,0.967016339302063,179.42558296380255,0.49743130803108215,0.4679435044527054,142.3523132274673,149.23362957245186,0.7016176417162507,-0.005553303008050005,0.014440545507066811,-0.015703447275523023,0.17503249538822122,-179.4220853181801,5.8278406332967325,6,1762115343.1798606
0.4952023923397064,0.16342829167842865,-0.2610803246498108,0.9999982118606567,0.5398439168930054,0.26106590032577515,-0.12187598645687103,0.9999818205833435,0.45905202627182007,0.2597024142742157,-0.1253701001405716,0.9999619126319885,0.5179284811019897,0.4686430096626282,-0.0012490536319091916,0.9998770356178284,0.47665220499038696,0.46694326400756836,0.001135553466156125,0.9998191595077515,0.5134590268135071,0.6132094264030457,0.01759817823767662,0.9878810048103333,0.47407180070877075,0.6117115616798401,0.02872898057103157,0.9894692301750183,0.5040873289108276,0.7431177496910095,0.15931129455566406,0.988265335559845,0.4821358621120453,0.7410460710525513,0.1532641053199768,0.9868610501289368,0.5465405583381653,0.48280954360961914,-0.14716988801956177,0.9828683733940125,0.44695305824279785,0.48376572132110596,-0.15392336249351501,0.9670737385749817,179.40398650988695,0.49729034304618835,0.46779313683509827,139.95689186753856,146.68734358366012,0.7134707070416203,-0.0021205893534757938,-0.0022620366983006593,0.05163960422444796,-0.2512632341069731,-179.03313835061172,3.2950036704150834,7,1762115343.246335
0.4952434003353119,0.16329269111156464,-0.27076494693756104,0.9999980926513672,0.5398657917976379,0.2607869505882263,-0.1260126829147339,0.999980628490448,0.4590442180633545,0.25942233204841614,-0.13128723204135895,0.9999594688415527,0.5179320573806763,0.4679875671863556,-0.0012636734172701836,0.9998720288276672,0.4765947759151459,0.46628642082214355,0.001149207935668528,0.9998160004615784,0.5134556889533997,0.6130477786064148,0.015903547406196594,0.9879170060157776,0.4741019308567047,0.6117203831672668,0.028565114364027977,0.989474356174469,0.5039463639259338,0.7431309819221497,0.15809102356433868,0.9882858991622925,0.48182135820388794,0.7413097620010376,0.15538737177848816,0.9868689179420471,0.5463392734527588,0.48285019397735596,-0.14665868878364563,0.9829067587852478,0.44684863090515137,0.4834308326244354,-0.15685997903347015,0.967075526714325,179.39350508557968,0.49726341664791107,0.4671369940042496,139.2220386888475,146.12720699186414,0.7196684102680987,-0.00038818141197497765,-0.009459209802708462,0.024975065507213307,-0.103757241838558,-179.03269076837051,2.4461087334400897,8,1762115343.3157005
0.49527230858802795,0.16329804062843323,-0.2512008547782898,0.9999980926513672,0.5398557782173157,0.2607693672180176,-0.11927107721567154,0.9999799132347107,0.4589856266975403,0.2592857778072357,-0.1209959015250206,0.9999585747718811,0.517896294593811,0.46791526675224304,-0.002031004521995783,0.9998685121536255,0.47645583748817444,0.4660900831222534,0.0019201639806851745,0.9998148679733276,0.5134295225143433,0.6133084893226624,0.014988355338573456,0.9879747033119202,0.4737873673439026,0.6118258833885193,0.02794964611530304,0.9894399046897888,0.5032736659049988,0.7432107925415039,0.14118120074272156,0.9882892966270447,0.48024576902389526,0.7413126826286316,0.14621202647686005,0.9867938756942749,0.5461792945861816,0.4828369915485382,-0.13567174971103668,0.9830377697944641,0.44613656401634216,0.48274558782577515,-0.14730936288833618,0.9675154089927673,179.37865400210734,0.49717606604099274,0.46700267493724823,142.51245395239783,147.57020418328597,0.7008247364565625,-0.0010924208134677484,-0.0016798159693958178,-0.008807331820533589,0.09729035709641497,-178.94900805673726,1.2134957496717127,9,1762115343.395661
0.49571365118026733,0.16296470165252686,-0.2612156867980957,0.9999979138374329,0.5403584241867065,0.26074543595314026,-0.12183912098407745,0.9999784231185913,0.4591265320777893,0.258868545293808,-0.12451444566249847,0.9999550580978394,0.5179206132888794,0.4674025774002075,-0.002141241217032075,0.9998646974563599,0.47646474838256836,0.46517542004585266,0.002029692055657506,0.9998108148574829,0.5133476853370667,0.6130556464195251,0.01564972661435604,0.9880311489105225,0.47384113073349,0.6116694808006287,0.027429308742284775,0.9894195795059204,0.5031834840774536,0.7435433864593506,0.1455305814743042,0.988381028175354,0.48033538460731506,0.7413578629493713,0.15010230243206024,0.9867315292358398,0.5461578965187073,0.4829098880290985,-0.13652899861335754,0.9828844666481018,0.44619864225387573,0.4833241403102875,-0.14945849776268005,0.9672226905822754,179.29250398256872,0.4971926808357239,0.4662889987230301,142.1073879874835,146.2887469409978,0.7093143542864752,0.00020165782627693714,-0.008662062719020295,0.015706548876780576,-0.08474523608886383,-178.67639691620386,1.3887983833280806,10,1762115343.4780521
0.49637141823768616,0.16139590740203857,-0.2659528851509094,0.9999977946281433,0.5421246886253357,0.2604112923145294,-0.1222277507185936,0.999976396560669,0.46053165197372437,0.25716638565063477,-0.12495503574609756,0.9999531507492065,0.5189149975776672,0.4670475423336029,-0.0020462123211473227,0.9998612403869629,0.47715872526168823,0.4646064341068268,0.0019340284634381533,0.9998090267181396,0.5135766267776489,0.6124701499938965,0.01298275776207447,0.9881535768508911,0.4740019738674164,0.6107196807861328,0.024583756923675537,0.9895961284637451,0.5032672882080078,0.7434799075126648,0.14611592888832092,0.9884035587310791,0.48023128509521484,0.7415413856506348,0.15183991193771362,0.9869056344032288,0.5464670062065125,0.48392513394355774,-0.13663233816623688,0.9827349185943604,0.4476490020751953,0.4815659821033478,-0.15244920551776886,0.9672107100486755,179.08923922820452,0.49803686141967773,0.46582698822021484,140.46666949714,144.46305233424917,0.7140611161505125,0.011276130240379104,-0.006171298773264035,0.14792710903159953,0.03327034426549109,-177.72258099221872,1.6125854161312787,11,1762115343.5529165
0.49792391061782837,0.16002799570560455,-0.27586445212364197,0.999997615814209,0.5440458655357361,0.259704053401947,-0.12450305372476578,0.9999744296073914,0.4618283212184906,0.25640520453453064,-0.1292625069618225,0.9999520778656006,0.5198946595191956,0.46641433238983154,-0.0013010120019316673,0.9998567700386047,0.4776323735713959,0.46371662616729736,0.0011918970849364996,0.999807596206665,0.5139702558517456,0.6125814914703369,0.012515880167484283,0.9883894920349121,0.47474557161331177,0.6106798648834229,0.02211136743426323,0.9899395108222961,0.5036207437515259,0.7434937357902527,0.15930776298046112,0.9885392189025879,0.4804353713989258,0.7418085932731628,0.15672409534454346,0.9872283339500427,0.5474133491516113,0.4838774800300598,-0.14311093091964722,0.9824312329292297,0.4493727684020996,0.4807893633842468,-0.15884549915790558,0.9674715995788574,178.84500766108712,0.4987635165452957,0.46506547927856445,137.16821393377467,142.24443324307364,0.7264548872442664,0.009754591949406144,-0.010222468306827675,-0.02042507462011737,-0.0543827523189516,-177.70232997871668,1.7905767452621655,12,1762115343.6274102
0.5007046461105347,0.1590651273727417,-0.2762809097766876,0.9999974370002747,0.5463091731071472,0.2591385543346405,-0.1244441419839859,0.9999738335609436,0.4638213515281677,0.2556312680244446,-0.125811368227005,0.9999494552612305,0.5213130712509155,0.4665311574935913,-0.0016301136929541826,0.9998552799224854,0.47911882400512695,0.46378326416015625,0.0015313841868191957,0.999805748462677,0.514994204044342,0.6134292483329773,0.013094717636704445,0.9885315299034119,0.47636932134628296,0.6106821894645691,0.026682620868086815,0.9901353716850281,0.5043646097183228,0.7435122728347778,0.17395839095115662,0.9885592460632324,0.4816804826259613,0.7421011924743652,0.17644177377223969,0.9874386787414551,0.5489751696586609,0.4839111268520355,-0.154206320643425,0.9826887845993042,0.4515058100223541,0.48073428869247437,-0.1595933437347412,0.9672164916992188,178.66298427893247,0.5002159476280212,0.4651572108268738,134.73355738181317,140.8996034754505,0.7380029557249295,0.01867701342539082,0.001179588745849595,0.11473465947950452,0.14662063844730397,-177.56531651694797,1.8229022515267934,13,1762115343.7051759
0.5030890703201294,0.15890155732631683,-0.2946383059024811,0.9999973177909851,0.5494626760482788,0.2588037848472595,-0.13607831299304962,0.9999725818634033,0.4666060507297516,0.2551718056201935,-0.13849934935569763,0.9999488592147827,0.5238006114959717,0.46672090888023376,-0.0016309398924931884,0.9998517632484436,0.4813712537288666,0.4637965261936188,0.0015319088706746697,0.9998041987419128,0.5169585943222046,0.613432765007019,0.015241287648677826,0.9887098670005798,0.4780072569847107,0.6106244325637817,0.02934332564473152,0.9904112219810486,0.505348265171051,0.7434905767440796,0.17983853816986084,0.9886319637298584,0.48265132308006287,0.7421244382858276,0.18124912679195404,0.9876980781555176,0.5525185465812683,0.4839590787887573,-0.152261883020401,0.982646644115448,0.4531075060367584,0.48078346252441406,-0.16776105761528015,0.9672166109085083,178.50146673675496,0.5025859326124191,0.46525871753692627,134.93140913215007,141.51939616813416,0.7528790329435704,0.0343376391666753,0.00147068475358474,0.22689971428877745,0.004217558230230127,-177.4900745720285,1.5637844705245465,14,1762115343.774196
0.5057481527328491,0.15853950381278992,-0.3148646950721741,0.9999973177909851,0.551657497882843,0.2585950195789337,-0.14586402475833893,0.9999729990959167,0.4685729444026947,0.2549729645252228,-0.14929451048374176,0.9999486804008484,0.5263184309005737,0.46701231598854065,-0.001633432344533503,0.9998526573181152,0.4838600158691406,0.46416404843330383,0.0015342524275183678,0.9998027682304382,0.5187496542930603,0.6139113306999207,0.015718597918748856,0.9890709519386292,0.480944961309433,0.6111687421798706,0.03393986448645592,0.9906825423240662,0.5063640475273132,0.7434732913970947,0.20226824283599854,0.9887805581092834,0.48389172554016113,0.7417032718658447,0.20486900210380554,0.9879792332649231,0.5553292036056519,0.48532336950302124,-0.15869750082492828,0.9828886985778809,0.45533910393714905,0.48076340556144714,-0.18036046624183655,0.9672879576683044,178.6211346441502,0.5050892233848572,0.46558818221092224,131.58736547401898,139.7548518152993,0.7810242439664192,0.03928462522776678,0.005170352715803179,0.07763400702655465,0.0580596033681596,-177.50378212331833,1.0647350041627632,15,1762115343.8379178
0.5077674388885498,0.1583917737007141,-0.3071911931037903,0.9999973177909851,0.5538722276687622,0.258341908454895,-0.14612725377082825,0.999973475933075,0.47062429785728455,0.25488588213920593,-0.14836949110031128,0.999949038028717,0.527702271938324,0.4679472744464874,-0.0016355861444026232,0.9998547434806824,0.48549437522888184,0.46537908911705017,0.0015364137943834066,0.9998038411140442,0.5202473402023315,0.6160723567008972,0.015822667628526688,0.9894161224365234,0.4828554093837738,0.6117361187934875,0.037195343524217606,0.9909148812294006,0.5077258348464966,0.7435617446899414,0.20462071895599365,0.9888594150543213,0.4846471846103668,0.7410750389099121,0.20892243087291718,0.988128662109375,0.5581115484237671,0.48533809185028076,-0.15849612653255463,0.9830583333969116,0.4562895894050598,0.480788916349411,-0.17878887057304382,0.967447817325592,178.45922051114468,0.5065983235836029,0.4666631817817688,130.8218025911975,140.6502429074003,0.7779859511289213,0.019000636393927843,0.013535003166960349,-0.2553897327497501,0.10531685166885398,-177.6227387184863,1.0529409724952832,16,1762115343.9173415
0.5089333653450012,0.15707425773143768,-0.2992720901966095,0.9999972581863403,0.5562107563018799,0.25812914967536926,-0.14271944761276245,0.9999741315841675,0.4714677929878235,0.25490841269493103,-0.14452214539051056,0.99994957447052,0.5286502242088318,0.47085076570510864,-0.0025076165329664946,0.9998607635498047,0.4865178167819977,0.469149112701416,0.0023881890811026096,0.9998098611831665,0.5216609239578247,0.6177970170974731,0.01952851563692093,0.9897199869155884,0.4834005832672119,0.6133033037185669,0.04955771565437317,0.9910457134246826,0.5097202658653259,0.7436587810516357,0.2200051099061966,0.9889708161354065,0.48623037338256836,0.7390361428260803,0.23238389194011688,0.9882060289382935,0.5592753887176514,0.48537155985832214,-0.15006031095981598,0.9829253554344177,0.45775681734085083,0.48075827956199646,-0.17496126890182495,0.9671433568000793,178.321645107086,0.5075840204954147,0.46999993920326233,130.71033511726338,142.58703313388966,0.7858819213494215,0.013674562407387807,0.04629079897861981,-0.07388856578786787,0.45442079473177704,-177.8234669273425,1.3728398491291454,17,1762115343.989424
0.5115269422531128,0.1570427119731903,-0.3015564978122711,0.999997079372406,0.5574020743370056,0.257861852645874,-0.14052465558052063,0.999974250793457,0.4722532629966736,0.2548240125179291,-0.1431455910205841,0.9999487996101379,0.5296250581741333,0.4722781181335449,-0.0026693944819271564,0.9998634457588196,0.4880422055721283,0.47108760476112366,0.002554358448833227,0.9998114705085754,0.5224754214286804,0.6180384159088135,0.020058518275618553,0.989889919757843,0.484447181224823,0.615476131439209,0.047995805740356445,0.9910597205162048,0.509687066078186,0.7443532347679138,0.22408875823020935,0.9888706803321838,0.48720988631248474,0.7390916347503662,0.23302963376045227,0.9882042407989502,0.5611344575881958,0.4853236675262451,-0.14986130595207214,0.9824914932250977,0.4586295187473297,0.48077601194381714,-0.17592832446098328,0.9659798741340637,178.4055704103135,0.5088336318731308,0.4716828614473343,130.6900881624238,141.1606983281401,0.7893314090625019,0.018712133924076845,0.02520068797103881,0.07543442269602854,-0.31581097026244653,-177.95673452465115,1.1955017649400124,18,1762115344.0562048
0.5125727653503418,0.156760111451149,-0.29515594244003296,0.9999969005584717,0.5593239068984985,0.25743576884269714,-0.12283738702535629,0.9999746680259705,0.4732483923435211,0.25484219193458557,-0.13858634233474731,0.9999483823776245,0.5309797525405884,0.4743027091026306,0.0011517631355673075,0.9998674988746643,0.4882076680660248,0.47311532497406006,-0.00124969647731632,0.9998173713684082,0.5237153768539429,0.6181647181510925,0.027210738509893417,0.9898568391799927,0.4847627580165863,0.6184837818145752,0.04543527215719223,0.991154134273529,0.5099767446517944,0.7444071173667908,0.23650190234184265,0.9886494278907776,0.4874068796634674,0.7439914345741272,0.22276589274406433,0.9881930947303772,0.56290203332901,0.48485878109931946,-0.1272706836462021,0.9828065633773804,0.4591229557991028,0.48100608587265015,-0.16825564205646515,0.9655601382255554,178.23814130932666,0.5095937103033066,0.47370901703834534,131.43479572967948,143.04022581305054,0.7878336302938912,0.00918882928896101,0.02449483776874011,-0.11513025114870422,-0.008533247037416073,-178.27411936825743,1.2062241160175267,19,1762115344.1389225
0.5125861167907715,0.15571889281272888,-0.2941592335700989,0.9999970197677612,0.5593184232711792,0.2569115161895752,-0.11689801514148712,0.9999756813049316,0.4733971953392029,0.254647433757782,-0.1363140344619751,0.9999505281448364,0.5314158201217651,0.47501444816589355,0.005669848993420601,0.9998685121536255,0.4885044991970062,0.473712295293808,-0.005739973857998848,0.9998227953910828,0.5234041810035706,0.6227280497550964,0.02638956531882286,0.9892610907554626,0.48434025049209595,0.6221266984939575,0.02745647355914116,0.9911609292030334,0.5094560384750366,0.7449776530265808,0.23543031513690948,0.9873529672622681,0.48749232292175293,0.7544859051704407,0.21665458381175995,0.9880906939506531,0.5642496943473816,0.4849354922771454,-0.1280084103345871,0.9836351275444031,0.4590730667114258,0.48101919889450073,-0.17151272296905518,0.9661491513252258,178.32351004943771,0.5099601596593857,0.47436337172985077,128.38844054041402,137.5210976252761,0.7897216261798216,0.005127777407086142,0.009156477280309602,-0.05682687046225158,-0.2146318367587444,-178.49056678026727,1.1849616806008219,20,1762115344.210386
0.5119710564613342,0.15575765073299408,-0.268370658159256,0.9999971389770508,0.5588076114654541,0.2563208341598511,-0.09774147719144821,0.999975860118866,0.4731108546257019,0.25458475947380066,-0.12591961026191711,0.9999534487724304,0.5307921171188354,0.4757270812988281,0.009278309531509876,0.9998581409454346,0.4880288541316986,0.4739300608634949,-0.009365437552332878,0.9998255372047424,0.5229129195213318,0.6244869828224182,0.0273940060287714,0.9873806834220886,0.48404282331466675,0.6274445652961731,0.002449333667755127,0.9905992746353149,0.5087529420852661,0.7450813055038452,0.22215798497200012,0.9842104315757751,0.4874300956726074,0.7682254314422607,0.14614897966384888,0.9873166084289551,0.5640282034873962,0.484939843416214,-0.10967550426721573,0.9842429757118225,0.4588511884212494,0.48437321186065674,-0.15605387091636658,0.9675582051277161,178.2901293714128,0.509410485625267,0.4748285710811615,128.79410086344686,138.7419036535477,0.7523605537748858,-0.008614955757503288,0.007290997175056798,-0.21538772227060451,-0.02923737993013219,-178.83944093144237,1.215578036304002,21,1762115344.2741907
0.5118531584739685,0.15505987405776978,-0.21571144461631775,0.9999973177909851,0.5587356090545654,0.2558272182941437,-0.07639271765947342,0.9999765157699585,0.4727100431919098,0.2545872926712036,-0.09277123957872391,0.9999567866325378,0.530436635017395,0.47790899872779846,0.007712154183536768,0.9998455047607422,0.4878212809562683,0.47707921266555786,-0.007811888121068478,0.999833345413208,0.5209017992019653,0.6257478594779968,0.02016611211001873,0.9848735332489014,0.4837214946746826,0.6360900402069092,-0.005518506281077862,0.9894511103630066,0.5071497559547424,0.7433955073356628,0.2167540341615677,0.974966287612915,0.48663583397865295,0.7822389602661133,0.0848957747220993,0.9857024550437927,0.5641583204269409,0.4850916862487793,-0.09115013480186462,0.9851576089859009,0.45676589012145996,0.4866862893104553,-0.12757845222949982,0.9692397713661194,178.30088887852136,0.5091289579868317,0.47749410569667816,125.8249396110476,148.9859006222251,0.7098885236282346,-0.003581041123309274,0.03390569084733426,0.06403156512967334,0.338539807510184,-179.17422704091848,1.2166140645401036,22,1762115344.3528068
0.5119649171829224,0.15464332699775696,-0.18372055888175964,0.9999974966049194,0.5590049028396606,0.255645215511322,-0.06462301313877106,0.9999759793281555,0.4724477231502533,0.25484228134155273,-0.07616817951202393,0.9999603033065796,0.530121386051178,0.4801434278488159,0.007115024141967297,0.9998217225074768,0.48775720596313477,0.479937881231308,-0.007240598555654287,0.9998438954353333,0.5208464860916138,0.6261878609657288,0.027428412809967995,0.9815322756767273,0.48369303345680237,0.6452255845069885,-0.023527443408966064,0.9887259006500244,0.5074923634529114,0.7405799031257629,0.21448516845703125,0.9614691138267517,0.4865879416465759,0.8010197877883911,0.012790301814675331,0.9845541715621948,0.5647396445274353,0.48643240332603455,-0.0867343544960022,0.9856529831886292,0.45544737577438354,0.49017491936683655,-0.10823849588632584,0.9703948497772217,178.27066420214155,0.5089392960071564,0.48004065454006195,129.46777506082057,161.08767458463998,0.684319778217999,-0.0026622446520842813,0.03574536156997135,0.012896949594538538,0.025823064545258626,-179.4685198869694,1.297558141253007,23,1762115344.4240482
0.5116533637046814,0.1546584516763687,-0.1986999809741974,0.999997615814209,0.559487521648407,0.2553497552871704,-0.06808765232563019,0.9999755024909973,0.4724176526069641,0.2550581693649292,-0.0782351866364479,0.9999629259109497,0.5298997163772583,0.48242267966270447,0.006610509008169174,0.9997917413711548,0.48755764961242676,0.48075374960899353,-0.006712628994137049,0.9998492002487183,0.5200921297073364,0.6294358968734741,0.025942515581846237,0.975361704826355,0.48416438698768616,0.6476080417633057,-0.01995772495865822,0.9862276315689087,0.5073005557060242,0.7398650050163269,0.21287766098976135,0.9404463171958923,0.48653921484947205,0.8073562383651733,0.029907364398241043,0.9817209839820862,0.5651918053627014,0.4878426492214203,-0.09671970456838608,0.9859416484832764,0.4551254212856293,0.49299588799476624,-0.11132941395044327,0.9707481861114502,178.1723162428172,0.5087286829948425,0.481588214635849,128.16899334519525,158.03284348161074,0.6969778107334511,-0.003031798057452723,0.022277302055805335,-0.005319762934929736,-0.19387423513918584,-179.80812443570346,1.3867127648762183,24,1762115344.4935162
0.5114213824272156,0.1546841263771057,-0.22269856929779053,0.9999977350234985,0.559792697429657,0.2553898096084595,-0.08257722109556198,0.9999760389328003,0.47232991456985474,0.2552129626274109,-0.10106492042541504,0.9999660849571228,0.5298861265182495,0.48612260818481445,0.012344020418822765,0.9997860789299011,0.48735952377319336,0.4849100708961487,-0.012424303218722343,0.9998602867126465,0.5200729966163635,0.6299033761024475,0.058075178414583206,0.9730068445205688,0.48409944772720337,0.6550033688545227,-0.025685444474220276,0.9864419102668762,0.5073160529136658,0.739558756351471,0.2972603738307953,0.9299097061157227,0.4863942563533783,0.8160079717636108,0.04421217367053032,0.9815903306007385,0.5659787058830261,0.49055057764053345,-0.10500480979681015,0.9862527251243591,0.45460525155067444,0.4969286322593689,-0.14486393332481384,0.9715956449508667,178.14935854623243,0.5086228251457214,0.48551633954048157,132.34444791325188,152.01163334453193,0.7370588922973783,-0.0017167979398424722,0.06370615688594507,0.021326614054129965,0.6718913449776871,-179.88414990360587,1.4217096395713174,25,1762115344.5551763
0.5112466812133789,0.15505020320415497,-0.2805662155151367,0.9999978542327881,0.5604194402694702,0.25586003065109253,-0.09773679077625275,0.9999760985374451,0.4722430109977722,0.2568257451057434,-0.13407059013843536,0.999968945980072,0.5303900241851807,0.49059605598449707,0.01416892372071743,0.999778151512146,0.4873593747615814,0.4889719784259796,-0.014257842674851418,0.9998709559440613,0.5200294852256775,0.6295963525772095,0.10132142156362534,0.968793511390686,0.48404788970947266,0.6591180562973022,-0.024334698915481567,0.9863844513893127,0.5073457956314087,0.7364746332168579,0.36800938844680786,0.915485143661499,0.48645663261413574,0.8268318176269531,0.050809092819690704,0.9811306595802307,0.5670536756515503,0.4953364133834839,-0.12609463930130005,0.9861188530921936,0.45379504561424255,0.5055239796638489,-0.18197421729564667,0.9722336530685425,178.1704926117709,0.508874699473381,0.48978401720523834,143.96261577049202,152.4107821383169,0.7955583495296152,0.003983264773639897,0.0674911582503516,0.09014360147429089,0.05985787731171508,179.37251768085963,1.4511170263794084,26,1762115344.6184094
0.5110750198364258,0.15587259829044342,-0.3212825357913971,0.9999979734420776,0.5608894228935242,0.25592148303985596,-0.12491762638092041,0.9999766945838928,0.472146600484848,0.25834378600120544,-0.15947696566581726,0.9999715685844421,0.5310242176055908,0.49167782068252563,0.015558886341750622,0.9997653961181641,0.487629234790802,0.4907339811325073,-0.015645410865545273,0.999879777431488,0.5202947854995728,0.6291967034339905,0.11052446067333221,0.9645677804946899,0.4841125011444092,0.6578258275985718,-0.026078522205352783,0.9865778088569641,0.5075076818466187,0.7337712645530701,0.3795926570892334,0.9015880227088928,0.4864698052406311,0.8319603204727173,0.051834069192409515,0.9808318018913269,0.5681065320968628,0.49786970019340515,-0.15994040668010712,0.9864472150802612,0.4534355103969574,0.5082095265388489,-0.20651733875274658,0.9732295870780945,178.2402913664492,0.5093267261981964,0.4912059009075165,145.89788906740756,152.25428564442637,0.8256412563886871,0.005703113954740569,0.017939569364605237,0.02169892912590662,-0.6251806420722043,178.4364562711851,1.378723862911798,27,1762115344.697669
0.5107868909835815,0.15643301606178284,-0.3077981770038605,0.9999980330467224,0.5609599351882935,0.25657474994659424,-0.12035788595676422,0.9999764561653137,0.47202354669570923,0.26094168424606323,-0.15170177817344666,0.9999739527702332,0.531615138053894,0.4964046776294708,0.014953626319766045,0.9997473359107971,0.4878392815589905,0.49645376205444336,-0.015049310401082039,0.999888002872467,0.5207427144050598,0.6292562484741211,0.12594851851463318,0.9577857255935669,0.48415860533714294,0.6678840517997742,-0.02610543929040432,0.9862036108970642,0.5075098872184753,0.7332950234413147,0.3893413245677948,0.883162260055542,0.4871702194213867,0.8469894528388977,0.042622607201337814,0.9800440669059753,0.5684179663658142,0.5029000043869019,-0.15223261713981628,0.9860948324203491,0.45320042967796326,0.5109547972679138,-0.19769425690174103,0.9736692309379578,178.36970233933462,0.5097272098064423,0.4964292198419571,151.45888932959556,155.22291681004825,0.8222614144385514,0.005713551977251236,0.07451916535711613,0.00014891541857515138,0.8072002346638788,177.18893337392979,1.3233669430230854,28,1762115344.7677627
0.5106898546218872,0.15644076466560364,-0.3223347067832947,0.999998152256012,0.5611374974250793,0.2577732801437378,-0.12226752936840057,0.9999770522117615,0.4719730317592621,0.262923926115036,-0.16812099516391754,0.9999762773513794,0.5321415662765503,0.5007672309875488,0.02024182304739952,0.9997455477714539,0.4878862500190735,0.5004114508628845,-0.02039356902241707,0.9998969435691833,0.5206906199455261,0.6318026781082153,0.16586890816688538,0.9469464421272278,0.48485898971557617,0.6740321516990662,-0.033382244408130646,0.9858651757240295,0.5071378946304321,0.7325692772865295,0.43994712829589844,0.866117537021637,0.488800585269928,0.855446457862854,0.02947651967406273,0.9794653654098511,0.5693771243095398,0.5058434009552002,-0.1551523506641388,0.9854457378387451,0.4529050290584564,0.5141502618789673,-0.2232315093278885,0.9738309979438782,178.440316410398,0.5100139081478119,0.5005893409252167,158.2223674017319,156.50763117108258,0.8467316352838631,0.004232009122135255,0.06140834400867166,-0.021869337812462628,-0.19353134475852396,176.6939443782498,1.3609212831126491,29,1762115344.8355079
0.5105079412460327,0.15679630637168884,-0.32650813460350037,0.9999982714653015,0.5614964962005615,0.25802305340766907,-0.1223168596625328,0.9999780654907227,0.47169414162635803,0.26646503806114197,-0.17500515282154083,0.9999784231185913,0.5328549742698669,0.5037456154823303,0.023849165067076683,0.9997459053993225,0.48873305320739746,0.5050627589225769,-0.024028833955526352,0.9999052286148071,0.5220991969108582,0.632707417011261,0.1810002624988556,0.942700982093811,0.4881421625614166,0.6758044362068176,-0.02710634469985962,0.9862611889839172,0.5071414709091187,0.7264500260353088,0.45350709557533264,0.8602340817451477,0.4909185767173767,0.8623604774475098,0.04177680239081383,0.9799132943153381,0.5706462860107422,0.507887601852417,-0.1497497260570526,0.985369086265564,0.4527726173400879,0.5171307325363159,-0.22469869256019592,0.9746904969215393,178.627657159651,0.5107940137386322,0.5044041872024536,159.63570865781708,158.6743166344421,0.8580939507341551,0.011629890809827115,0.05687210319040036,0.11028834719849266,-0.06762672390041574,174.6296198756302,0.9523363184432124,30,1762115344.9025855
0.5100697875022888,0.15679429471492767,-0.3301291763782501,0.9999983906745911,0.5617233514785767,0.25876426696777344,-0.12783360481262207,0.9999789595603943,0.4710369110107422,0.26847440004348755,-0.17400796711444855,0.9999803304672241,0.534309446811676,0.5074324011802673,0.022248059511184692,0.9997459053993225,0.4896756708621979,0.5094396471977234,-0.02242264337837696,0.9999127388000488,0.5228508710861206,0.6352596879005432,0.17900368571281433,0.9378745555877686,0.4885874390602112,0.6823990941047668,-0.024250369518995285,0.9864848852157593,0.5070598721504211,0.7257624268531799,0.455725759267807,0.8501766324043274,0.49270376563072205,0.8730912804603577,0.04073822498321533,0.980197012424469,0.5723620653152466,0.5118523240089417,-0.15305939316749573,0.9853314757347107,0.4525695741176605,0.522706151008606,-0.22353783249855042,0.9752428531646729,178.97326252189475,0.511992558836937,0.5084360241889954,158.94449333605124,160.51143912007905,0.8646282679565874,0.016314957192836696,0.05488258050278133,0.06377453597074773,-0.027081982587549427,173.88841368243968,0.7515107507517371,31,1762115344.9760485
0.5095310211181641,0.1570957601070404,-0.36358410120010376,0.9999985098838806,0.5618926286697388,0.2604868412017822,-0.16199323534965515,0.9999797344207764,0.4694158136844635,0.26954352855682373,-0.20210444927215576,0.9999820590019226,0.5343294143676758,0.5101839303970337,0.02093227580189705,0.9997362494468689,0.4895919859409332,0.5115530490875244,-0.02110515534877777,0.9999188780784607,0.5229824781417847,0.6367974877357483,0.18917280435562134,0.9330716133117676,0.4906715750694275,0.6830233335494995,-0.019041642546653748,0.9867070913314819,0.5075377225875854,0.7232104539871216,0.47104066610336304,0.8381023406982422,0.4941977560520172,0.8786369562149048,0.048627130687236786,0.9801902174949646,0.5725253820419312,0.5186373591423035,-0.19653058052062988,0.984620988368988,0.4513896405696869,0.529400110244751,-0.25395122170448303,0.9753355383872986,179.13929468062875,0.5119607001543045,0.510868489742279,160.10553696675657,161.59361043399596,0.8962362843727175,-0.0005654193941496812,0.043170749252101945,-0.29958841716549095,-0.20785845436679184,174.40659311240844,0.619688421998259,32,1762115345.0323937
0.5065014958381653,0.15518194437026978,-0.32916516065597534,0.9999985098838806,0.5618577003479004,0.2609758973121643,-0.14501738548278809,0.9999798536300659,0.46667832136154175,0.2700802683830261,-0.18203793466091156,0.9999833703041077,0.5341519117355347,0.5132860541343689,0.020804094150662422,0.9997254014015198,0.4887682795524597,0.5162218809127808,-0.02103978395462036,0.9999240040779114,0.52120441198349,0.6475980281829834,0.17055562138557434,0.9230334162712097,0.4902013838291168,0.6963492035865784,-0.01862955652177334,0.9851588606834412,0.5075616240501404,0.7242945432662964,0.4454175531864166,0.8138518929481506,0.4953988492488861,0.891456663608551,0.03869905695319176,0.9780821800231934,0.5729914903640747,0.5180351138114929,-0.17888012528419495,0.9841170310974121,0.4497305452823639,0.534790575504303,-0.20812027156352997,0.9744055867195129,179.3545017029212,0.5114600956439972,0.5147539675235748,153.72541207045037,164.3564725430382,0.8673698596481668,-0.006180659603966808,0.04797163243739679,-0.06932795773270502,0.059273586545394635,174.53600414439515,0.6648059680945618,33,1762115345.113389
0.5035027265548706,0.15409018099308014,-0.3345608115196228,0.9999985694885254,0.5612800717353821,0.2609443664550781,-0.1570960134267807,0.999980092048645,0.46327224373817444,0.2696240246295929,-0.1804770678281784,0.9999845623970032,0.5342906713485718,0.5159341096878052,0.012139329686760902,0.9997095465660095,0.4882351756095886,0.5194619297981262,-0.012328967452049255,0.999927282333374,0.5208950638771057,0.6506150364875793,0.15618881583213806,0.9135990738868713,0.4900696873664856,0.6937914490699768,0.0023633246310055256,0.9832934141159058,0.5078610181808472,0.7244870662689209,0.4232131540775299,0.7907092571258545,0.4958575665950775,0.8917035460472107,0.053910188376903534,0.9752339124679565,0.5725842714309692,0.5213193297386169,-0.18383027613162994,0.9837301969528198,0.44726505875587463,0.5399631857872009,-0.21887823939323425,0.9736579060554504,179.7700057237732,0.5112629234790802,0.5176980197429657,152.408249680145,170.15855647333893,0.8695946094864152,-0.0028497489670952203,0.04255068039048797,0.04814198368673108,-0.07834956066367059,174.93903964129566,0.2795836056519948,34,1762115345.1825783
0.5004066824913025,0.14870594441890717,-0.32847461104393005,0.9999986290931702,0.5602384209632874,0.25944817066192627,-0.16343632340431213,0.9999796748161316,0.459736168384552,0.26932182908058167,-0.17334763705730438,0.9999854564666748,0.5342153310775757,0.5151175856590271,0.004204855300486088,0.9996682405471802,0.4872768819332123,0.5189567804336548,-0.004396134987473488,0.9999291896820068,0.5204874277114868,0.6491557359695435,0.14760175347328186,0.9048361778259277,0.4899986684322357,0.695503294467926,0.00016879831673577428,0.980918288230896,0.5083901882171631,0.7184556722640991,0.4093313217163086,0.758232593536377,0.4962843358516693,0.895013689994812,0.035637106746435165,0.971796989440918,0.5723063945770264,0.5238518714904785,-0.1830892264842987,0.9833775758743286,0.444588840007782,0.5420178771018982,-0.20438435673713684,0.9723919630050659,-179.82791922033786,0.510746106505394,0.5170371830463409,151.77139314341332,171.34617337916436,0.8582314213677994,-0.007926513769183794,-0.010135369853696709,-0.07786324396360633,-0.8080553154548521,174.3890872499125,0.261048395616096,35,1762115345.2477794
0.49821099638938904,0.1444081813097,-0.36565056443214417,0.9999986886978149,0.5599746704101562,0.25788354873657227,-0.20041398704051971,0.999980092048645,0.4573987126350403,0.2691100239753723,-0.19612333178520203,0.9999863505363464,0.5343705415725708,0.5159092545509338,-0.0023530179169028997,0.9996711015701294,0.48651909828186035,0.5212878584861755,0.0021659585181623697,0.9999338388442993,0.5202537775039673,0.6502189040184021,0.13440273702144623,0.9028851389884949,0.48980432748794556,0.7009798288345337,0.0008387553389184177,0.9794542789459229,0.5099570155143738,0.7152165770530701,0.4401625096797943,0.7334238886833191,0.4969943165779114,0.8981305360794067,0.04203256219625473,0.9703366160392761,0.5722138285636902,0.5271375775337219,-0.22540347278118134,0.9827367067337036,0.44288310408592224,0.5512208938598633,-0.22931435704231262,0.9704050421714783,-179.60513115007188,0.5104448199272156,0.5185985565185547,147.48293950956096,167.73163756746143,0.8982017598029335,-0.004306107393070359,0.02231576956628411,0.051744285312536074,0.4638045684437724,173.75409504639515,1.131075483080715,36,1762115345.3177466
0.4972897469997406,0.13801532983779907,-0.34783756732940674,0.9999986886978149,0.5596500635147095,0.2550787925720215,-0.17909911274909973,0.9999809265136719,0.455099493265152,0.26878783106803894,-0.1861880123615265,0.9999868869781494,0.5346747636795044,0.5168944597244263,-0.007577373180538416,0.999681293964386,0.4849451184272766,0.5234900712966919,0.007433788385242224,0.9999372959136963,0.5227721333503723,0.6618311405181885,0.08541994541883469,0.8997094035148621,0.48871222138404846,0.7064191699028015,0.010145328007638454,0.9764186143875122,0.5136489272117615,0.7103321552276611,0.42519673705101013,0.7055147290229797,0.4972454011440277,0.8981486558914185,0.10228371620178223,0.9668161273002625,0.5721361041069031,0.5280141234397888,-0.20681211352348328,0.9830397367477417,0.4419952929019928,0.5535567402839661,-0.2032887190580368,0.9692423939704895,-179.4597654552524,0.5098099410533905,0.5201922655105591,130.8123139995984,155.16559973463066,0.9044057679135533,-0.009414675279218507,0.023633252369689193,-0.07575540748451516,0.019537069654377716,172.52979401482628,8.226534328042632,37,1762115345.3851817
0.4961346983909607,0.13328254222869873,-0.3406457006931305,0.9999987483024597,0.5595465302467346,0.2527385652065277,-0.1691327542066574,0.999981701374054,0.4539000391960144,0.2682152986526489,-0.16981026530265808,0.9999876022338867,0.5347220301628113,0.5176714658737183,-0.008088940754532814,0.999694287776947,0.48389798402786255,0.5234717726707458,0.007954825647175312,0.9999406337738037,0.5241405963897705,0.6734158992767334,0.03833198919892311,0.8927026987075806,0.4860009551048279,0.7098216414451599,0.006089312024414539,0.9726120829582214,0.5157015323638916,0.7070286870002747,0.390027791261673,0.6631172299385071,0.49710410833358765,0.9012987613677979,0.11477701365947723,0.9609905481338501,0.5721665620803833,0.5282490849494934,-0.19858811795711517,0.9831717014312744,0.44166550040245056,0.5522254109382629,-0.2023545801639557,0.9695239067077637,-179.43019447949092,0.5093100070953369,0.5205716192722321,112.09636116748543,149.77705561496612,0.8954848113086781,-0.007028992551572483,0.005333654020206625,0.033542322646627515,-0.2572894647846531,171.66571036594374,1.94046198541842,38,1762115345.4563062
0.4962761402130127,0.12986350059509277,-0.35575103759765625,0.9999988079071045,0.559420108795166,0.2510063350200653,-0.17416846752166748,0.9999822974205017,0.45274415612220764,0.26657211780548096,-0.18230487406253815,0.9999882578849792,0.5353288054466248,0.518993079662323,-0.007457592990249395,0.9996942281723022,0.4837552011013031,0.5251455307006836,0.00733125489205122,0.9999414086341858,0.5270060300827026,0.6767680048942566,0.07344221323728561,0.8934679627418518,0.4851958155632019,0.7106492519378662,0.00410824129357934,0.9723727107048035,0.51612788438797,0.7094483971595764,0.4177664816379547,0.6554268598556519,0.4969402253627777,0.9023004174232483,0.1177724152803421,0.9604644179344177,0.5722468495368958,0.5302459597587585,-0.2052289992570877,0.9834970235824585,0.4402884542942047,0.5575993657112122,-0.22330817580223083,0.9705825448036194,-179.2470961497547,0.5095420032739639,0.5220693051815033,122.60978831980361,148.2442723508744,0.9197139595103003,0.00308374214852985,0.01990755705982646,0.13442060302959954,0.1937193937324182,171.69818861922974,7.969627665080451,39,1762115345.5315382
0.4968441128730774,0.12720294296741486,-0.3868507742881775,0.9999988079071045,0.5594766736030579,0.24947717785835266,-0.17712299525737762,0.9999829530715942,0.4519234597682953,0.2644353210926056,-0.19039353728294373,0.9999886155128479,0.5352913737297058,0.5201690793037415,0.00503145344555378,0.9997014403343201,0.4822813868522644,0.5274709463119507,-0.0051344530656933784,0.9999433159828186,0.5312566161155701,0.6786416172981262,0.10268227756023407,0.8981796503067017,0.4839645326137543,0.7167729735374451,-0.010884903371334076,0.973896861076355,0.5205857753753662,0.7270196080207825,0.4826625883579254,0.6640290021896362,0.49679890275001526,0.903626024723053,0.11667080223560333,0.9618686437606812,0.5724075436592102,0.5334951281547546,-0.249115988612175,0.9842727184295654,0.43880707025527954,0.5611402988433838,-0.2501755356788635,0.9713515639305115,-179.33739651146163,0.5087863802909851,0.5238200128078461,128.91208501828166,143.85838435311615,0.9720882556040787,-0.011405820389537477,0.026426216764794796,-0.2187140300850258,0.09839650652535561,172.08228190567172,2.850401025197732,40,1762115345.5977871
0.4970434606075287,0.12461330741643906,-0.3768249452114105,0.9999987483024597,0.5595664978027344,0.2488214671611786,-0.17224732041358948,0.9999834299087524,0.4512332081794739,0.26119405031204224,-0.17525427043437958,0.9999881982803345,0.5352628827095032,0.5222328901290894,0.00488907378166914,0.999702513217926,0.4810970425605774,0.5305233001708984,-0.004975742660462856,0.9999409914016724,0.531661868095398,0.6874585747718811,0.07287617027759552,0.8993359804153442,0.48390284180641174,0.722469687461853,-0.010241596028208733,0.9737406969070435,0.5255967974662781,0.7476294040679932,0.44783610105514526,0.6656281352043152,0.4968715310096741,0.900898814201355,0.14642690122127533,0.9606570601463318,0.5729027986526489,0.5354430675506592,-0.24618645012378693,0.9848383069038391,0.43691936135292053,0.5607776641845703,-0.2352159470319748,0.9712836146354675,-179.4130420480769,0.5081799626350403,0.5263780951499939,121.49238293282208,137.11130936835366,0.9715605549787957,-0.009438478265709769,0.0398148113788676,0.03062034176434439,0.20838436683780004,173.48456496485719,0.8051732409160444,41,1762115345.6620367
0.4972924292087555,0.12220537662506104,-0.38384896516799927,0.9999986290931702,0.5596181154251099,0.24847477674484253,-0.17290648818016052,0.9999834895133972,0.4502120912075043,0.2606329917907715,-0.1723470836877823,0.9999857544898987,0.5352493524551392,0.5248961448669434,0.003030329942703247,0.9996870756149292,0.4801134169101715,0.5327329635620117,-0.003057792317122221,0.9999207854270935,0.5326555967330933,0.7078663110733032,-0.004862425848841667,0.8998990654945374,0.48386192321777344,0.7266761064529419,-0.000812835874967277,0.9716265797615051,0.5288872122764587,0.7832808494567871,0.354533851146698,0.6603201031684875,0.4976552128791809,0.8998963236808777,0.19603392481803894,0.9567031264305115,0.5733631253242493,0.537226676940918,-0.25838419795036316,0.9851620197296143,0.4337911009788513,0.5678249597549438,-0.23314312100410461,0.9699254035949707,-179.42211592794834,0.5076813846826553,0.5288145542144775,99.38764164581148,132.00653769355446,0.975819472222759,-0.007908074513022004,0.03864531060328169,0.024274131764894097,-0.01854975582480172,173.65877873651115,0.5517717201577765,42,1762115345.7250834
0.4973691403865814,0.11956799030303955,-0.37465351819992065,0.9999985694885254,0.560320258140564,0.24867290258407593,-0.17579694092273712,0.9999836087226868,0.44965115189552307,0.25912728905677795,-0.15807846188545227,0.9999827742576599,0.5344051122665405,0.5291554927825928,-0.009319879114627838,0.9996877908706665,0.4778467118740082,0.5344691276550293,0.00927714817225933,0.9999076128005981,0.5322363376617432,0.7175554037094116,-0.04308531805872917,0.9020920991897583,0.48326969146728516,0.7282378077507019,-0.0006871720543131232,0.9679473042488098,0.5301302075386047,0.8201768398284912,0.29102784395217896,0.668630063533783,0.4979828894138336,0.900812029838562,0.21312272548675537,0.9518918991088867,0.5735702514648438,0.5425923466682434,-0.24272267520427704,0.9857705235481262,0.43070754408836365,0.568978488445282,-0.208084374666214,0.9697254300117493,-179.76493049988616,0.5061259120702744,0.531812310218811,96.9165821515194,125.99386538913635,0.9705871718718045,-0.015290870184780673,0.02946904853422333,-0.07257560777288213,-0.09020604474978147,174.6035530384087,0.18085509066957717,43,1762115345.826809
0.49777594208717346,0.11707707494497299,-0.3897301256656647,0.9999984502792358,0.5604881048202515,0.24876715242862701,-0.1836453527212143,0.9999845027923584,0.44880732893943787,0.25849848985671997,-0.1548844873905182,0.999977707862854,0.534064531326294,0.5338173508644104,-0.013633796945214272,0.9997050762176514,0.47744566202163696,0.5389153957366943,0.013566608540713787,0.9998930096626282,0.5328667759895325,0.7275418639183044,-0.033438540995121,0.909761369228363,0.48298144340515137,0.7349462509155273,0.024933721870183945,0.9683676362037659,0.5318357348442078,0.8695405125617981,0.29869574308395386,0.6967707276344299,0.5024970173835754,0.901955246925354,0.2936655879020691,0.9526437520980835,0.5741504430770874,0.5476861596107483,-0.25602298974990845,0.9863430857658386,0.42980796098709106,0.5738955140113831,-0.20654121041297913,0.9670062065124512,-179.7755913169895,0.5057550966739655,0.5363663733005524,107.31158314854736,125.20675648771207,1.0303904155752797,-0.005133671438426474,0.0630477153975898,0.14061908328947234,0.4648723994008689,175.02009330706082,0.1198039463774485,44,1762115345.899041
0.4980030059814453,0.11453822255134583,-0.37268850207328796,0.9999983310699463,0.5609980821609497,0.24911266565322876,-0.17968210577964783,0.9999851584434509,0.44753560423851013,0.25731560587882996,-0.1507270634174347,0.999974250793457,0.5338689088821411,0.5363793969154358,-0.014496460556983948,0.9997179508209229,0.476778507232666,0.5413211584091187,0.014430887997150421,0.9998741745948792,0.5329869985580444,0.7296752333641052,0.003311978653073311,0.9164751768112183,0.48160210251808167,0.7379022240638733,0.04226072505116463,0.968680202960968,0.5301789045333862,0.9104875326156616,0.24013757705688477,0.7237502932548523,0.5018969774246216,0.9078333377838135,0.25258907675743103,0.9525805115699768,0.5742412805557251,0.5518743395805359,-0.23474454879760742,0.9869628548622131,0.4265004098415375,0.5742478966712952,-0.1942056268453598,0.9671158790588379,-179.78800435012448,0.5053237080574036,0.5388502776622772,132.62448044432696,136.95485502797186,1.0074596203712718,-0.006305211436934818,0.03630495008102033,-0.017123324802340148,-0.3908744534641806,175.86490997375049,0.12086203890501614,45,1762115345.9674587
0.49856090545654297,0.11153535544872284,-0.36700159311294556,0.9999982714653015,0.5614663362503052,0.24934682250022888,-0.17999961972236633,0.9999857544898987,0.4459310472011566,0.2570534646511078,-0.15124674141407013,0.9999708533287048,0.5336461067199707,0.5425488948822021,-0.019675852730870247,0.9997299909591675,0.47569409012794495,0.5475546717643738,0.019603341817855835,0.9998533725738525,0.5330365896224976,0.7414082288742065,0.0068983882665634155,0.9210652112960815,0.47945350408554077,0.7439947128295898,0.05659621208906174,0.9658060073852539,0.5294478535652161,0.9339179992675781,0.21982638537883759,0.7456021308898926,0.5014846920967102,0.9141673445701599,0.25913602113723755,0.9470149278640747,0.5752557516098022,0.553837776184082,-0.23184426128864288,0.987158477306366,0.4226808547973633,0.5825916528701782,-0.1866714358329773,0.9676593542098999,-179.80929591995374,0.5046700984239578,0.545051783323288,139.72509470021012,140.5877393937075,1.0140391082485674,-0.009196893147210677,0.08726093068038097,-0.0406886409628757,0.7169978605013394,176.18380732897296,0.10533321354903843,46,1762115346.0385273
0.49869638681411743,0.11080443114042282,-0.40384015440940857,0.9999982118606567,0.5620990991592407,0.24974864721298218,-0.20769600570201874,0.9999864101409912,0.4444127082824707,0.25713980197906494,-0.18193528056144714,0.9999679327011108,0.5336088538169861,0.5456058382987976,-0.020354900509119034,0.9997437000274658,0.4746878743171692,0.5504745244979858,0.020204847678542137,0.999835193157196,0.5327754616737366,0.75079745054245,-0.005869729910045862,0.9231806993484497,0.4785488247871399,0.7505015730857849,0.044398583471775055,0.9594711661338806,0.5292642116546631,0.9399080872535706,0.23877985775470734,0.763545572757721,0.5012317299842834,0.9137723445892334,0.279455304145813,0.936949610710144,0.5764095783233643,0.5592250227928162,-0.2406458854675293,0.9872388243675232,0.42012539505958557,0.5847752094268799,-0.19821716845035553,0.9682784676551819,-179.82642648816653,0.5041483640670776,0.5480401813983917,131.7405286984491,131.62692309746933,1.051523331100844,-0.007573168579299271,0.04337771148548568,0.0235689670748802,-0.6369812767411859,176.40632615298418,0.09309235385047275,47,1762115346.1074197
0.4991486966609955,0.11108610033988953,-0.3624247908592224,0.9999979734420776,0.5628604888916016,0.25038591027259827,-0.19783449172973633,0.9999867081642151,0.44371119141578674,0.2572114169597626,-0.164039745926857,0.9999653697013855,0.5334886312484741,0.5535064935684204,-0.019406268373131752,0.9997550249099731,0.47429123520851135,0.5569435358047485,0.019237324595451355,0.999816358089447,0.5300970673561096,0.7641766667366028,-0.021806566044688225,0.9256487488746643,0.4765734076499939,0.757057785987854,0.04449204355478287,0.9506254196166992,0.5287469625473022,0.9413843750953674,0.2186029851436615,0.7762442231178284,0.5010654330253601,0.9120751023292542,0.3027070164680481,0.915473997592926,0.577256977558136,0.5626741647720337,-0.21152463555335999,0.9870455861091614,0.419945627450943,0.5861979722976685,-0.176805779337883,0.9689470529556274,-179.8851728219619,0.5038899332284927,0.5552250146865845,125.74014918347619,128.0860293193186,1.0265238771896696,-0.004068635914914062,0.11311525713835285,0.05517401692996039,1.0979211475491188,176.7213756838793,0.05220317560815098,48,1762115346.1709375
0.49960193037986755,0.11125911772251129,-0.40554913878440857,0.9999979734420776,0.5635021328926086,0.2537704110145569,-0.21411769092082977,0.9999873042106628,0.44203996658325195,0.2581205666065216,-0.18381533026695251,0.9999625086784363,0.5334234237670898,0.5643730759620667,-0.019155453890562057,0.9997705817222595,0.4733291566371918,0.5673496127128601,0.018988249823451042,0.9998000860214233,0.5284581780433655,0.7809791564941406,-0.01455199159681797,0.9320986866950989,0.4722568988800049,0.7681317925453186,0.03130438178777695,0.9485133290290833,0.5284545421600342,0.9537716507911682,0.23436884582042694,0.7950620055198669,0.5024863481521606,0.8575101494789124,0.39840784668922424,0.859221339225769,0.578301191329956,0.5708760619163513,-0.2754446566104889,0.9868218302726746,0.4180888235569,0.5984154343605042,-0.19952121376991272,0.9675371646881104,-179.88810614402013,0.5033762902021408,0.5658613443374634,125.97305597980302,107.11125875877886,1.073539919283342,-0.006261989884897105,0.1296709684920358,-0.026739894575385878,0.20183608404138412,177.94883398289346,0.040045269330283344,49,1762115346.252963
0.4996705651283264,0.11148039251565933,-0.41117915511131287,0.9999977946281433,0.5646189451217651,0.25621265172958374,-0.20954377949237823,0.9999874234199524,0.4406163692474365,0.2596997320652008,-0.18664850294589996,0.9999576210975647,0.533216655254364,0.5743709802627563,-0.018125902861356735,0.9997835755348206,0.47198861837387085,0.5755908489227295,0.017972733825445175,0.9997774958610535,0.5276263952255249,0.7996469140052795,-0.03497734293341637,0.9371406435966492,0.47320181131362915,0.7823492884635925,0.030179953202605247,0.9444500207901001,0.5311788320541382,1.0089757442474365,0.21321511268615723,0.8090438842773438,0.5039770603179932,0.8648476600646973,0.4045950472354889,0.8100471496582031,0.5794161558151245,0.5820561051368713,-0.2561020851135254,0.9853289127349854,0.41744714975357056,0.6105822324752808,-0.1994028091430664,0.9641454815864563,179.99728537311708,0.5026026368141174,0.5749809145927429,125.83192141418773,105.7802680825927,1.0955267348770859,-0.012707803015468965,0.14979537889171726,-0.10587703072962629,0.33055764651272984,178.3892080937263,0.0008750660030200324,50,1762115346.3138433
0.5005404949188232,0.11155358701944351,-0.4246993958950043,0.9999976754188538,0.5659055113792419,0.258912593126297,-0.21255886554718018,0.9999873638153076,0.4392429292201996,0.2624398469924927,-0.1971423476934433,0.9999544024467468,0.53326815366745,0.580384373664856,-0.0176484826952219,0.9997883439064026,0.47156381607055664,0.5849119424819946,0.017480183392763138,0.9997462630271912,0.527635395526886,0.8067915439605713,-0.02748308703303337,0.9410656690597534,0.4736674726009369,0.7928655743598938,0.014717085286974907,0.9395458102226257,0.534382700920105,1.0146526098251343,0.24030503630638123,0.8179835081100464,0.5048403739929199,0.8909361958503723,0.37648096680641174,0.7627800107002258,0.5807899832725525,0.5890107750892639,-0.2586909532546997,0.9842221736907959,0.41656965017318726,0.618483304977417,-0.2199098765850067,0.9619733691215515,179.9718415782582,0.5024159848690033,0.5826481580734253,125.27608934703946,104.40454057938562,1.1160081890663582,-0.0023073443030737083,0.09478053151074133,0.12856784934507018,-0.6800796777732102,178.40486006799838,0.008345264905797347,51,1762115346.394738
0.5007636547088623,0.11122816801071167,-0.4094110131263733,0.9999973177909851,0.5673224925994873,0.26275089383125305,-0.19837740063667297,0.9999868869781494,0.43862056732177734,0.2644439935684204,-0.1864001750946045,0.9999467730522156,0.5332446694374084,0.5918527245521545,-0.015005653724074364,0.9997938871383667,0.47017231583595276,0.5955684781074524,0.014975960366427898,0.9997143149375916,0.5276524424552917,0.816222071647644,-0.038115598261356354,0.9448544383049011,0.47446298599243164,0.8068879842758179,0.01551761757582426,0.9323268532752991,0.5382768511772156,1.016446590423584,0.2437303066253662,0.8210790753364563,0.5052484273910522,0.9080571532249451,0.4075698256492615,0.7157066464424133,0.5819047689437866,0.5961847305297852,-0.22731205821037292,0.9833472371101379,0.41692209243774414,0.619432270526886,-0.20155537128448486,0.9548913836479187,179.78078318528412,0.5017084926366806,0.5937106013298035,119.43367630213619,104.66127371482935,1.1247208951797893,-0.009568366491471319,0.14961225937510075,-0.09820054302674637,0.741563007475556,179.2463059616981,0.060998835853756164,52,1762115346.4686787
0.5010951161384583,0.11075615137815475,-0.41985589265823364,0.9999964237213135,0.5690662264823914,0.2667448818683624,-0.20441250503063202,0.9999854564666748,0.43863028287887573,0.26556792855262756,-0.18426065146923065,0.9999447464942932,0.5332760810852051,0.5996020436286926,-0.01593061536550522,0.9997899532318115,0.4684830605983734,0.6019036769866943,0.0159668680280447,0.9996939301490784,0.5276476144790649,0.823182225227356,-0.036786437034606934,0.9476367831230164,0.4747048020362854,0.8117354512214661,0.046248383820056915,0.9185793399810791,0.5379422903060913,0.9929248094558716,0.2982354760169983,0.8061448335647583,0.5050169229507446,0.9200437068939209,0.42146816849708557,0.688787043094635,0.5831629633903503,0.60651695728302,-0.2568895220756531,0.9822906851768494,0.41539010405540466,0.6264260411262512,-0.20539522171020508,0.948983907699585,179.49166050909696,0.5008795708417892,0.6007528603076935,111.4822266155993,114.36647508043919,1.1504849754677096,-0.011452009763070953,0.09729267473228961,-0.026023566118597703,-0.7228237908834569,-179.48302112315727,0.14620890432892425,53,1762115346.541061
0.5033203363418579,0.11042624711990356,-0.43194466829299927,0.9999950528144836,0.5711656212806702,0.26958173513412476,-0.2046966850757599,0.9999837279319763,0.43839940428733826,0.26768091320991516,-0.18431998789310455,0.9999379515647888,0.5334667563438416,0.607979416847229,-0.015688734129071236,0.9997884035110474,0.4676697850227356,0.6093211770057678,0.015704365447163582,0.999682605266571,0.528850257396698,0.8270407915115356,-0.042705852538347244,0.9452014565467834,0.4757736325263977,0.8209152817726135,0.0431475006043911,0.9080109000205994,0.5382004976272583,0.9740344285964966,0.3625086843967438,0.776839554309845,0.5048420429229736,0.9336297512054443,0.39846405386924744,0.6671852469444275,0.5857375860214233,0.620057225227356,-0.25234144926071167,0.9808840155601501,0.4140530228614807,0.6463633179664612,-0.22392213344573975,0.9421840310096741,179.28990455574655,0.5005682706832886,0.6086502969264984,102.87489036858003,115.07625791808253,1.1711997610170362,-0.0046220171827266515,0.11725688778129016,0.1014080532958637,0.29641788875573977,-179.17974891568585,0.21937380194905642,54,1762115346.6084125
0.5064773559570312,0.1100233644247055,-0.44327622652053833,0.9999930262565613,0.573217511177063,0.2710612714290619,-0.20741131901741028,0.9999812841415405,0.4379504323005676,0.2712070345878601,-0.20412997901439667,0.9999279379844666,0.5355069041252136,0.6103776693344116,-0.011852653697133064,0.9997778534889221,0.46783170104026794,0.6139853000640869,0.011879434809088707,0.999649167060852,0.5295965075492859,0.8351849913597107,-0.03344760090112686,0.9259832501411438,0.47581344842910767,0.8328219652175903,0.030449718236923218,0.8793752193450928,0.5375260710716248,0.9716913104057312,0.3787023723125458,0.7357730269432068,0.5035787224769592,0.9466837644577026,0.3874583840370178,0.6242234706878662,0.5874925851821899,0.6253505349159241,-0.24070315062999725,0.9789880514144897,0.4141930639743805,0.6642842888832092,-0.24383966624736786,0.9373468160629272,179.34236643921858,0.5016693025827408,0.6121814846992493,102.80331690424235,112.6252061122588,1.1849654584063902,0.016300156363610693,0.05227724362368256,0.3097409806578458,-0.9619869876138496,179.93825836527012,0.21932862530901448,55,1762115346.6759598
0.5091610550880432,0.1082656979560852,-0.44764596223831177,0.9999908208847046,0.5756239295005798,0.27439531683921814,-0.20693758130073547,0.9999739527702332,0.4381362497806549,0.2731190323829651,-0.211932972073555,0.9999196529388428,0.5359686613082886,0.616734504699707,-0.00374007411301136,0.9997522830963135,0.46651458740234375,0.620136022567749,0.0037559017073363066,0.999612033367157,0.5297609567642212,0.8413377404212952,-0.01757522113621235,0.9142329692840576,0.4748159348964691,0.8377919793128967,0.027461498975753784,0.8674109578132629,0.5355150699615479,0.9700435400009155,0.40121158957481384,0.7091212868690491,0.49691152572631836,0.9517217874526978,0.37466612458229065,0.6022670269012451,0.589881181716919,0.6313923001289368,-0.21568593382835388,0.9748454689979553,0.41399121284484863,0.6715076565742493,-0.2523344159126282,0.9348686337471008,179.0628024781306,0.5012416243553162,0.618435263633728,103.53098065043886,114.4598073222392,1.1938205119366796,-0.007405624156252709,0.10828967521663921,-0.4104864115199017,0.9699044511878081,-179.46814425416068,0.40489194340134854,56,1762115346.7337103
0.5101132392883301,0.10349728167057037,-0.4403536915779114,0.9999880790710449,0.5772928595542908,0.27759772539138794,-0.1971236765384674,0.9999618530273438,0.4377674460411072,0.2741013765335083,-0.20665553212165833,0.9999114871025085,0.5367335081100464,0.6218541860580444,-0.0006814911612309515,0.9997349381446838,0.46594753861427307,0.6249899864196777,0.0006797317764721811,0.9995912313461304,0.5313519239425659,0.8407739996910095,0.003251850139349699,0.9062612056732178,0.47287091612815857,0.8364639282226562,0.04281805083155632,0.8616905808448792,0.5353115797042847,0.9692016839981079,0.43618327379226685,0.6909379363059998,0.4950518012046814,0.9441276788711548,0.3978899419307709,0.5930277705192566,0.591293215751648,0.6389837265014648,-0.1899796724319458,0.9683352112770081,0.41289758682250977,0.6723089814186096,-0.24969759583473206,0.9336313009262085,178.97977508145965,0.5013405233621597,0.6234220862388611,107.53284497079527,118.19104558481901,1.209561253839684,0.0012339550518346645,0.06222018949028007,0.10779534344978717,-0.5748053136406558,-178.56453306502797,0.4735292926451122,57,1762115346.8138583
0.5108768939971924,0.09689497202634811,-0.4228968620300293,0.9999871850013733,0.5793312788009644,0.2781916558742523,-0.17260101437568665,0.9999592304229736,0.4373205304145813,0.27390244603157043,-0.17841538786888123,0.9999020099639893,0.5386911630630493,0.6261971592903137,-0.0018853021319955587,0.9997382760047913,0.46473175287246704,0.6295033097267151,0.0018766149878501892,0.9995894432067871,0.5323657393455505,0.8575109839439392,-0.0514955148100853,0.90252286195755,0.46686816215515137,0.8548329472541809,-0.022218119353055954,0.8590538501739502,0.5345919132232666,0.9657799601554871,0.4352404475212097,0.6570138931274414,0.49088993668556213,0.9423069357872009,0.4082183241844177,0.5571287870407104,0.5943875312805176,0.6429470777511597,-0.19464153051376343,0.9667098522186279,0.41271886229515076,0.6694926619529724,-0.24215300381183624,0.9322883486747742,178.9228772017883,0.5017114579677582,0.6278502345085144,90.42870116815531,95.40507791162632,1.2033704679103971,0.005835909044873647,0.06966799578383528,0.07240247883785161,0.11717623391568352,-178.2699976176842,0.5039588297222599,58,1762115346.877419
0.5118691921234131,0.08806781470775604,-0.4220596253871918,0.9999826550483704,0.5851967930793762,0.27753975987434387,-0.17528098821640015,0.999955415725708,0.4374562203884125,0.2737535834312439,-0.16882233321666718,0.9998897314071655,0.5414073467254639,0.6306426525115967,-0.00262464745901525,0.9997379183769226,0.4648508131504059,0.6326743364334106,0.0026122715789824724,0.99957674741745,0.533460259437561,0.8733628988265991,-0.06930486112833023,0.8964632153511047,0.4655243754386902,0.8723849654197693,-0.05379288271069527,0.8544847965240479,0.5345010161399841,0.9813627600669861,0.4225555956363678,0.6166725754737854,0.4833741784095764,0.9648083448410034,0.40433749556541443,0.5142554640769958,0.5956400632858276,0.6448776721954346,-0.2038557082414627,0.9637376070022583,0.41219767928123474,0.6687014698982239,-0.21579377353191376,0.9282354712486267,178.68095678459525,0.5031290799379349,0.6316584944725037,87.02055886954643,88.17200297112795,1.2171012908271006,0.019006746411024414,0.051059191325723306,0.1765878147388403,-0.24949728121354495,-178.53199121138147,0.8677941938741609,59,1762115346.9520042
0.5153777003288269,0.08289994299411774,-0.43411803245544434,0.9999774694442749,0.5880199074745178,0.277736097574234,-0.1771710067987442,0.9999420046806335,0.4375572204589844,0.2734203040599823,-0.1789282262325287,0.9998822212219238,0.5438286066055298,0.6387385725975037,0.0005447819130495191,0.9997085332870483,0.4650472104549408,0.6395805478096008,-0.000554286758415401,0.9995450377464294,0.5347394943237305,0.8852229714393616,-0.058433592319488525,0.8848023414611816,0.46389085054397583,0.8893221616744995,-0.06517770141363144,0.8476707339286804,0.5341121554374695,1.0045901536941528,0.4272955060005188,0.5786697864532471,0.4804868698120117,1.003170132637024,0.3923470377922058,0.478278249502182,0.5978894233703613,0.6547444462776184,-0.17385715246200562,0.9555865526199341,0.41029778122901917,0.6754273176193237,-0.2145349085330963,0.9236000776290894,178.68427466036806,0.5044379085302353,0.6391595602035522,90.35246702462379,89.45697806254825,1.2492010789517738,0.023396345829284508,0.13408748018206926,0.07846755995842916,1.4841963043323583,-178.3570081261787,1.045748238258558,60,1762115347.0079458
0.518565833568573,0.07450882345438004,-0.4327600598335266,0.9999714493751526,0.5916184782981873,0.2777652144432068,-0.1698663979768753,0.9999306797981262,0.43763089179992676,0.2713592052459717,-0.17840269207954407,0.9998696446418762,0.5455654859542847,0.6445223689079285,0.0005194288678467274,0.999688446521759,0.4648103713989258,0.6459806561470032,-0.0005346859106794,0.9995243549346924,0.5378281474113464,0.9015879034996033,-0.09917037189006805,0.8563029170036316,0.45783478021621704,0.901912271976471,-0.09410782158374786,0.8278588056564331,0.5320842266082764,0.9925708174705505,0.4357941150665283,0.5280200839042664,0.4756001830101013,0.9909803867340088,0.38782602548599243,0.43800899386405945,0.6027349233627319,0.675037145614624,-0.18693885207176208,0.9483156800270081,0.4092273712158203,0.6821920871734619,-0.2144484966993332,0.9190386533737183,178.5417179505084,0.5051879286766052,0.6452515125274658,78.47854908213466,80.34334948051065,1.2469538215702303,0.008928115306131136,0.07251758909490306,-0.1722274141722675,-0.7329177618397257,-177.617822426681,1.5697210474738261,61,1762115347.0919523
0.5194903016090393,0.07004355639219284,-0.47014403343200684,0.9999707937240601,0.5937250256538391,0.2774173617362976,-0.19253206253051758,0.9999138116836548,0.43766680359840393,0.26851731538772583,-0.19389984011650085,0.9998682141304016,0.5471576452255249,0.648894190788269,0.00037452136166393757,0.9996394515037537,0.46447163820266724,0.6503115296363831,-0.0003940222377423197,0.9995020627975464,0.5396780371665955,0.9097653031349182,-0.07338301092386246,0.8388819098472595,0.45249709486961365,0.9004404544830322,-0.06093185022473335,0.8243107795715332,0.5267503261566162,0.9877880811691284,0.45449528098106384,0.49539726972579956,0.4626174569129944,0.9877468347549438,0.38736283779144287,0.4232857823371887,0.606255829334259,0.6846129894256592,-0.18690675497055054,0.9357369542121887,0.40816831588745117,0.6902098059654236,-0.21409496665000916,0.9145253896713257,178.49715345834122,0.5058146417140961,0.649602860212326,82.66385672960742,87.3594561761939,1.279391954890309,0.010521612610124444,0.0730528837494146,0.02675253317694099,0.008986829138883264,-176.7359404970301,7.034564256351143,62,1762115347.1515167
0.5191183686256409,0.06504272669553757,-0.46699127554893494,0.9999678134918213,0.5970809459686279,0.2775959074497223,-0.2071198672056198,0.9998986721038818,0.4377695918083191,0.26676079630851746,-0.18942424654960632,0.9998611211776733,0.5473954081535339,0.6563875675201416,-0.007097117602825165,0.9995825290679932,0.4625939726829529,0.6565722823143005,0.007034777197986841,0.9994577765464783,0.5393562316894531,0.9350739121437073,-0.10519248247146606,0.8104449510574341,0.444647878408432,0.9240360856056213,-0.046225547790527344,0.8105442523956299,0.5255234241485596,1.05745267868042,0.42762333154678345,0.45906636118888855,0.4519679546356201,1.0853770971298218,0.36563369631767273,0.4143877327442169,0.6088106036186218,0.6983566880226135,-0.2129795104265213,0.9327803254127502,0.4061824679374695,0.6928188800811768,-0.2074081152677536,0.9142677187919617,178.14736264239457,0.5049946904182434,0.6564799249172211,83.58803840224837,100.04332888296199,1.3264790112493148,-0.010478843499483541,0.08788776253286898,-0.26838239551962145,0.18958732535933553,-176.10918143069614,3.8161446333417075,63,1762115347.229765
0.5186675786972046,0.06131460890173912,-0.4614102840423584,0.9999678134918213,0.599786102771759,0.2769849896430969,-0.21948668360710144,0.999893307685852,0.43781155347824097,0.2636248767375946,-0.1895352452993393,0.9998583793640137,0.54777991771698,0.6616376042366028,-0.008736670948565006,0.9994608759880066,0.46061816811561584,0.6582658290863037,0.00867210142314434,0.9993104338645935,0.5390231609344482,0.9464127421379089,-0.08424849808216095,0.7730687856674194,0.4426296651363373,0.9330763816833496,-0.04000043123960495,0.7902989983558655,0.5275315046310425,1.1420753002166748,0.3705090284347534,0.42677825689315796,0.4507291913032532,1.1338967084884644,0.33229032158851624,0.3962067663669586,0.6148108243942261,0.7178840041160583,-0.2026638239622116,0.930012047290802,0.40463656187057495,0.6993696689605713,-0.17153982818126678,0.9131584167480469,177.8541721141673,0.5041990429162979,0.6599517166614532,98.46301612820366,108.18241405445333,1.3493530936410207,-0.012098447990835134,0.05279133253092417,-0.024627364073195497,-0.5336689074046793,-175.28475810140284,8.602961360698357,64,1762115347.2955294
0.5188961029052734,0.053823985159397125,-0.47425293922424316,0.9999676942825317,0.6038826704025269,0.27604299783706665,-0.22662866115570068,0.999890148639679,0.4376586377620697,0.26058003306388855,-0.20130331814289093,0.9998570084571838,0.5483540296554565,0.6703175902366638,-0.008724150247871876,0.9993360042572021,0.45981353521347046,0.6657180786132812,0.008665831759572029,0.9991408586502075,0.5388062596321106,0.9602312445640564,-0.0656670406460762,0.7434543967247009,0.4373978078365326,0.9370018243789673,-0.024211153388023376,0.7713547945022583,0.5279760360717773,1.1830215454101562,0.36146122217178345,0.3999594748020172,0.44637084007263184,1.1609615087509155,0.3335356116294861,0.379287451505661,0.6216193437576294,0.7453007102012634,-0.18943758308887482,0.9272178411483765,0.40146249532699585,0.7172425389289856,-0.18311676383018494,0.9085029363632202,177.60941370064685,0.5040837824344635,0.6680178344249725,106.46453342898106,114.93165636751822,1.3880130657033272,-0.0018626633171637621,0.1303522372187824,0.16541506968039166,1.2534205107320329,-174.68536409122478,17.95067718994419,65,1762115347.3574088
0.5188945531845093,0.04568566381931305,-0.49709051847457886,0.999963641166687,0.6072664260864258,0.2721499800682068,-0.25879159569740295,0.9998816847801208,0.43758755922317505,0.25814735889434814,-0.2239789068698883,0.9998552203178406,0.554456353187561,0.6726837158203125,-0.008074009791016579,0.999165952205658,0.4600808024406433,0.6696035861968994,0.008029265329241753,0.9989908933639526,0.5440340042114258,0.9600732326507568,-0.06439404934644699,0.713740348815918,0.4382108151912689,0.9472794532775879,-0.024028288200497627,0.7507465481758118,0.5331515073776245,1.1923325061798096,0.3850848972797394,0.3730038106441498,0.45012426376342773,1.1807812452316284,0.34177106618881226,0.3641795516014099,0.6243749856948853,0.7706148624420166,-0.18978574872016907,0.9251328110694885,0.3964717388153076,0.7508859634399414,-0.18767336010932922,0.903385579586029,177.86177169956113,0.5072685778141022,0.671143651008606,106.27007360849956,115.73391191037894,1.4292732899072425,0.05008248350329934,0.04915501274745051,0.8168631414579172,-1.2768665394008891,-175.28239875698546,29.349705853249336,66,1762115347.4209998
0.5186443328857422,0.04147873818874359,-0.4435529112815857,0.9999486804008484,0.6102453470230103,0.2685784101486206,-0.24130073189735413,0.9998654723167419,0.43746161460876465,0.25681406259536743,-0.21889209747314453,0.9998512268066406,0.5549327731132507,0.6791046261787415,-0.00685298815369606,0.9991016387939453,0.4595896303653717,0.6770668029785156,0.0067900181747972965,0.9989389181137085,0.5464658737182617,0.9637914299964905,-0.04272960126399994,0.6964769959449768,0.4401702880859375,0.959429144859314,0.017378676682710648,0.7371522188186646,0.5390220880508423,1.1839159727096558,0.4104894697666168,0.3487456440925598,0.44775691628456116,1.1797888278961182,0.36379820108413696,0.349824458360672,0.6286965608596802,0.7723486423492432,-0.13798275589942932,0.9266730546951294,0.39152684807777405,0.7627055048942566,-0.12728351354599,0.9049731492996216,177.71259866894238,0.5072612017393112,0.6780857145786285,108.73847202525359,124.42021475097428,1.4110800759374893,-8.507189348380231e-05,0.08006622889873317,-0.5786070572781644,0.3565142385895444,-176.10490671783364,229.10783094754976,67,1762115347.5077038
0.5184913873672485,0.04153963550925255,-0.48808032274246216,0.9999471306800842,0.616523265838623,0.2655296325683594,-0.25389641523361206,0.9998591542243958,0.43733102083206177,0.2528073489665985,-0.23468343913555145,0.9998579621315002,0.5574465990066528,0.6922861933708191,-0.006666266359388828,0.9990018010139465,0.458857923746109,0.6897551417350769,0.006617164704948664,0.9988616704940796,0.5484764575958252,0.9816165566444397,-0.052384983748197556,0.6782630085945129,0.4417136609554291,0.9719549417495728,0.007727377116680145,0.7225063443183899,0.5436991453170776,1.230541706085205,0.384105384349823,0.32729461789131165,0.4517122209072113,1.2179925441741943,0.35130447149276733,0.336784303188324,0.6337665915489197,0.7835474610328674,-0.16034600138664246,0.9253941178321838,0.3896821141242981,0.7626388669013977,-0.17508406937122345,0.9082079529762268,177.51061918185016,0.5081522613763809,0.691020667552948,110.72274869584757,125.64290674545646,1.4600153271314982,0.01594110019663125,0.2314069371163878,0.28670899727556065,2.7074926224472766,-175.93893102435226,7.188968677816275,68,1762115347.5636008
0.5183547735214233,0.04362715780735016,-0.5435372591018677,0.9999423027038574,0.6182799935340881,0.2630974352359772,-0.2708887755870819,0.9998437166213989,0.43657082319259644,0.2508096396923065,-0.28062549233436584,0.9998641014099121,0.5614438056945801,0.6999191045761108,0.0013866887893527746,0.9986845850944519,0.45903196930885315,0.6974502801895142,-0.0013879167381674051,0.9986234903335571,0.5536525845527649,0.9830384850502014,-0.05444364622235298,0.646375834941864,0.4453056752681732,1.0014137029647827,-0.007301194127649069,0.69305819272995,0.5516882538795471,1.2513078451156616,0.40358272194862366,0.3010711073875427,0.45371419191360474,1.239217758178711,0.3508833050727844,0.31326764822006226,0.6379885077476501,0.7893279194831848,-0.17570237815380096,0.9203999042510986,0.3875061273574829,0.7723143100738525,-0.24242591857910156,0.9110410809516907,177.77177615496043,0.5102378875017166,0.6986846923828125,109.20090381299718,122.36212289079918,1.513932346282545,0.026727008860372745,0.09821341277115796,0.13821992010988576,-1.7068564984274213,-176.1313532768265,5.332617127620084,69,1762115347.6416352
0.517875075340271,0.0424385704100132,-0.6173104047775269,0.9999349117279053,0.6194843649864197,0.2592679262161255,-0.31098538637161255,0.9998250603675842,0.4353618621826172,0.25050508975982666,-0.31150129437446594,0.9998664855957031,0.567153811454773,0.7048924565315247,0.0011089416220784187,0.9981773495674133,0.45916876196861267,0.7040420770645142,-0.0010878588072955608,0.9981757402420044,0.5595532655715942,0.9883792400360107,-0.05917762964963913,0.6220366358757019,0.4454658031463623,0.9937604069709778,-0.004118121694773436,0.665367603302002,0.5589557886123657,1.2698148488998413,0.42758646607398987,0.278202086687088,0.45492154359817505,1.2575231790542603,0.3921453058719635,0.29145199060440063,0.6388828158378601,0.7995750308036804,-0.24701102077960968,0.9117857217788696,0.38637062907218933,0.7851843237876892,-0.26957109570503235,0.9121503233909607,178.18304378952203,0.5131612867116928,0.7044672667980194,108.02491746238898,122.93616949690147,1.5958115595589166,0.046225104520487524,0.09143469213108697,0.30830599760838295,-0.10718586398777154,-177.27521090490902,3.2192782719751705,70,1762115347.7048779
0.5177788138389587,0.039984941482543945,-0.6929678916931152,0.9999294877052307,0.6200639009475708,0.25819480419158936,-0.3862108290195465,0.9997972846031189,0.43449705839157104,0.25005948543548584,-0.3453005254268646,0.9998654723167419,0.5674909353256226,0.7161899209022522,-0.018234629184007645,0.997884213924408,0.45908990502357483,0.7113450169563293,0.018236054107546806,0.9978846311569214,0.5574731230735779,1.0023492574691772,-0.08472802489995956,0.6044108271598816,0.4458712935447693,1.007077932357788,0.004407673142850399,0.6433217525482178,0.5556585788726807,1.2657966613769531,0.4190119206905365,0.26335495710372925,0.45411545038223267,1.2505406141281128,0.45756062865257263,0.27318233251571655,0.6374484300613403,0.8232796788215637,-0.3568381071090698,0.8984548449516296,0.38661545515060425,0.8100278973579407,-0.33214321732521057,0.9116280674934387,178.2566282113513,0.5132904201745987,0.7137674689292908,104.52505927445833,115.49398977080159,1.6624902120801635,0.0016221514077863267,0.11682747167505758,-0.5602942998278343,0.31897954378317034,-177.48973931199086,4.350404878376358,71,1762115347.7844841
0.5177545547485352,0.03665433079004288,-0.6820460557937622,0.9999189972877502,0.6214770674705505,0.2580982744693756,-0.3736245036125183,0.9997627139091492,0.4338645040988922,0.2501540184020996,-0.3310234546661377,0.999859631061554,0.5688362121582031,0.7243878841400146,-0.024494390934705734,0.9975684285163879,0.4591667056083679,0.7173815369606018,0.02449917048215866,0.9975947737693787,0.5569120049476624,1.0376076698303223,-0.09391240030527115,0.584809422492981,0.4461653232574463,1.007472276687622,-0.013970370404422283,0.620806097984314,0.5528352856636047,1.2617145776748657,0.4154725670814514,0.2507283091545105,0.4545659124851227,1.2517814636230469,0.4414042532444,0.2577071487903595,0.6365477442741394,0.8076834082603455,-0.37218958139419556,0.8733606338500977,0.3854624629020691,0.8246015906333923,-0.33075782656669617,0.9056885838508606,178.32253543164384,0.5140014588832855,0.7208847105503082,101.25872363361164,110.59114392189512,1.6498490460750463,0.00901902657944954,0.0902772107454887,0.09382416591820733,-0.33677141073984707,-177.57531912929687,6.319804839070533,72,1762115347.8633218
0.5174366235733032,0.02966664358973503,-0.6525636315345764,0.9999033808708191,0.6226422786712646,0.25776684284210205,-0.3651655316352844,0.9997139573097229,0.43056759238243103,0.2532324492931366,-0.32881873846054077,0.9998513460159302,0.5697913765907288,0.7400197982788086,-0.025723805651068687,0.9969525933265686,0.4591922163963318,0.7365138530731201,0.025722146034240723,0.997010350227356,0.5558913946151733,1.0853145122528076,-0.07203549146652222,0.5610918402671814,0.44710737466812134,1.0605710744857788,0.03942425549030304,0.5936428308486938,0.5517287850379944,1.3251831531524658,0.42251157760620117,0.23421074450016022,0.4551462233066559,1.3112366199493408,0.4499529004096985,0.24050886929035187,0.6364783048629761,0.8218678832054138,-0.3202562928199768,0.8526026606559753,0.3850535452365875,0.848657488822937,-0.30078253149986267,0.9012861847877502,178.56268987946927,0.5144917964935303,0.7382668256759644,108.2381521942313,123.75399546294493,1.6870139632010592,0.007638091948644242,0.27076485837056513,-0.02151110880499885,2.8114939979144564,-178.6476439417096,6.2467211750910305,73,1762115347.9275181
0.5173779726028442,0.02384093403816223,-0.6534450054168701,0.9998757243156433,0.6236286163330078,0.2578940987586975,-0.3552404046058655,0.999649167060852,0.4274260401725769,0.25422725081443787,-0.32922834157943726,0.9998412728309631,0.571550190448761,0.7513355016708374,-0.02373337931931019,0.996474027633667,0.4590844213962555,0.7506617307662964,0.023750323802232742,0.9965965747833252,0.5562163591384888,1.1102709770202637,-0.03292451053857803,0.5463402271270752,0.4472554326057434,1.0399588346481323,0.08153967559337616,0.5776983499526978,0.554168164730072,1.3561904430389404,0.47196054458618164,0.21818408370018005,0.4554019570350647,1.3455710411071777,0.4956105649471283,0.2245340347290039,0.6402846574783325,0.8255548477172852,-0.3074825704097748,0.8402564525604248,0.3843596577644348,0.8462863564491272,-0.30694130063056946,0.9015762209892273,178.81821905489548,0.5153173059225082,0.7509986162185669,114.48867450589684,137.61361631819983,1.7477089518996647,0.010254212817627199,0.1581502102706865,0.032496612643661354,-1.3988629656575058,-178.92931856575257,3.3473672064614637,74,1762115348.0080225
0.5169891119003296,0.026205187663435936,-0.6883265376091003,0.9998518824577332,0.622261643409729,0.2580321729183197,-0.3545806407928467,0.9995809197425842,0.4204135537147522,0.2559010088443756,-0.3501744866371155,0.9998350739479065,0.5712715983390808,0.7605538964271545,-0.022094134241342545,0.9958804249763489,0.45869094133377075,0.7602964043617249,0.022190188989043236,0.9961097240447998,0.5558266639709473,1.1176648139953613,-0.02315061166882515,0.5437475442886353,0.44268912076950073,1.0313693284988403,0.060692429542541504,0.5779489874839783,0.5567529201507568,1.3588284254074097,0.4979231357574463,0.20650656521320343,0.4505685269832611,1.345335841178894,0.5008367300033569,0.21249815821647644,0.641848087310791,0.8339882493019104,-0.2929874062538147,0.8255490064620972,0.38111862540245056,0.8682160973548889,-0.3192148804664612,0.9017373919487,179.27666050438188,0.5149812698364258,0.7604251503944397,114.6370355872334,133.41920675322646,1.7801050477234703,-0.005237558620894679,0.14692477201953164,-0.24145936823835598,-0.17496302724829915,-179.39507889314197,1.4433633901443068,75,1762115348.0721815
0.5164262056350708,0.02844863384962082,-0.7318764925003052,0.9998095631599426,0.6223419904708862,0.2581174075603485,-0.3745121657848358,0.9995462894439697,0.41577228903770447,0.2609277367591858,-0.35665363073349,0.9998144507408142,0.5746868252754211,0.7815020084381104,-0.022307319566607475,0.9948845505714417,0.4585696756839752,0.7808924317359924,0.022490868344902992,0.9951639771461487,0.5619548559188843,1.1565181016921997,-0.02259540930390358,0.5268572568893433,0.4362618327140808,1.0642540454864502,0.05996283143758774,0.5600743889808655,0.5634617805480957,1.4199663400650024,0.5623812675476074,0.1900225132703781,0.44946590065956116,1.4079538583755493,0.5326155424118042,0.19636695086956024,0.6420481204986572,0.8582198023796082,-0.37339359521865845,0.8151713609695435,0.38057956099510193,0.8787955641746521,-0.364114373922348,0.8985887169837952,179.733235840949,0.5166282504796982,0.7811972200870514,114.18071942112712,133.23925371008758,1.8858794759190058,0.01820561221800548,0.22961304817625974,0.25913921890755404,0.9140305909689789,179.22055331558443,0.3301693061104602,76,1762115348.162647
0.5125235319137573,0.02836325764656067,-0.8236287236213684,0.9997819662094116,0.622818648815155,0.26069727540016174,-0.4251309037208557,0.999548614025116,0.40894192457199097,0.2682212293148041,-0.3678894639015198,0.9997819662094116,0.5759522914886475,0.8039072751998901,-0.033076148480176926,0.9934642910957336,0.4558921754360199,0.8082712888717651,0.03357851505279541,0.9929860234260559,0.5633254051208496,1.1813788414001465,-0.21868398785591125,0.5091493129730225,0.4366564154624939,1.1527397632598877,-0.05907389521598816,0.5352808237075806,0.5676118731498718,1.4700051546096802,0.35321855545043945,0.18014109134674072,0.4484879970550537,1.4673569202423096,0.445023775100708,0.18468981981277466,0.6409449577331543,0.8959970474243164,-0.4278365671634674,0.8010244369506836,0.37956303358078003,0.8962287306785583,-0.40439310669898987,0.8788976073265076,-179.9955627039165,0.5159222334623337,0.8060892820358276,90.58329553981365,106.82144076826788,1.8893524315528516,-0.010782689436696646,0.3801655864253723,-0.4427256657449068,2.2993231379980545,177.9852267474648,0.005204297721828535,77,1762115348.228124
0.5077338814735413,0.0288029033690691,-0.8621953725814819,0.9997736811637878,0.62285315990448,0.2736184597015381,-0.4498094618320465,0.9995381236076355,0.4042506217956543,0.27503347396850586,-0.3689359724521637,0.9997610449790955,0.5759573578834534,0.8222299218177795,-0.0439288467168808,0.9907817840576172,0.4530501365661621,0.8248690366744995,0.044575173407793045,0.9899265170097351,0.5658635497093201,1.2001484632492065,-0.17475077509880066,0.5153542757034302,0.4437808096408844,1.1939778327941895,-0.04345642402768135,0.529259979724884,0.5679913759231567,1.4992475509643555,0.3891366422176361,0.18762029707431793,0.44783538579940796,1.5118448734283447,0.4927036762237549,0.19101813435554504,0.6401900053024292,0.9080677628517151,-0.4624883234500885,0.7862930297851562,0.37880873680114746,0.9167591333389282,-0.42787623405456543,0.8556981086730957,-179.90070108591524,0.5145037472248077,0.8235494792461395,98.84069501699456,107.23233647733902,1.9694874768858643,-0.02743579781788669,0.3377082045984856,-0.3220978127941331,-0.8211938282256178,179.62912958903954,0.307824852727793,78,1762115348.279826
0.502886176109314,0.02901323325932026,-0.8830356597900391,0.9997153878211975,0.62250155210495,0.27281656861305237,-0.4644303321838379,0.9994609355926514,0.39801162481307983,0.2750639021396637,-0.3754527270793915,0.9997022151947021,0.5774510502815247,0.8217018246650696,-0.051112495362758636,0.9869061708450317,0.45117703080177307,0.8219584822654724,0.05182192474603653,0.9851226210594177,0.5675646066665649,1.2008075714111328,-0.142027348279953,0.5189820528030396,0.44638967514038086,1.2016640901565552,0.11554346233606339,0.5159354209899902,0.5701590776443481,1.4900994300842285,0.4840623736381531,0.1871485412120819,0.4457569718360901,1.5133202075958252,0.677116334438324,0.18645711243152618,0.6438602209091187,0.8834238052368164,-0.4072979986667633,0.7478751540184021,0.3793873190879822,0.903684675693512,-0.3867366909980774,0.8203943371772766,-179.5756982880814,0.5143140405416489,0.821830153465271,101.30479900923704,128.5526318814434,2.0763090179290344,-0.0023915921755805498,-0.02167517778672806,0.3157270226880127,-4.530670564865349,179.42644007844444,4.132313753202853,79,1762115348.3591483
0.4928836226463318,0.020950021222233772,-0.8381163477897644,0.999672532081604,0.623787522315979,0.28062838315963745,-0.42504802346229553,0.9993002414703369,0.3934510350227356,0.28347399830818176,-0.3592047393321991,0.9996430277824402,0.5768674612045288,0.8548351526260376,-0.05292940139770508,0.9848931431770325,0.4464971125125885,0.8478774428367615,0.053593359887599945,0.9832895398139954,0.5664588212966919,1.2362114191055298,-0.12759891152381897,0.5247316956520081,0.44622349739074707,1.2454489469528198,0.09045792371034622,0.5159810781478882,0.5691059827804565,1.5403165817260742,0.5056061148643494,0.19322164356708527,0.44010263681411743,1.5706281661987305,0.6367979645729065,0.19225823879241943,0.6433788537979126,0.8981001377105713,-0.3515098989009857,0.7129995822906494,0.37565547227859497,0.9404935240745544,-0.38490259647369385,0.7893405556678772,-179.69173691515735,0.5116822868585587,0.8513562977313995,104.56400694399781,126.05685116606163,2.0835245481961016,-0.03322140025942991,0.37271719731420816,-0.38917372885457097,4.9785308696179795,179.29219444980416,1.7625278295748799,80,1762115348.438367
0.4873107075691223,0.015807313844561577,-0.8029351234436035,0.99956214427948,0.6237034797668457,0.2811843156814575,-0.40858691930770874,0.9991760849952698,0.3914679288864136,0.2949797809123993,-0.3521660268306732,0.999573826789856,0.5763732194900513,0.8695889711380005,-0.04862052574753761,0.9832529425621033,0.4440411925315857,0.8677995204925537,0.04919136315584183,0.9819668531417847,0.5676363706588745,1.27915620803833,-0.12302412837743759,0.5298206210136414,0.4456305503845215,1.2907094955444336,0.07014269381761551,0.5186779499053955,0.5678830742835999,1.5945101976394653,0.5203574895858765,0.19702181220054626,0.43093815445899963,1.6299089193344116,0.6007254719734192,0.1998876929283142,0.6429252028465271,0.8970246315002441,-0.2883571684360504,0.6838000416755676,0.3741832375526428,0.9626685380935669,-0.37546247243881226,0.7576014995574951,-179.7413076017199,0.5102072060108185,0.8686942458152771,105.811467769424,125.4090989123622,2.0994558782475066,-0.019952713815789475,0.23452213944788441,0.17947918158316198,-1.8692985164762421,176.60045943518648,0.3628955586276319,81,1762115348.5122957
0.48714083433151245,0.014416323974728584,-0.6489571928977966,0.9974499344825745,0.6199160814285278,0.28250280022621155,-0.3120468854904175,0.9985251426696777,0.3938196301460266,0.30032026767730713,-0.2811172604560852,0.9989662170410156,0.5762608647346497,0.8808910846710205,-0.04788898676633835,0.9777507781982422,0.4449014663696289,0.8854466676712036,0.04843810573220253,0.9750515222549438,0.5670377016067505,1.3080170154571533,-0.07919658720493317,0.5114584565162659,0.4406836926937103,1.317147970199585,0.17903639376163483,0.48361387848854065,0.5669008493423462,1.634083867073059,0.5893316268920898,0.18279671669006348,0.43364834785461426,1.660951018333435,0.7657440304756165,0.1853381097316742,0.6423202753067017,0.8889808058738708,-0.23023621737957,0.6402172446250916,0.36727824807167053,0.9514910578727722,-0.3442028760910034,0.7157271504402161,-179.64047056130997,0.5105811655521393,0.8831688761711121,111.80293886792121,137.20330512891348,2.103991635448454,0.005889199692117071,0.22794976251713067,0.4069643163454538,-0.10350328289623274,175.4941341816241,1.0351847631981836,82,1762115348.575795
0.4880658686161041,0.008659746497869492,-0.5125818252563477,0.9941399097442627,0.6176738739013672,0.28207927942276,-0.24469709396362305,0.9980348944664001,0.39463475346565247,0.30350106954574585,-0.19268278777599335,0.9975214600563049,0.5681658387184143,0.8890563249588013,-0.04615628719329834,0.974365770816803,0.44537678360939026,0.8980347514152527,0.04668527469038963,0.9694474935531616,0.5662678480148315,1.3087763786315918,-0.03374391421675682,0.5002238750457764,0.437142938375473,1.3106640577316284,0.13306735455989838,0.45341742038726807,0.565995991230011,1.627506971359253,0.6169461011886597,0.17324499785900116,0.43515142798423767,1.6524815559387207,0.6496943831443787,0.17550134658813477,0.6421743631362915,0.8870162963867188,-0.18570540845394135,0.6092113852500916,0.3663179278373718,0.9333086013793945,-0.206813246011734,0.6688582301139832,-179.9411551834523,0.5067713111639023,0.893545538187027,117.79083263474934,135.3073428315357,1.9936148828344271,-0.04410270086026788,0.12011976684173775,-0.5787039636751968,-1.2482351183076243,174.51385536090976,0.5447218330996325,83,1762115348.662181
0.4973936676979065,0.38502439856529236,-0.32565104961395264,0.9946950078010559,0.5095648765563965,0.4193169176578522,-0.23380346596240997,0.9979553818702698,0.49251264333724976,0.3731260895729065,-0.2637156844139099,0.9976034164428711,0.5157153010368347,0.33636999130249023,0.0060538845136761665,0.9767064452171326,0.49827489256858826,0.3240056335926056,-0.0055722701363265514,0.972323477268219,0.5137390494346619,0.4883016347885132,0.12947924435138702,0.46683213114738464,0.4654667377471924,0.46056658029556274,0.08676154166460037,0.425178587436676,0.48417478799819946,0.5729442834854126,0.39599332213401794,0.16813065111637115,0.50163334608078,0.5594404935836792,0.40452465415000916,0.17016054689884186,0.43511447310447693,0.7772805690765381,-0.25247132778167725,0.6374685764312744,0.455191045999527,0.5770111680030823,-0.1888578087091446,0.6834045648574829,-5.154215707935541,0.5069950968027115,0.3301878124475479,146.33200743173006,137.76085340833856,0.7481894011668703,0.00033647345350366144,-0.8470379088943345,0.06681663100353931,-1.4541723274519,-110.2625953487831,1.8037625668878947,84,1762115349.3272724
0.47361284494400024,0.3912067711353302,-0.3388442397117615,0.9662662148475647,0.4594115614891052,0.4139200747013092,-0.27450764179229736,0.9917768836021423,0.5147597789764404,0.38619786500930786,-0.2887120842933655,0.9941028952598572,0.49582481384277344,0.2668328285217285,-0.009376457892358303,0.976591944694519,0.525363028049469,0.2685849964618683,0.009577558375895023,0.9724344611167908,0.4798019826412201,0.26510587334632874,0.2038390338420868,0.421833872795105,0.478879451751709,0.26862189173698425,0.23936708271503448,0.3830734193325043,0.4815816879272461,0.2693348526954651,0.5086879730224609,0.1535814255475998,0.49792489409446716,0.2599893808364868,0.5233393907546997,0.15375520288944244,0.42402416467666626,0.42412880063056946,-0.13798370957374573,0.5778823494911194,0.4778425693511963,0.3855285346508026,0.026324402540922165,0.6226911544799805,-10.071932707419654,0.5105939209461212,0.2677089124917984,175.18988739498448,164.62681680286693,0.8643240883323526,0.048959201645102805,-0.8499768089806007,0.6614743758532415,-0.03998144844109837,-26.604872125953662,2.25746234024469,85,1762115349.400779
